
time,gFx,gFy,gFz,ax,ay,az,wx,wy,wz,
0.020388,0.0472,0.4627,0.9139,0.0000,0.0000,0.0000,0.0000,0.0000,0.0000,
0.021523,0.0472,0.4627,0.9139,0.0000,0.0000,0.0000,-0.0346,-0.0415,-0.0085,
0.039180,0.0472,0.4627,0.9139,0.0000,0.0000,0.0000,-0.0346,-0.0415,-0.0085,
0.059709,0.1261,0.4297,0.9596,0.0000,0.0000,0.0000,-0.0346,-0.0415,-0.0085,
0.061123,0.1261,0.4297,0.9596,0.0680,0.2319,0.5179,-0.0346,-0.0415,-0.0085,
0.062357,0.1261,0.4297,0.9596,0.0680,0.2319,0.5179,-0.0346,-0.0415,-0.0085,
0.079251,0.1261,0.4297,0.9596,0.0680,0.2319,0.5179,-0.0346,-0.0415,-0.0085,
0.099572,0.0669,0.4947,0.8170,0.0680,0.2319,0.5179,-0.0346,-0.0415,-0.0085,
0.101256,0.0669,0.4947,0.8170,-0.3183,0.4188,-0.6887,-0.0346,-0.0415,-0.0085,
0.103174,0.0669,0.4947,0.8170,-0.3183,0.4188,-0.6887,0.9497,0.7531,-0.2418,
0.119330,0.0669,0.4947,0.8170,-0.3183,0.4188,-0.6887,0.8714,0.5625,-0.2807,
0.139249,0.0337,0.5321,0.7649,-0.3183,0.4188,-0.6887,0.8714,0.5625,-0.2807,
0.141445,0.0337,0.5321,0.7649,-0.3922,0.2941,-0.9558,0.8714,0.5625,-0.2807,
0.143152,0.0337,0.5321,0.7649,-0.3922,0.2941,-0.9558,0.7436,0.3936,-0.3132,
0.159480,0.0337,0.5321,0.7649,-0.3922,0.2941,-0.9558,0.6599,0.2791,-0.3105,
0.179487,-0.0154,0.5480,0.7715,-0.3922,0.2941,-0.9558,0.6599,0.2791,-0.3105,
0.181464,-0.0154,0.5480,0.7715,-0.5019,0.1196,-0.7143,0.6599,0.2791,-0.3105,
0.183402,-0.0154,0.5480,0.7715,-0.5019,0.1196,-0.7143,0.6440,0.2296,-0.2732,
0.199491,-0.0154,0.5480,0.7715,-0.5019,0.1196,-0.7143,0.7191,0.4394,-0.1625,
0.218905,0.0100,0.5406,0.8199,-0.5019,0.1196,-0.7143,0.7191,0.4394,-0.1625,
0.220790,0.0100,0.5406,0.8199,-0.1437,-0.0171,-0.2026,0.7191,0.4394,-0.1625,
0.222842,0.0100,0.5406,0.8199,-0.1437,-0.0171,-0.2026,0.9646,0.7558,-0.1838,
0.239221,0.0100,0.5406,0.8199,-0.1437,-0.0171,-0.2026,1.1132,0.8155,-0.2674,
0.260551,-0.0933,0.5746,0.7696,-0.1437,-0.0171,-0.2026,1.1132,0.8155,-0.2674,
0.265093,-0.0933,0.5746,0.7696,-0.6461,0.0780,-0.5367,1.1132,0.8155,-0.2674,
0.266974,-0.0933,0.5746,0.7696,-0.6461,0.0780,-0.5367,1.2053,0.6876,-0.3095,
0.278695,-0.0933,0.5746,0.7696,-0.6461,0.0780,-0.5367,1.2943,0.7265,-0.3254,
0.299111,-0.1559,0.6403,0.7024,-0.6461,0.0780,-0.5367,1.2943,0.7265,-0.3254,
0.301075,-0.1559,0.6403,0.7024,-0.6897,0.2804,-0.8323,1.2943,0.7265,-0.3254,
0.302999,-0.1559,0.6403,0.7024,-0.6897,0.2804,-0.8323,1.3785,0.7856,-0.3595,
0.319266,-0.1559,0.6403,0.7024,-0.6897,0.2804,-0.8323,1.3998,0.9033,-0.3345,
0.339075,-0.2519,0.7078,0.7935,-0.6897,0.2804,-0.8323,1.3998,0.9033,-0.3345,
0.342275,-0.2519,0.7078,0.7935,-1.2798,0.5447,0.4341,1.3998,0.9033,-0.3345,
0.344438,-0.2519,0.7078,0.7935,-1.2798,0.5447,0.4341,1.5425,1.2053,-0.2205,
0.359347,-0.2519,0.7078,0.7935,-1.2798,0.5447,0.4341,1.8504,1.3992,-0.1678,
0.378900,-0.2619,0.7581,0.5873,-1.2798,0.5447,0.4341,1.8504,1.3992,-0.1678,
0.380892,-0.2619,0.7581,0.5873,-0.9438,0.5715,-1.0641,1.8504,1.3992,-0.1678,
0.382692,-0.2619,0.7581,0.5873,-0.9438,0.5715,-1.0641,1.9372,1.3571,-0.1614,
0.399635,-0.2619,0.7581,0.5873,-0.9438,0.5715,-1.0641,1.7817,1.1894,-0.1912,
0.418940,-0.3330,0.8314,0.3679,-0.9438,0.5715,-1.0641,1.7817,1.1894,-0.1912,
0.421218,-0.3330,0.8314,0.3679,-1.2425,0.8105,-2.5795,1.7817,1.1894,-0.1912,
0.422869,-0.3330,0.8314,0.3679,-1.2425,0.8105,-2.5795,1.4360,1.0504,-0.1971,
0.438995,-0.3330,0.8314,0.3679,-1.2425,0.8105,-2.5795,1.0690,0.9231,-0.0772,
0.459182,-0.3518,0.7984,0.4830,-1.2425,0.8105,-2.5795,1.0690,0.9231,-0.0772,
0.461881,-0.3518,0.7984,0.4830,-1.1298,0.1967,-0.9780,1.0690,0.9231,-0.0772,
0.464220,-0.3518,0.7984,0.4830,-1.1298,0.1967,-0.9780,0.8224,0.6711,-0.0064,
0.478547,-0.3518,0.7984,0.4830,-1.1298,0.1967,-0.9780,0.7617,0.2690,-0.1204,
0.499483,-0.3208,0.8226,0.3828,-1.1298,0.1967,-0.9780,0.7617,0.2690,-0.1204,
0.501979,-0.3208,0.8226,0.3828,-0.6824,0.2564,-1.6517,0.7617,0.2690,-0.1204,
0.503969,-0.3208,0.8226,0.3828,-0.6824,0.2564,-1.6517,0.6834,0.1838,-0.1316,
0.518929,-0.3208,0.8226,0.3828,-0.6824,0.2564,-1.6517,0.6732,0.3904,-0.0985,
0.539387,-0.2597,0.7933,0.3652,-0.6824,0.2564,-1.6517,0.6732,0.3904,-0.0985,
0.541522,-0.2597,0.7933,0.3652,0.0201,-0.1685,-1.5692,0.6732,0.3904,-0.0985,
0.543469,-0.2597,0.7933,0.3652,0.0201,-0.1685,-1.5692,0.7595,0.6551,-0.0687,
0.558970,-0.2597,0.7933,0.3652,0.0201,-0.1685,-1.5692,0.5683,0.4868,-0.2045,
0.578763,-0.3787,0.8448,0.3735,0.0201,-0.1685,-1.5692,0.5683,0.4868,-0.2045,
0.580794,-0.3787,0.8448,0.3735,-0.9721,0.2113,-1.1951,0.5683,0.4868,-0.2045,
0.582642,-0.3787,0.8448,0.3735,-0.9721,0.2113,-1.1951,0.4357,0.2264,-0.2716,
0.598978,-0.3787,0.8448,0.3735,-0.9721,0.2113,-1.1951,0.6008,0.2413,-0.1917,
0.618937,-0.3748,0.8326,0.5431,-0.9721,0.2113,-1.1951,0.6008,0.2413,-0.1917,
0.621786,-0.3748,0.8326,0.5431,-0.7940,0.0229,0.6661,0.6008,0.2413,-0.1917,
0.623680,-0.3748,0.8326,0.5431,-0.7940,0.0229,0.6661,1.0349,0.7750,-0.1140,
0.638832,-0.3748,0.8326,0.5431,-0.7940,0.0229,0.6661,1.2261,1.4109,0.0527,
0.659378,-0.3420,0.9589,0.1810,-0.7940,0.0229,0.6661,1.2261,1.4109,0.0527,
0.661396,-0.3420,0.9589,0.1810,-0.2605,1.0538,-2.3490,1.2261,1.4109,0.0527,
0.663389,-0.3420,0.9589,0.1810,-0.2605,1.0538,-2.3490,0.9651,1.1521,-0.0112,
0.678854,-0.3420,0.9589,0.1810,-0.2605,1.0538,-2.3490,0.4186,0.3393,-0.1683,
0.698436,-0.3196,0.8734,0.3276,-0.2605,1.0538,-2.3490,0.4186,0.3393,-0.1683,
0.701952,-0.3196,0.8734,0.3276,0.1101,0.1101,-0.5675,0.4186,0.3393,-0.1683,
0.703873,-0.3196,0.8734,0.3276,0.1101,0.1101,-0.5675,0.2083,0.0703,-0.2461,
0.719048,-0.3196,0.8734,0.3276,0.1101,0.1101,-0.5675,0.4048,0.4336,-0.1662,
0.739124,-0.3046,0.8490,0.4481,0.1101,0.1101,-0.5675,0.4048,0.4336,-0.1662,
0.742559,-0.3046,0.8490,0.4481,0.3577,-0.1483,0.7464,0.4048,0.4336,-0.1662,
0.744168,-0.3046,0.8490,0.4481,0.3577,-0.1483,0.7464,0.9028,0.9912,-0.1001,
0.758966,-0.3046,0.8490,0.4481,0.3577,-0.1483,0.7464,1.2362,1.3481,-0.0272,
0.778905,-0.4026,0.9574,0.3117,0.3577,-0.1483,0.7464,1.2362,1.3481,-0.0272,
0.781428,-0.4026,0.9574,0.3117,-0.4256,0.7793,-0.0688,1.2362,1.3481,-0.0272,
0.783825,-0.4026,0.9574,0.3117,-0.4256,0.7793,-0.0688,1.4248,1.3561,0.1699,
0.798323,-0.4026,0.9574,0.3117,-0.4256,0.7793,-0.0688,1.2075,0.9982,-0.0123,
0.818405,-0.2746,0.8976,0.1818,-0.4256,0.7793,-0.0688,1.2075,0.9982,-0.0123,
0.821073,-0.2746,0.8976,0.1818,0.9165,0.0293,-0.7277,1.2075,0.9982,-0.0123,
0.822846,-0.2746,0.8976,0.1818,0.9165,0.0293,-0.7277,0.9545,0.7409,-0.1625,
0.838641,-0.2746,0.8976,0.1818,0.9165,0.0293,-0.7277,0.8096,0.6839,-0.2610,
0.858755,-0.3437,0.9174,0.1632,0.9165,0.0293,-0.7277,0.8096,0.6839,-0.2610,
0.861350,-0.3437,0.9174,0.1632,0.3611,0.1672,-0.5017,0.8096,0.6839,-0.2610,
0.862883,-0.3437,0.9174,0.1632,0.3611,0.1672,-0.5017,0.7750,0.6967,-0.3228,
0.878604,-0.3437,0.9174,0.1632,0.3611,0.1672,-0.5017,0.6892,0.4735,-0.2935,
0.898800,-0.3156,0.9166,0.1957,0.3611,0.1672,-0.5017,0.6892,0.4735,-0.2935,
0.900752,-0.3156,0.9166,0.1957,0.7662,0.1428,0.1501,0.6892,0.4735,-0.2935,
0.902314,-0.3156,0.9166,0.1957,0.7662,0.1428,0.1501,0.7595,0.3734,-0.3206,
0.918754,-0.3156,0.9166,0.1957,0.7662,0.1428,0.1501,0.9017,0.6226,-0.2258,
0.938363,-0.2634,1.0730,0.1529,0.7662,0.1428,0.1501,0.9017,0.6226,-0.2258,
0.941314,-0.2634,1.0730,0.1529,1.3796,1.6547,0.0938,0.9017,0.6226,-0.2258,
0.943160,-0.2634,1.0730,0.1529,1.3796,1.6547,0.0938,1.1665,1.4631,-0.1342,
0.957840,-0.2634,1.0730,0.1529,1.3796,1.6547,0.0938,1.2064,1.0322,0.4826,
0.978118,-0.2919,0.9645,-0.0183,1.3796,1.6547,0.0938,1.2064,1.0322,0.4826,
0.980083,-0.2919,0.9645,-0.0183,1.0588,0.4979,-0.9699,1.2064,1.0322,0.4826,
0.982087,-0.2919,0.9645,-0.0183,1.0588,0.4979,-0.9699,0.9092,-0.0453,0.7771,
0.999182,-0.2919,0.9645,-0.0183,1.0588,0.4979,-0.9699,0.7595,0.3015,0.6685,
1.018746,-0.3418,0.9802,0.0906,1.0588,0.4979,-0.9699,0.7595,0.3015,0.6685,
1.022330,-0.3418,0.9802,0.0906,0.2944,0.5138,0.4052,0.7595,0.3015,0.6685,
1.023871,-0.3418,0.9802,0.0906,0.2944,0.5138,0.4052,0.7185,-0.0394,0.9907,
1.038569,-0.3418,0.9802,0.0906,0.2944,0.5138,0.4052,0.7776,-0.1246,1.3034,
1.058720,-0.3271,0.8529,0.0643,0.2944,0.5138,0.4052,0.7776,-0.1246,1.3034,
1.060602,-0.3271,0.8529,0.0643,0.0160,-0.9010,0.3903,0.7776,-0.1246,1.3034,
1.062212,-0.3271,0.8529,0.0643,0.0160,-0.9010,0.3903,0.7095,-0.3308,1.2224,
1.078011,-0.3271,0.8529,0.0643,0.0160,-0.9010,0.3903,0.4607,-0.8842,1.0738,
1.097802,-0.3335,0.7070,0.0376,0.0160,-0.9010,0.3903,0.4607,-0.8842,1.0738,
1.099812,-0.3335,0.7070,0.0376,-0.4770,-2.4718,0.2756,0.4607,-0.8842,1.0738,
1.101649,-0.3335,0.7070,0.0376,-0.4770,-2.4718,0.2756,0.1880,-1.2320,0.7803,
1.118771,-0.3335,0.7070,0.0376,-0.4770,-2.4718,0.2756,0.0357,-1.1856,0.4677,
1.138392,-0.5204,0.7556,-0.0303,-0.4770,-2.4718,0.2756,0.0357,-1.1856,0.4677,
1.141098,-0.5204,0.7556,-0.0303,-2.5501,-2.0625,-0.4762,0.0357,-1.1856,0.4677,
1.142952,-0.5204,0.7556,-0.0303,-2.5501,-2.0625,-0.4762,-0.2807,-1.4951,0.2434,
1.158028,-0.5204,0.7556,-0.0303,-2.5501,-2.0625,-0.4762,-0.7723,-2.0096,-0.0905,
1.178346,-0.5057,0.8981,-0.0352,-2.5501,-2.0625,-0.4762,-0.7723,-2.0096,-0.0905,
1.181226,-0.5057,0.8981,-0.0352,-2.4121,-0.6544,-0.8866,-0.7723,-2.0096,-0.0905,
1.183517,-0.5057,0.8981,-0.0352,-2.4121,-0.6544,-0.8866,-1.0195,-1.7188,-0.4256,
1.197667,-0.5057,0.8981,-0.0352,-2.4121,-0.6544,-0.8866,-1.0402,-1.6373,-0.5481,
1.218702,-0.5946,0.8451,-0.1998,-2.4121,-0.6544,-0.8866,-1.0402,-1.6373,-0.5481,
1.221023,-0.5946,0.8451,-0.1998,-3.0876,-1.0755,-3.0115,-1.0402,-1.6373,-0.5481,
1.223023,-0.5946,0.8451,-0.1998,-3.0876,-1.0755,-3.0115,-1.2112,-1.6687,-0.6445,
1.238554,-0.5946,0.8451,-0.1998,-3.0876,-1.0755,-3.0115,-1.4924,-1.5223,-0.9545,
1.258331,-0.6599,0.8343,0.0452,-3.0876,-1.0755,-3.0115,-1.4924,-1.5223,-0.9545,
1.260666,-0.6599,0.8343,0.0452,-3.4541,-1.0019,-1.2472,-1.4924,-1.5223,-0.9545,
1.262715,-0.6599,0.8343,0.0452,-3.4541,-1.0019,-1.2472,-1.2852,-1.6799,-1.2975,
1.278578,-0.6599,0.8343,0.0452,-3.4541,-1.0019,-1.2472,-0.5124,-1.5638,-1.6267,
1.298195,-0.6738,0.8536,0.1268,-3.4541,-1.0019,-1.2472,-0.5124,-1.5638,-1.6267,
1.300599,-0.6738,0.8536,0.1268,-3.1501,-0.5470,-0.9521,-0.5124,-1.5638,-1.6267,
1.303817,-0.6738,0.8536,0.1268,-3.1501,-0.5470,-0.9521,0.3345,-1.4014,-1.8339,
1.317384,-0.6738,0.8536,0.1268,-3.1501,-0.5470,-0.9521,0.7244,-1.3838,-1.9580,
1.337846,-0.6433,0.8541,-0.1287,-3.1501,-0.5470,-0.9521,0.7244,-1.3838,-1.9580,
1.339424,-0.6433,0.8541,-0.1287,-2.2815,-0.3027,-3.4462,0.7244,-1.3838,-1.9580,
1.340888,-0.6433,0.8541,-0.1287,-2.2815,-0.3027,-3.4462,0.5784,-1.1601,-2.0283,
1.358065,-0.6433,0.8541,-0.1287,-2.2815,-0.3027,-3.4462,0.4085,-1.1388,-2.0325,
1.378291,-0.5878,0.7715,-0.0716,-2.2815,-0.3027,-3.4462,0.4085,-1.1388,-2.0325,
1.381273,-0.5878,0.7715,-0.0716,-1.1094,-0.8012,-2.8493,0.4085,-1.1388,-2.0325,
1.383795,-0.5878,0.7715,-0.0716,-1.1094,-0.8012,-2.8493,0.4314,-1.0930,-1.9388,
1.397874,-0.5878,0.7715,-0.0716,-1.1094,-0.8012,-2.8493,0.5800,-1.1185,-1.8163,
1.418619,-0.4490,0.7349,-0.0555,-1.1094,-0.8012,-2.8493,0.5800,-1.1185,-1.8163,
1.421287,-0.4490,0.7349,-0.0555,0.7803,-0.8417,-2.6958,0.5800,-1.1185,-1.8163,
1.423177,-0.4490,0.7349,-0.0555,0.7803,-0.8417,-2.6958,0.7366,-1.3864,-1.4354,
1.438167,-0.4490,0.7349,-0.0555,0.7803,-0.8417,-2.6958,1.2943,-1.7710,-0.8623,
1.457246,-0.2152,0.7947,-0.1063,0.7803,-0.8417,-2.6958,1.2943,-1.7710,-0.8623,
1.460212,-0.2152,0.7947,-0.1063,3.2998,-0.0995,-3.2081,1.2943,-1.7710,-0.8623,
1.461897,-0.2152,0.7947,-0.1063,3.2998,-0.0995,-3.2081,2.2834,-1.7215,-0.4421,
1.477991,-0.2152,0.7947,-0.1063,3.2998,-0.0995,-3.2081,2.8890,-1.0109,-0.5092,
1.497339,-0.7244,0.6955,-0.0628,3.2998,-0.0995,-3.2081,2.8890,-1.0109,-0.5092,
1.499554,-0.7244,0.6955,-0.0628,-1.6428,-1.1700,-2.2344,2.8890,-1.0109,-0.5092,
1.501520,-0.7244,0.6955,-0.0628,-1.6428,-1.1700,-2.2344,2.9492,-0.7137,-0.7681,
1.517467,-0.7244,0.6955,-0.0628,-1.6428,-1.1700,-2.2344,2.5497,-1.0935,-0.8059,
1.538164,-0.6845,0.9054,0.0555,-1.6428,-1.1700,-2.2344,2.5497,-1.0935,-0.8059,
1.541089,-0.6845,0.9054,0.0555,-1.0389,0.9228,-0.3624,2.5497,-1.0935,-0.8059,
1.542737,-0.6845,0.9054,0.0555,-1.0389,0.9228,-0.3624,1.8525,-1.6613,-0.7164,
1.557281,-0.6845,0.9054,0.0555,-1.0389,0.9228,-0.3624,1.7034,-1.3646,-0.7910,
1.577082,-0.7024,0.7654,0.0599,-1.0389,0.9228,-0.3624,1.7034,-1.3646,-0.7910,
1.579350,-0.7024,0.7654,0.0599,-1.0142,-0.3262,-0.0897,1.7034,-1.3646,-0.7910,
1.581311,-0.7024,0.7654,0.0599,-1.0142,-0.3262,-0.0897,1.5915,-0.8756,-0.2690,
1.598134,-0.7024,0.7654,0.0599,-1.0142,-0.3262,-0.0897,1.2272,-0.9028,0.2578,
1.618206,-0.5746,0.7429,-0.1173,-1.0142,-0.3262,-0.0897,1.2272,-0.9028,0.2578,
1.621382,-0.5746,0.7429,-0.1173,0.2299,-0.5707,-1.5641,1.2272,-0.9028,0.2578,
1.623759,-0.5746,0.7429,-0.1173,0.2299,-0.5707,-1.5641,0.9827,-1.2639,0.7649,
1.637540,-0.5746,0.7429,-0.1173,0.2299,-0.5707,-1.5641,1.1010,-1.4956,1.1430,
1.657673,-0.4080,0.9362,-0.0836,0.2299,-0.5707,-1.5641,1.1010,-1.4956,1.1430,
1.660123,-0.4080,0.9362,-0.0836,1.5248,1.0792,-1.1800,1.1010,-1.4956,1.1430,
1.662204,-0.4080,0.9362,-0.0836,1.5248,1.0792,-1.1800,1.5990,-1.2655,1.1398,
1.676942,-0.4080,0.9362,-0.0836,1.5248,1.0792,-1.1800,1.9947,-0.5310,1.3731,
1.697851,-0.4884,0.8822,-0.4185,1.5248,1.0792,-1.1800,1.9947,-0.5310,1.3731,
1.699989,-0.4884,0.8822,-0.4185,0.3118,0.2685,-3.9999,1.9947,-0.5310,1.3731,
1.701709,-0.4884,0.8822,-0.4185,0.3118,0.2685,-3.9999,1.7124,-0.2924,1.7710,
1.717157,-0.4884,0.8822,-0.4185,0.3118,0.2685,-3.9999,0.9300,-0.6104,2.1753,
1.737255,-0.6889,0.9880,-0.0186,0.3118,0.2685,-3.9999,0.9300,-0.6104,2.1753,
1.739759,-0.6889,0.9880,-0.0186,-2.3199,0.9465,0.2860,0.9300,-0.6104,2.1753,
1.741452,-0.6889,0.9880,-0.0186,-2.3199,0.9465,0.2860,0.5987,-0.9428,2.0655,
1.757236,-0.6889,0.9880,-0.0186,-2.3199,0.9465,0.2860,0.7872,-0.8927,2.0655,
1.777028,-0.9005,0.8370,0.0960,-2.3199,0.9465,0.2860,0.7872,-0.8927,2.0655,
1.779493,-0.9005,0.8370,0.0960,-5.1093,-0.8553,1.5059,0.7872,-0.8927,2.0655,
1.781894,-0.9005,0.8370,0.0960,-5.1093,-0.8553,1.5059,1.1665,-1.0807,2.6024,
1.798778,-0.9005,0.8370,0.0960,-5.1093,-0.8553,1.5059,1.6655,-1.0978,3.4467,
1.817539,-0.0034,0.4131,-0.0066,-5.1093,-0.8553,1.5059,1.6655,-1.0978,3.4467,
1.820140,-0.0034,0.4131,-0.0066,2.5979,-5.3507,0.8833,1.6655,-1.0978,3.4467,
1.822453,-0.0034,0.4131,-0.0066,2.5979,-5.3507,0.8833,2.0799,-0.6956,3.0775,
1.837376,-0.0034,0.4131,-0.0066,2.5979,-5.3507,0.8833,2.2850,-0.3867,2.4421,
1.857281,0.4161,0.9430,-0.3938,2.5979,-5.3507,0.8833,2.2850,-0.3867,2.4421,
1.860101,0.4161,0.9430,-0.3938,5.6916,-0.2758,-2.1320,2.2850,-0.3867,2.4421,
1.861711,0.4161,0.9430,-0.3938,5.6916,-0.2758,-2.1320,2.3340,0.3989,1.9143,
1.878206,0.4161,0.9430,-0.3938,5.6916,-0.2758,-2.1320,1.2650,0.3164,0.9614,
1.896764,0.5512,1.7326,-0.9069,5.6916,-0.2758,-2.1320,1.2650,0.3164,0.9614,
1.899309,0.5512,1.7326,-0.9069,6.4404,7.5354,-6.4592,1.2650,0.3164,0.9614,
1.901107,0.5512,1.7326,-0.9069,6.4404,7.5354,-6.4592,-0.2328,-0.2876,-0.4314,
1.917391,0.5512,1.7326,-0.9069,6.4404,7.5354,-6.4592,-0.8144,-0.0852,-1.3380,
1.937193,-0.0020,0.7652,-0.1923,6.4404,7.5354,-6.4592,-0.8144,-0.0852,-1.3380,
1.940811,-0.0020,0.7652,-0.1923,1.3546,-1.9517,0.3461,-0.8144,-0.0852,-1.3380,
1.942434,-0.0020,0.7652,-0.1923,1.3546,-1.9517,0.3461,-0.8005,0.1459,-1.8408,
1.957142,-0.0020,0.7652,-0.1923,1.3546,-1.9517,0.3461,-0.5720,0.2850,-1.9713,
1.977765,-0.6025,0.8214,-0.2040,1.3546,-1.9517,0.3461,-0.5720,0.2850,-1.9713,
1.981309,-0.6025,0.8214,-0.2040,-3.8371,-1.3213,0.0231,-0.5720,0.2850,-1.9713,
1.983943,-0.6025,0.8214,-0.2040,-3.8371,-1.3213,0.0231,-0.5055,0.3079,-1.6943,
1.997686,-0.6025,0.8214,-0.2040,-3.8371,-1.3213,0.0231,-0.7840,0.4005,-0.6376,
2.016934,-0.6091,0.8641,-0.1940,-3.8371,-1.3213,0.0231,-0.7840,0.4005,-0.6376,
2.020152,-0.6091,0.8641,-0.1940,-3.4502,-0.8292,-0.0613,-0.7840,0.4005,-0.6376,
2.021952,-0.6091,0.8641,-0.1940,-3.4502,-0.8292,-0.0613,-1.0935,0.2040,0.2594,
2.036870,-0.6091,0.8641,-0.1940,-3.4502,-0.8292,-0.0613,-1.0669,-0.1017,0.3739,
2.057221,-0.3132,0.8856,-0.1368,-3.4502,-0.8292,-0.0613,-1.0669,-0.1017,0.3739,
2.059495,-0.3132,0.8856,-0.1368,-0.6382,-0.7086,0.1198,-1.0669,-0.1017,0.3739,
2.061321,-0.3132,0.8856,-0.1368,-0.6382,-0.7086,0.1198,-0.8069,-0.0378,0.3585,
2.077738,-0.3132,0.8856,-0.1368,-0.6382,-0.7086,0.1198,-0.6173,-0.0016,0.3750,
2.096749,-0.2526,0.9401,-0.1488,-0.6382,-0.7086,0.1198,-0.6173,-0.0016,0.3750,
2.099621,-0.2526,0.9401,-0.1488,-0.1565,-0.2385,-0.2479,-0.6173,-0.0016,0.3750,
2.101377,-0.2526,0.9401,-0.1488,-0.1565,-0.2385,-0.2479,-0.6003,-0.1992,0.3952,
2.117019,-0.2526,0.9401,-0.1488,-0.1565,-0.2385,-0.2479,-0.7036,-0.4511,0.3526,
2.137170,-0.1842,0.9868,-0.1427,-0.1565,-0.2385,-0.2479,-0.7036,-0.4511,0.3526,
2.139464,-0.1842,0.9868,-0.1427,0.3978,0.1624,-0.4390,-0.7036,-0.4511,0.3526,
2.141178,-0.1842,0.9868,-0.1427,0.3978,0.1624,-0.4390,-0.8703,-0.7164,0.3308,
2.157089,-0.1842,0.9868,-0.1427,0.3978,0.1624,-0.4390,-0.9619,-0.9294,0.3531,
2.176964,-0.2318,1.0789,-0.0779,0.3978,0.1624,-0.4390,-0.9619,-0.9294,0.3531,
2.178980,-0.2318,1.0789,-0.0779,-0.1698,1.0103,-0.2082,-0.9619,-0.9294,0.3531,
2.180790,-0.2318,1.0789,-0.0779,-0.1698,1.0103,-0.2082,-0.9816,-1.0386,0.3989,
2.197441,-0.2318,1.0789,-0.0779,-0.1698,1.0103,-0.2082,-0.9689,-1.0535,0.4133,
2.216718,-0.2086,1.0547,-0.0159,-0.1698,1.0103,-0.2082,-0.9689,-1.0535,0.4133,
2.219258,-0.2086,1.0547,-0.0159,-0.0810,0.7284,-0.0464,-0.9689,-1.0535,0.4133,
2.221049,-0.2086,1.0547,-0.0159,-0.0810,0.7284,-0.0464,-0.9076,-1.0109,0.3462,
2.236952,-0.2086,1.0547,-0.0159,-0.0810,0.7284,-0.0464,-0.8405,-0.7867,0.2700,
2.256709,-0.3100,0.9850,-0.1026,-0.0810,0.7284,-0.0464,-0.8405,-0.7867,0.2700,
2.258396,-0.3100,0.9850,-0.1026,-0.5640,0.2010,-0.1687,-0.8405,-0.7867,0.2700,
2.260176,-0.3100,0.9850,-0.1026,-0.5640,0.2010,-0.1687,-0.8474,-0.3206,0.2136,
2.276248,-0.3100,0.9850,-0.1026,-0.5640,0.2010,-0.1687,-0.9033,0.1539,0.1742,
2.296546,-0.3682,0.8429,-0.2404,-0.5640,0.2010,-0.1687,-0.9033,0.1539,0.1742,
2.298753,-0.3682,0.8429,-0.2404,-1.1789,-1.2258,-1.8187,-0.9033,0.1539,0.1742,
2.300702,-0.3682,0.8429,-0.2404,-1.1789,-1.2258,-1.8187,-1.0120,0.5241,0.1119,
2.316758,-0.3682,0.8429,-0.2404,-1.1789,-1.2258,-1.8187,-1.1776,0.7159,0.1252,
2.336299,-0.3403,0.8272,-0.2221,-1.1789,-1.2258,-1.8187,-1.1776,0.7159,0.1252,
2.339495,-0.3403,0.8272,-0.2221,-0.9354,-1.3991,-1.9519,-1.1776,0.7159,0.1252,
2.342127,-0.3403,0.8272,-0.2221,-0.9354,-1.3991,-1.9519,-1.2826,0.7324,0.1257,
2.357306,-0.3403,0.8272,-0.2221,-0.9354,-1.3991,-1.9519,-1.1776,0.5129,0.0330,
2.376949,-0.2397,0.9037,0.0024,-0.9354,-1.3991,-1.9519,-1.1776,0.5129,0.0330,
2.379131,-0.2397,0.9037,0.0024,0.0314,-0.6559,-0.1369,-1.1776,0.5129,0.0330,
2.380892,-0.2397,0.9037,0.0024,0.0314,-0.6559,-0.1369,-0.9800,-0.0048,-0.0671,
2.396437,-0.2397,0.9037,0.0024,0.0314,-0.6559,-0.1369,-0.7904,-0.6525,-0.1188,
2.416381,-0.2394,1.1546,0.1009,0.0314,-0.6559,-0.1369,-0.7904,-0.6525,-0.1188,
2.419212,-0.2394,1.1546,0.1009,0.0658,1.8235,0.4763,-0.7904,-0.6525,-0.1188,
2.420814,-0.2394,1.1546,0.1009,0.0658,1.8235,0.4763,-0.6812,-1.2703,-0.0964,
2.436860,-0.2394,1.1546,0.1009,0.0658,1.8235,0.4763,-0.7558,-1.5766,0.0048,
2.456510,-0.0435,1.0706,0.1522,0.0658,1.8235,0.4763,-0.7558,-1.5766,0.0048,
2.458788,-0.0435,1.0706,0.1522,1.9463,1.0200,0.5781,-0.7558,-1.5766,0.0048,
2.460164,-0.0435,1.0706,0.1522,1.9463,1.0200,0.5781,-1.0211,-1.5324,0.0826,
2.476218,-0.0435,1.0706,0.1522,1.9463,1.0200,0.5781,-1.3476,-1.1686,0.0421,
2.495777,0.0225,0.9833,0.3210,1.9463,1.0200,0.5781,-1.3476,-1.1686,0.0421,
2.497614,0.0225,0.9833,0.3210,2.4659,0.2077,1.6556,-1.3476,-1.1686,0.0421,
2.498772,0.0225,0.9833,0.3210,2.4659,0.2077,1.6556,-1.3939,-0.9316,-0.0495,
2.517119,0.0225,0.9833,0.3210,2.4659,0.2077,1.6556,-1.1526,-0.7776,-0.1438,
2.535732,-0.1739,0.9831,0.3154,2.4659,0.2077,1.6556,-1.1526,-0.7776,-0.1438,
2.537150,-0.1739,0.9831,0.3154,0.4895,0.2982,1.0430,-1.1526,-0.7776,-0.1438,
2.538264,-0.1739,0.9831,0.3154,0.4895,0.2982,1.0430,-0.8725,-0.2802,-0.1326,
2.556559,-0.1739,0.9831,0.3154,0.4895,0.2982,1.0430,-0.6514,0.2392,-0.1284,
2.577257,-0.3020,0.9440,0.2861,0.4895,0.2982,1.0430,-0.6514,0.2392,-0.1284,
2.580178,-0.3020,0.9440,0.2861,-0.7271,-0.0080,0.4679,-0.6514,0.2392,-0.1284,
2.582352,-0.3020,0.9440,0.2861,-0.7271,-0.0080,0.4679,-0.5252,0.4698,-0.1475,
2.598882,-0.3020,0.9440,0.2861,-0.7271,-0.0080,0.4679,-0.5731,0.6072,-0.1422,
2.616217,-0.3735,0.8485,0.2162,-0.7271,-0.0080,0.4679,-0.5731,0.6072,-0.1422,
2.618593,-0.3735,0.8485,0.2162,-1.3093,-0.8756,-0.3656,-0.5731,0.6072,-0.1422,
2.620735,-0.3735,0.8485,0.2162,-1.3093,-0.8756,-0.3656,-0.7771,0.7936,-0.1065,
2.636309,-0.3735,0.8485,0.2162,-1.3093,-0.8756,-0.3656,-1.0940,0.9912,-0.0799,
2.655809,-0.4344,0.8470,0.3100,-1.3093,-0.8756,-0.3656,-1.0940,0.9912,-0.0799,
2.658302,-0.4344,0.8470,0.3100,-1.7450,-0.7750,0.3009,-1.0940,0.9912,-0.0799,
2.660001,-0.4344,0.8470,0.3100,-1.7450,-0.7750,0.3009,-1.3918,1.0227,-0.0921,
2.677003,-0.4344,0.8470,0.3100,-1.7450,-0.7750,0.3009,-1.4797,0.7766,-0.0762,
2.696043,-0.5372,0.8157,0.5568,-1.7450,-0.7750,0.3009,-1.4797,0.7766,-0.0762,
2.698713,-0.5372,0.8157,0.5568,-2.5799,-0.8869,2.2803,-1.4797,0.7766,-0.0762,
2.700988,-0.5372,0.8157,0.5568,-2.5799,-0.8869,2.2803,-1.2693,0.5103,-0.0202,
2.716518,-0.5372,0.8157,0.5568,-2.5799,-0.8869,2.2803,-0.7755,0.3372,0.0016,
2.736457,-0.4759,0.7620,0.6303,-2.5799,-0.8869,2.2803,-0.7755,0.3372,0.0016,
2.739980,-0.4759,0.7620,0.6303,-1.8916,-1.2588,2.6648,-0.7755,0.3372,0.0016,
2.742061,-0.4759,0.7620,0.6303,-1.8916,-1.2588,2.6648,-0.1768,0.0842,-0.0756,
2.755901,-0.4759,0.7620,0.6303,-1.8916,-1.2588,2.6648,0.2477,-0.1843,-0.1103,
2.776339,-0.5607,0.7930,0.4759,-1.8916,-1.2588,2.6648,0.2477,-0.1843,-0.1103,
2.778628,-0.5607,0.7930,0.4759,-2.6703,-0.9344,1.1428,0.2477,-0.1843,-0.1103,
2.780513,-0.5607,0.7930,0.4759,-2.6703,-0.9344,1.1428,0.3798,-0.3020,-0.0618,
2.795566,-0.5607,0.7930,0.4759,-2.6703,-0.9344,1.1428,0.3254,-0.2860,0.0107,
2.816110,-0.6103,0.9193,0.4314,-2.6703,-0.9344,1.1428,0.3254,-0.2860,0.0107,
2.819270,-0.6103,0.9193,0.4314,-3.1882,0.2573,0.7970,0.3254,-0.2860,0.0107,
2.821321,-0.6103,0.9193,0.4314,-3.1882,0.2573,0.7970,0.2061,-0.2509,0.1007,
2.835668,-0.6103,0.9193,0.4314,-3.1882,0.2573,0.7970,0.1358,-0.2668,0.1395,
2.855807,-0.5106,0.9858,0.4969,-3.1882,0.2573,0.7970,0.1358,-0.2668,0.1395,
2.858647,-0.5106,0.9858,0.4969,-2.2887,0.8720,1.4700,0.1358,-0.2668,0.1395,
2.860645,-0.5106,0.9858,0.4969,-2.2887,0.8720,1.4700,0.2237,-0.4506,0.1369,
2.876325,-0.5106,0.9858,0.4969,-2.2887,0.8720,1.4700,0.4282,-0.6962,0.2136,
2.896515,-0.3650,1.0065,0.3806,-2.2887,0.8720,1.4700,0.4282,-0.6962,0.2136,
2.898753,-0.3650,1.0065,0.3806,-1.0008,1.0131,0.3846,0.4282,-0.6962,0.2136,
2.900604,-0.3650,1.0065,0.3806,-1.0008,1.0131,0.3846,0.5965,-0.5481,0.2690,
2.915933,-0.3650,1.0065,0.3806,-1.0008,1.0131,0.3846,0.6993,-0.1981,0.3143,
2.935948,-0.2678,0.9257,0.2204,-1.0008,1.0131,0.3846,0.6993,-0.1981,0.3143,
2.939641,-0.2678,0.9257,0.2204,-0.1877,0.1109,-0.9930,0.6993,-0.1981,0.3143,
2.941439,-0.2678,0.9257,0.2204,-0.1877,0.1109,-0.9930,0.7910,0.0788,0.3798,
2.955587,-0.2678,0.9257,0.2204,-0.1877,0.1109,-0.9930,0.7792,0.3318,0.3590,
2.975598,-0.3411,0.9418,0.1874,-0.1877,0.1109,-0.9930,0.7792,0.3318,0.3590,
2.977870,-0.3411,0.9418,0.1874,-0.9909,0.1441,-1.0088,0.7792,0.3318,0.3590,
2.979571,-0.3411,0.9418,0.1874,-0.9909,0.1441,-1.0088,0.6679,0.3244,0.3393,
2.995577,-0.3411,0.9418,0.1874,-0.9909,0.1441,-1.0088,0.5603,0.1065,0.3553,
3.015793,-0.2619,0.9359,0.2646,-0.9909,0.1441,-1.0088,0.5603,0.1065,0.3553,
3.017832,-0.2619,0.9359,0.2646,-0.2951,-0.0064,-0.0081,0.5603,0.1065,0.3553,
3.019643,-0.2619,0.9359,0.2646,-0.2951,-0.0064,-0.0081,0.4389,0.0437,0.2983,
3.035701,-0.2619,0.9359,0.2646,-0.2951,-0.0064,-0.0081,0.2147,0.1923,0.2040,
3.055521,-0.1622,0.9254,0.4151,-0.2951,-0.0064,-0.0081,0.2147,0.1923,0.2040,
3.058011,-0.1622,0.9254,0.4151,0.6084,-0.1569,1.5743,0.2147,0.1923,0.2040,
3.059576,-0.1622,0.9254,0.4151,0.6084,-0.1569,1.5743,0.0149,0.0836,0.2040,
3.075975,-0.1622,0.9254,0.4151,0.6084,-0.1569,1.5743,0.0415,-0.1811,0.2839,
3.095178,0.0613,0.7009,0.4161,0.6084,-0.1569,1.5743,0.0415,-0.1811,0.2839,
3.097351,0.0613,0.7009,0.4161,2.6983,-2.3794,1.5794,0.0415,-0.1811,0.2839,
3.099206,0.0613,0.7009,0.4161,2.6983,-2.3794,1.5794,0.1854,-0.0756,0.3079,
3.115105,0.0613,0.7009,0.4161,2.6983,-2.3794,1.5794,0.3292,0.1166,0.2887,
3.135360,0.0247,0.6885,0.3902,2.6983,-2.3794,1.5794,0.3292,0.1166,0.2887,
3.138099,0.0247,0.6885,0.3902,2.2306,-2.5510,1.4225,0.3292,0.1166,0.2887,
3.140089,0.0247,0.6885,0.3902,2.2306,-2.5510,1.4225,0.5630,0.2482,0.1262,
3.154656,0.0247,0.6885,0.3902,2.2306,-2.5510,1.4225,0.6514,0.3771,-0.0288,
3.175545,-0.3291,1.0107,0.3645,2.2306,-2.5510,1.4225,0.6514,0.3771,-0.0288,
3.176683,-0.3291,1.0107,0.3645,-1.2314,0.5568,1.3788,0.6514,0.3771,-0.0288,
3.177479,-0.3291,1.0107,0.3645,-1.2314,0.5568,1.3788,0.7638,0.0847,-0.0671,
3.194721,-0.3291,1.0107,0.3645,-1.2314,0.5568,1.3788,0.7984,-0.4778,-0.0842,
3.215177,-0.3044,1.2267,0.3459,-1.2314,0.5568,1.3788,0.7984,-0.4778,-0.0842,
3.217291,-0.3044,1.2267,0.3459,-0.9766,2.6154,1.4736,0.7984,-0.4778,-0.0842,
3.218699,-0.3044,1.2267,0.3459,-0.9766,2.6154,1.4736,0.6541,-0.9321,0.0144,
3.235527,-0.3044,1.2267,0.3459,-0.9766,2.6154,1.4736,0.5444,-1.1739,0.2349,
3.255239,-0.0366,0.9919,0.2660,-0.9766,2.6154,1.4736,0.5444,-1.1739,0.2349,
3.257723,-0.0366,0.9919,0.2660,1.5171,0.2623,0.8201,0.5444,-1.1739,0.2349,
3.259387,-0.0366,0.9919,0.2660,1.5171,0.2623,0.8201,0.5374,-0.8815,0.3819,
3.275621,-0.0366,0.9919,0.2660,1.5171,0.2623,0.8201,0.5406,-0.4890,0.4543,
3.294795,-0.0464,1.1021,0.2453,1.5171,0.2623,0.8201,0.5406,-0.4890,0.4543,
3.296599,-0.0464,1.1021,0.2453,1.2136,1.2758,0.7693,0.5406,-0.4890,0.4543,
3.298238,-0.0464,1.1021,0.2453,1.2136,1.2758,0.7693,0.4783,-0.4202,0.4895,
3.315140,-0.0464,1.1021,0.2453,1.2136,1.2758,0.7693,0.3180,-0.5422,0.6434,
3.335227,-0.2204,1.3581,0.1994,1.2136,1.2758,0.7693,0.3180,-0.5422,0.6434,
3.338678,-0.2204,1.3581,0.1994,-0.7373,3.7250,0.4414,0.3180,-0.5422,0.6434,
3.340474,-0.2204,1.3581,0.1994,-0.7373,3.7250,0.4414,0.2141,-0.6109,0.6615,
3.355116,-0.2204,1.3581,0.1994,-0.7373,3.7250,0.4414,-0.0527,-1.1388,0.3063,
3.375196,-0.3200,1.0989,0.1976,-0.7373,3.7250,0.4414,-0.0527,-1.1388,0.3063,
3.377557,-0.3200,1.0989,0.1976,-1.9524,1.1545,0.4112,-0.0527,-1.1388,0.3063,
3.379374,-0.3200,1.0989,0.1976,-1.9524,1.1545,0.4112,-0.4016,-1.8930,0.4682,
3.395337,-0.3200,1.0989,0.1976,-1.9524,1.1545,0.4112,-0.6312,-1.8589,0.9417,
3.414663,-0.0149,0.7339,0.2096,-1.9524,1.1545,0.4112,-0.6312,-1.8589,0.9417,
3.417283,-0.0149,0.7339,0.2096,0.6641,-2.4112,0.2406,-0.6312,-1.8589,0.9417,
3.419027,-0.0149,0.7339,0.2096,0.6641,-2.4112,0.2406,-0.8389,-1.4935,1.1542,
3.435296,-0.0149,0.7339,0.2096,0.6641,-2.4112,0.2406,-0.9012,-0.9364,1.0440,
3.454757,0.3090,0.7388,0.2177,0.6641,-2.4112,0.2406,-0.9012,-0.9364,1.0440,
3.457808,0.3090,0.7388,0.2177,3.3226,-2.3180,-0.0409,-0.9012,-0.9364,1.0440,
3.459702,0.3090,0.7388,0.2177,3.3226,-2.3180,-0.0409,-0.8005,-0.5364,0.7249,
3.474353,0.3090,0.7388,0.2177,3.3226,-2.3180,-0.0409,-0.6498,-0.3446,0.3617,
3.495453,0.3132,0.8145,0.1085,3.3226,-2.3180,-0.0409,-0.6498,-0.3446,0.3617,
3.497582,0.3132,0.8145,0.1085,3.1158,-1.5125,-1.3900,-0.6498,-0.3446,0.3617,
3.499488,0.3132,0.8145,0.1085,3.1158,-1.5125,-1.3900,-0.5768,-0.3228,0.0192,
3.515025,0.3132,0.8145,0.1085,3.1158,-1.5125,-1.3900,-0.6157,-0.0810,-0.2301,
3.534580,0.0391,0.8184,0.1236,3.1158,-1.5125,-1.3900,-0.6157,-0.0810,-0.2301,
3.537612,0.0391,0.8184,0.1236,0.4489,-1.4129,-1.4673,-0.6157,-0.0810,-0.2301,
3.539561,0.0391,0.8184,0.1236,0.4489,-1.4129,-1.4673,-0.7489,0.1236,-0.4261,
3.554720,0.0391,0.8184,0.1236,0.4489,-1.4129,-1.4673,-0.7675,0.3382,-0.4858,
3.574835,-0.0679,0.6794,0.3127,0.4489,-1.4129,-1.4673,-0.7675,0.3382,-0.4858,
3.578813,-0.0679,0.6794,0.3127,-0.4024,-2.6868,0.1030,-0.7675,0.3382,-0.4858,
3.580914,-0.0679,0.6794,0.3127,-0.4024,-2.6868,0.1030,-0.4996,0.1481,-0.3691,
3.596289,-0.0679,0.6794,0.3127,-0.4024,-2.6868,0.1030,-0.1678,-0.0362,-0.1912,
3.614862,-0.0127,0.8282,0.2653,-0.4024,-2.6868,0.1030,-0.1678,-0.0362,-0.1912,
3.616950,-0.0127,0.8282,0.2653,0.2496,-1.1849,-0.4850,-0.1678,-0.0362,-0.1912,
3.618993,-0.0127,0.8282,0.2653,0.2496,-1.1849,-0.4850,-0.0341,-0.0607,-0.0346,
3.634539,-0.0127,0.8282,0.2653,0.2496,-1.1849,-0.4850,-0.1688,-0.0352,-0.0639,
3.654422,0.0901,0.8016,0.3073,0.2496,-1.1849,-0.4850,-0.1688,-0.0352,-0.0639,
3.656794,0.0901,0.8016,0.3073,1.2699,-1.4325,-0.1116,-0.1688,-0.0352,-0.0639,
3.658675,0.0901,0.8016,0.3073,1.2699,-1.4325,-0.1116,-0.2578,-0.0969,-0.1784,
3.674281,0.0901,0.8016,0.3073,1.2699,-1.4325,-0.1116,-0.2232,-0.0096,-0.2445,
3.694242,0.0384,1.0324,0.3560,1.2699,-1.4325,-0.1116,-0.2232,-0.0096,-0.2445,
3.696446,0.0384,1.0324,0.3560,-0.0559,0.8451,0.3262,-0.2232,-0.0096,-0.2445,
3.698045,0.0384,1.0324,0.3560,-0.0559,0.8451,0.3262,-0.2360,0.0133,-0.2668,
3.714634,0.0384,1.0324,0.3560,-0.0559,0.8451,0.3262,-0.2509,-0.0991,-0.1571,
3.734170,0.0508,0.9225,0.4278,-0.0559,0.8451,0.3262,-0.2509,-0.0991,-0.1571,
3.736935,0.0508,0.9225,0.4278,0.0320,-0.0717,0.5978,-0.2509,-0.0991,-0.1571,
3.738548,0.0508,0.9225,0.4278,0.0320,-0.0717,0.5978,-0.4346,-0.2029,-0.1523,
3.753937,0.0508,0.9225,0.4278,0.0320,-0.0717,0.5978,-0.3696,-0.2999,-0.2328,
3.774098,0.0105,0.9523,0.3858,0.0320,-0.0717,0.5978,-0.3696,-0.2999,-0.2328,
3.777880,0.0105,0.9523,0.3858,-0.3276,0.2748,0.0467,-0.3696,-0.2999,-0.2328,
3.779686,0.0105,0.9523,0.3858,-0.3276,0.2748,0.0467,-0.2935,-0.3180,-0.1688,
3.795030,0.0105,0.9523,0.3858,-0.3276,0.2748,0.0467,-0.5497,-0.3952,0.0660,
3.814245,0.0892,1.0158,0.4608,-0.3276,0.2748,0.0467,-0.5497,-0.3952,0.0660,
3.816910,0.0892,1.0158,0.4608,0.4076,0.9604,0.6362,-0.5497,-0.3952,0.0660,
3.818416,0.0892,1.0158,0.4608,0.4076,0.9604,0.6362,-0.8884,-0.3238,0.1417,
3.834900,0.0892,1.0158,0.4608,0.4076,0.9604,0.6362,-0.7462,-0.0272,0.0687,
3.853915,0.0437,0.7395,0.3840,0.4076,0.9604,0.6362,-0.7462,-0.0272,0.0687,
3.856508,0.0437,0.7395,0.3840,-0.1031,-1.6142,-0.4031,-0.7462,-0.0272,0.0687,
3.859002,0.0437,0.7395,0.3840,-0.1031,-1.6142,-0.4031,-0.3531,-0.0293,0.0485,
3.874050,0.0437,0.7395,0.3840,-0.1031,-1.6142,-0.4031,-0.3308,-0.0192,0.0985,
3.893971,0.1434,0.7974,0.3591,-0.1031,-1.6142,-0.4031,-0.3308,-0.0192,0.0985,
3.897667,0.1434,0.7974,0.3591,0.8399,-0.9883,-0.7651,-0.3308,-0.0192,0.0985,
3.899695,0.1434,0.7974,0.3591,0.8399,-0.9883,-0.7651,-0.2658,-0.3313,0.0735,
3.914600,0.1434,0.7974,0.3591,0.8399,-0.9883,-0.7651,-0.4149,-0.7457,-0.1278,
3.933959,0.0066,0.9826,0.4715,0.8399,-0.9883,-0.7651,-0.4149,-0.7457,-0.1278,
3.938425,0.0066,0.9826,0.4715,-0.5811,0.8803,0.2384,-0.4149,-0.7457,-0.1278,
3.939964,0.0066,0.9826,0.4715,-0.5811,0.8803,0.2384,-0.5454,-0.8980,-0.1481,
3.953977,0.0066,0.9826,0.4715,-0.5811,0.8803,0.2384,-0.3680,-0.7393,-0.1284,
3.974209,0.0159,0.9665,0.4769,-0.5811,0.8803,0.2384,-0.3680,-0.7393,-0.1284,
3.976666,0.0159,0.9665,0.4769,-0.5770,0.7947,0.1627,-0.3680,-0.7393,-0.1284,
3.978294,0.0159,0.9665,0.4769,-0.5770,0.7947,0.1627,-0.0266,-0.5188,-0.2189,
3.994378,0.0159,0.9665,0.4769,-0.5770,0.7947,0.1627,0.1710,-0.4868,-0.3260,
4.013886,-0.0076,0.9411,0.4275,-0.5770,0.7947,0.1627,0.1710,-0.4868,-0.3260,
4.016477,-0.0076,0.9411,0.4275,-0.7874,0.5192,-0.2727,0.1710,-0.4868,-0.3260,
4.018392,-0.0076,0.9411,0.4275,-0.7874,0.5192,-0.2727,0.1965,-0.5028,-0.3899,
4.033881,-0.0076,0.9411,0.4275,-0.7874,0.5192,-0.2727,0.1715,-0.4474,-0.3830,
4.053994,-0.0401,0.9631,0.4344,-0.7874,0.5192,-0.2727,0.1715,-0.4474,-0.3830,
4.056959,-0.0401,0.9631,0.4344,-1.0382,0.6871,-0.1221,0.1715,-0.4474,-0.3830,
4.058585,-0.0401,0.9631,0.4344,-1.0382,0.6871,-0.1221,0.0921,-0.3606,-0.3356,
4.074375,-0.0401,0.9631,0.4344,-1.0382,0.6871,-0.1221,0.0186,-0.2248,-0.2754,
4.093911,-0.0325,0.9980,0.4637,-1.0382,0.6871,-0.1221,0.0186,-0.2248,-0.2754,
4.096809,-0.0325,0.9980,0.4637,-0.8980,1.0101,0.1948,0.0186,-0.2248,-0.2754,
4.098696,-0.0325,0.9980,0.4637,-0.8980,1.0101,0.1948,0.0362,-0.0623,-0.2477,
4.114959,-0.0325,0.9980,0.4637,-0.8980,1.0101,0.1948,0.1156,0.0059,-0.2695,
4.134143,0.0501,0.8922,0.3816,-0.8980,1.0101,0.1948,0.1156,0.0059,-0.2695,
4.136499,0.0501,0.8922,0.3816,0.0086,-0.0505,-0.5732,0.1156,0.0059,-0.2695,
4.138256,0.0501,0.8922,0.3816,0.0086,-0.0505,-0.5732,0.1987,0.1864,-0.3654,
4.154286,0.0501,0.8922,0.3816,0.0086,-0.0505,-0.5732,0.3020,0.4325,-0.5172,
4.173998,0.0286,0.8416,0.2841,0.0086,-0.0505,-0.5732,0.3020,0.4325,-0.5172,
4.176483,0.0286,0.8416,0.2841,0.0083,-0.6024,-1.4305,0.3020,0.4325,-0.5172,
4.178292,0.0286,0.8416,0.2841,0.0083,-0.6024,-1.4305,0.3638,0.6056,-0.6546,
4.193951,0.0286,0.8416,0.2841,0.0083,-0.6024,-1.4305,0.2407,0.5071,-0.6914,
4.214262,-0.0818,0.9274,0.3205,0.0083,-0.6024,-1.4305,0.2407,0.5071,-0.6914,
4.217680,-0.0818,0.9274,0.3205,-0.7376,0.1766,-0.9511,0.2407,0.5071,-0.6914,
4.219754,-0.0818,0.9274,0.3205,-0.7376,0.1766,-0.9511,0.1049,0.5348,-0.6003,
4.233494,-0.0818,0.9274,0.3205,-0.7376,0.1766,-0.9511,0.1108,0.5300,-0.5145,
4.254212,-0.0398,0.8116,0.4681,-0.7376,0.1766,-0.9511,0.1108,0.5300,-0.5145,
4.257857,-0.0398,0.8116,0.4681,-0.0407,-0.9711,0.5378,0.1108,0.5300,-0.5145,
4.259916,-0.0398,0.8116,0.4681,-0.0407,-0.9711,0.5378,0.1976,0.4735,-0.5039,
4.273917,-0.0398,0.8116,0.4681,-0.0407,-0.9711,0.5378,0.2935,0.5060,-0.6264,
4.294736,-0.0765,0.8419,0.5301,-0.0407,-0.9711,0.5378,0.2935,0.5060,-0.6264,
4.297826,-0.0765,0.8419,0.5301,-0.2386,-0.4009,0.6058,0.2935,0.5060,-0.6264,
4.299851,-0.0765,0.8419,0.5301,-0.2386,-0.4009,0.6058,0.3425,0.4916,-0.7611,
4.313767,-0.0765,0.8419,0.5301,-0.2386,-0.4009,0.6058,0.4384,0.3787,-0.7499,
4.333386,-0.2348,0.8988,0.4962,-0.2386,-0.4009,0.6058,0.4384,0.3787,-0.7499,
4.336339,-0.2348,0.8988,0.4962,-1.4331,0.1125,0.4128,0.4384,0.3787,-0.7499,
4.338126,-0.2348,0.8988,0.4962,-1.4331,0.1125,0.4128,0.5039,0.2445,-0.5939,
4.353760,-0.2348,0.8988,0.4962,-1.4331,0.1125,0.4128,0.6189,0.1417,-0.3814,
4.374022,-0.2223,1.0034,0.3371,-1.4331,0.1125,0.4128,0.6189,0.1417,-0.3814,
4.377580,-0.2223,1.0034,0.3371,-1.0925,1.0564,-0.9342,0.6189,0.1417,-0.3814,
4.379848,-0.2223,1.0034,0.3371,-1.0925,1.0564,-0.9342,0.7281,0.0895,-0.1614,
4.396638,-0.2223,1.0034,0.3371,-1.0925,1.0564,-0.9342,0.7510,-0.0234,-0.0245,
4.413808,-0.0799,1.0212,0.2428,-1.0925,1.0564,-0.9342,0.7510,-0.0234,-0.0245,
4.416217,-0.0799,1.0212,0.2428,0.3448,1.1058,-1.5767,0.7510,-0.0234,-0.0245,
4.417931,-0.0799,1.0212,0.2428,0.3448,1.1058,-1.5767,0.6764,-0.1758,0.0644,
4.433734,-0.0799,1.0212,0.2428,0.3448,1.1058,-1.5767,0.5124,-0.3606,0.1028,
4.453965,-0.1483,0.8888,0.2726,0.3448,1.1058,-1.5767,0.5124,-0.3606,0.1028,
4.457140,-0.1483,0.8888,0.2726,-0.3848,-0.2962,-1.0584,0.5124,-0.3606,0.1028,
4.459154,-0.1483,0.8888,0.2726,-0.3848,-0.2962,-1.0584,0.3803,-0.4362,0.0490,
4.473451,-0.1483,0.8888,0.2726,-0.3848,-0.2962,-1.0584,0.2935,-0.4927,0.1358,
4.493835,-0.2128,0.9249,0.3059,-0.3848,-0.2962,-1.0584,0.2935,-0.4927,0.1358,
4.497480,-0.2128,0.9249,0.3059,-1.0914,-0.0007,-0.6088,0.2935,-0.4927,0.1358,
4.499713,-0.2128,0.9249,0.3059,-1.0914,-0.0007,-0.6088,0.2008,-0.6237,0.2344,
4.513506,-0.2128,0.9249,0.3059,-1.0914,-0.0007,-0.6088,0.2173,-0.6285,0.2700,
4.533266,-0.2296,1.0271,0.3210,-1.0914,-0.0007,-0.6088,0.2173,-0.6285,0.2700,
4.536356,-0.2296,1.0271,0.3210,-1.4124,0.9580,-0.3934,0.2173,-0.6285,0.2700,
4.538369,-0.2296,1.0271,0.3210,-1.4124,0.9580,-0.3934,0.2471,-0.6338,0.3004,
4.552930,-0.2296,1.0271,0.3210,-1.4124,0.9580,-0.3934,0.2551,-0.6839,0.3057,
4.573877,-0.1994,0.9518,0.3093,-1.4124,0.9580,-0.3934,0.2551,-0.6839,0.3057,
4.577224,-0.1994,0.9518,0.3093,-0.0778,0.1708,0.0645,0.2551,-0.6839,0.3057,
4.579098,-0.1994,0.9518,0.3093,-0.0778,0.1708,0.0645,0.2754,-0.7073,0.2839,
4.594246,-0.1994,0.9518,0.3093,-0.0778,0.1708,0.0645,0.2786,-0.6583,0.2738,
4.613209,-0.1901,0.8597,0.2526,-0.0778,0.1708,0.0645,0.2786,-0.6583,0.2738,
4.615246,-0.1901,0.8597,0.2526,0.0772,-0.7518,-0.3863,0.2786,-0.6583,0.2738,
4.617153,-0.1901,0.8597,0.2526,0.0772,-0.7518,-0.3863,0.2498,-0.6248,0.2860,
4.633648,-0.1901,0.8597,0.2526,0.0772,-0.7518,-0.3863,0.2764,-0.5406,0.2653,
4.653162,-0.2394,0.9904,0.2016,0.0772,-0.7518,-0.3863,0.2764,-0.5406,0.2653,
4.655874,-0.2394,0.9904,0.2016,-0.5138,0.4696,-0.7632,0.2764,-0.5406,0.2653,
4.657589,-0.2394,0.9904,0.2016,-0.5138,0.4696,-0.7632,0.1806,-0.5214,0.2226,
4.674862,-0.2394,0.9904,0.2016,-0.5138,0.4696,-0.7632,0.0346,-0.4810,0.2461,
4.693271,-0.2406,1.0073,0.2257,-0.5138,0.4696,-0.7632,0.0346,-0.4810,0.2461,
4.695917,-0.2406,1.0073,0.2257,-0.6005,0.6002,-0.4576,0.0346,-0.4810,0.2461,
4.697782,-0.2406,1.0073,0.2257,-0.6005,0.6002,-0.4576,-0.0192,-0.4112,0.2759,
4.714764,-0.2406,1.0073,0.2257,-0.6005,0.6002,-0.4576,-0.0964,-0.4234,0.3627,
4.732989,-0.2384,1.0442,0.2372,-0.6005,0.6002,-0.4576,-0.0964,-0.4234,0.3627,
4.735482,-0.2384,1.0442,0.2372,-0.7328,0.9457,-0.3859,-0.0964,-0.4234,0.3627,
4.737353,-0.2384,1.0442,0.2372,-0.7328,0.9457,-0.3859,-0.1028,-0.3718,0.4586,
4.752733,-0.2384,1.0442,0.2372,-0.7328,0.9457,-0.3859,-0.1161,-0.3499,0.5209,
4.773462,-0.1546,0.9733,0.2125,-0.7328,0.9457,-0.3859,-0.1161,-0.3499,0.5209,
4.777334,-0.1546,0.9733,0.2125,-0.1199,0.2314,-0.6741,-0.1161,-0.3499,0.5209,
4.779540,-0.1546,0.9733,0.2125,-0.1199,0.2314,-0.6741,-0.1656,-0.2738,0.6147,
4.792453,-0.1546,0.9733,0.2125,-0.1199,0.2314,-0.6741,-0.3020,-0.2615,0.6663,
4.813085,-0.0484,0.8844,0.2257,-0.1199,0.2314,-0.6741,-0.3020,-0.2615,0.6663,
4.815306,-0.0484,0.8844,0.2257,0.6602,-0.6510,-0.6264,-0.3020,-0.2615,0.6663,
4.817192,-0.0484,0.8844,0.2257,0.6602,-0.6510,-0.6264,-0.5198,-0.3260,0.6679,
4.832977,-0.0484,0.8844,0.2257,0.6602,-0.6510,-0.6264,-0.6386,-0.3244,0.6120,
4.853215,-0.0469,0.9987,0.3298,0.6602,-0.6510,-0.6264,-0.6386,-0.3244,0.6120,
4.856784,-0.0469,0.9987,0.3298,0.4014,0.5074,0.1811,-0.6386,-0.3244,0.6120,
4.858442,-0.0469,0.9987,0.3298,0.4014,0.5074,0.1811,-0.6962,-0.3286,0.6674,
4.872927,-0.0469,0.9987,0.3298,0.4014,0.5074,0.1811,-0.7782,-0.3382,0.6748,
4.892915,0.1178,0.8978,0.4385,0.4014,0.5074,0.1811,-0.7782,-0.3382,0.6748,
4.895534,0.1178,0.8978,0.4385,1.7042,-0.4073,0.9633,-0.7782,-0.3382,0.6748,
4.897156,0.1178,0.8978,0.4385,1.7042,-0.4073,0.9633,-0.7063,-0.1577,0.5587,
4.913123,0.1178,0.8978,0.4385,1.7042,-0.4073,0.9633,-0.7563,0.0389,0.3457,
4.932906,0.0958,0.8050,0.4693,1.7042,-0.4073,0.9633,-0.7563,0.0389,0.3457,
4.935845,0.0958,0.8050,0.4693,1.2948,-1.2203,0.9844,-0.7563,0.0389,0.3457,
4.937629,0.0958,0.8050,0.4693,1.2948,-1.2203,0.9844,-0.8538,0.2892,0.2647,
4.952522,0.0958,0.8050,0.4693,1.2948,-1.2203,0.9844,-0.8661,0.3286,0.3201,
4.972644,0.1283,0.9850,0.4903,1.2948,-1.2203,0.9844,-0.8661,0.3286,0.3201,
4.975725,0.1283,0.9850,0.4903,1.5235,0.6726,0.8754,-0.8661,0.3286,0.3201,
4.977651,0.1283,0.9850,0.4903,1.5235,0.6726,0.8754,-1.0173,0.4155,0.2812,
4.993955,0.1283,0.9850,0.4903,1.5235,0.6726,0.8754,-1.1579,0.6706,0.2525,
5.012051,0.1527,0.9726,0.6179,1.5235,0.6726,0.8754,-1.1579,0.6706,0.2525,
5.014177,0.1527,0.9726,0.6179,1.7486,0.7279,1.7414,-1.1579,0.6706,0.2525,
5.015209,0.1527,0.9726,0.6179,1.7486,0.7279,1.7414,-1.0488,0.8458,0.1395,
5.032098,0.1527,0.9726,0.6179,1.7486,0.7279,1.7414,-0.8085,0.8490,-0.2024,
5.051888,0.1114,0.6477,0.5534,1.7486,0.7279,1.7414,-0.8085,0.8490,-0.2024,
5.053529,0.1114,0.6477,0.5534,1.4572,-2.2791,0.7724,-0.8085,0.8490,-0.2024,
5.054532,0.1114,0.6477,0.5534,1.4572,-2.2791,0.7724,-0.4208,0.4224,-0.4677,
5.072777,0.1114,0.6477,0.5534,1.4572,-2.2791,0.7724,-0.2557,0.1262,-0.5428,
5.092094,0.0359,0.7415,0.3775,1.4572,-2.2791,0.7724,-0.2557,0.1262,-0.5428,
5.095000,0.0359,0.7415,0.3775,0.9334,-1.2860,-1.0642,-0.2557,0.1262,-0.5428,
5.096685,0.0359,0.7415,0.3775,0.9334,-1.2860,-1.0642,-0.3856,-0.0005,-0.4527,
5.112675,0.0359,0.7415,0.3775,0.9334,-1.2860,-1.0642,-0.5433,-0.0426,-0.4575,
5.132526,0.0577,0.7046,0.4158,0.9334,-1.2860,-1.0642,-0.5433,-0.0426,-0.4575,
5.136065,0.0577,0.7046,0.4158,1.2968,-1.5458,-0.8465,-0.5433,-0.0426,-0.4575,
5.138116,0.0577,0.7046,0.4158,1.2968,-1.5458,-0.8465,-0.5976,0.0394,-0.4469,
5.152305,0.0577,0.7046,0.4158,1.2968,-1.5458,-0.8465,-0.5800,0.0304,-0.4149,
5.172698,0.0181,0.6860,0.4319,1.2968,-1.5458,-0.8465,-0.5800,0.0304,-0.4149,
5.175467,0.0181,0.6860,0.4319,1.0603,-1.5958,-0.8846,-0.5800,0.0304,-0.4149,
5.177222,0.0181,0.6860,0.4319,1.0603,-1.5958,-0.8846,-0.6168,0.0202,-0.4000,
5.192059,0.0181,0.6860,0.4319,1.0603,-1.5958,-0.8846,-0.6669,-0.0208,-0.2700,
5.212578,0.0071,0.6745,0.5194,1.0603,-1.5958,-0.8846,-0.6669,-0.0208,-0.2700,
5.215022,0.0071,0.6745,0.5194,1.0629,-1.5618,-0.2389,-0.6669,-0.0208,-0.2700,
5.216857,0.0071,0.6745,0.5194,1.0629,-1.5618,-0.2389,-0.6754,0.0415,-0.2269,
5.232828,0.0071,0.6745,0.5194,1.0629,-1.5618,-0.2389,-0.6045,0.1545,-0.2423,
5.252945,-0.1180,0.7478,0.5216,1.0629,-1.5618,-0.2389,-0.6045,0.1545,-0.2423,
5.255443,-0.1180,0.7478,0.5216,-0.0657,-0.6951,-0.4202,-0.6045,0.1545,-0.2423,
5.257356,-0.1180,0.7478,0.5216,-0.0657,-0.6951,-0.4202,-0.4969,0.0863,-0.1901,
5.272276,-0.1180,0.7478,0.5216,-0.0657,-0.6951,-0.4202,-0.4874,0.0431,-0.1731,
5.292476,-0.1708,0.9118,0.6369,-0.0657,-0.6951,-0.4202,-0.4874,0.0431,-0.1731,
5.294944,-0.1708,0.9118,0.6369,-0.5441,1.0118,0.5746,-0.4874,0.0431,-0.1731,
5.296645,-0.1708,0.9118,0.6369,-0.5441,1.0118,0.5746,-0.3835,0.0639,-0.1555,
5.312127,-0.1708,0.9118,0.6369,-0.5441,1.0118,0.5746,-0.2503,0.1257,-0.1513,
5.332558,-0.1075,0.8697,0.6809,-0.5441,1.0118,0.5746,-0.2503,0.1257,-0.1513,
5.334960,-0.1075,0.8697,0.6809,0.1407,0.6788,0.9100,-0.2503,0.1257,-0.1513,
5.336727,-0.1075,0.8697,0.6809,0.1407,0.6788,0.9100,-0.1593,0.2940,-0.1273,
5.352439,-0.1075,0.8697,0.6809,0.1407,0.6788,0.9100,-0.0107,0.3457,-0.1726,
5.372585,-0.0100,0.6826,0.6379,0.1407,0.6788,0.9100,-0.0107,0.3457,-0.1726,
5.375894,-0.0100,0.6826,0.6379,1.1913,-1.1216,0.4636,-0.0107,0.3457,-0.1726,
5.377582,-0.0100,0.6826,0.6379,1.1913,-1.1216,0.4636,0.3467,0.4591,-0.2088,
5.394863,-0.0100,0.6826,0.6379,1.1913,-1.1216,0.4636,0.6471,0.4602,-0.2248,
5.412386,-0.1004,0.7537,0.4683,1.1913,-1.1216,0.4636,0.6471,0.4602,-0.2248,
5.414627,-0.1004,0.7537,0.4683,0.4665,-0.5260,-1.0196,0.6471,0.4602,-0.2248,
5.416538,-0.1004,0.7537,0.4683,0.4665,-0.5260,-1.0196,0.7292,0.4410,-0.2216,
5.432042,-0.1004,0.7537,0.4683,0.4665,-0.5260,-1.0196,0.6456,0.3878,-0.1603,
5.451547,-0.1373,0.7793,0.4879,0.4665,-0.5260,-1.0196,0.6456,0.3878,-0.1603,
5.454285,-0.1373,0.7793,0.4879,0.2488,-0.4136,-0.5861,0.6456,0.3878,-0.1603,
5.456122,-0.1373,0.7793,0.4879,0.2488,-0.4136,-0.5861,0.4378,0.3606,-0.1534,
5.471597,-0.1373,0.7793,0.4879,0.2488,-0.4136,-0.5861,0.4101,0.4389,-0.1646,
5.492250,-0.1200,0.8744,0.5780,0.2488,-0.4136,-0.5861,0.4101,0.4389,-0.1646,
5.495639,-0.1200,0.8744,0.5780,0.5324,0.4397,0.4521,0.4101,0.4389,-0.1646,
5.497322,-0.1200,0.8744,0.5780,0.5324,0.4397,0.4521,0.5859,0.5289,-0.2397,
5.511671,-0.1200,0.8744,0.5780,0.5324,0.4397,0.4521,0.7638,0.4906,-0.3180,
5.532012,-0.1471,0.9633,0.6069,0.5324,0.4397,0.4521,0.7638,0.4906,-0.3180,
5.535383,-0.1471,0.9633,0.6069,0.4487,1.1956,0.9851,0.7638,0.4906,-0.3180,
5.537066,-0.1471,0.9633,0.6069,0.4487,1.1956,0.9851,0.8309,0.4181,-0.3265,
5.551631,-0.1471,0.9633,0.6069,0.4487,1.1956,0.9851,0.7430,0.4778,-0.3105,
5.572144,-0.1011,0.9968,0.6562,0.4487,1.1956,0.9851,0.7430,0.4778,-0.3105,
5.576286,-0.1011,0.9968,0.6562,1.0905,1.3975,1.7655,0.7430,0.4778,-0.3105,
5.578431,-0.1011,0.9968,0.6562,1.0905,1.3975,1.7655,0.7617,0.7398,-0.2913,
5.591302,-0.1011,0.9968,0.6562,1.0905,1.3975,1.7655,0.9752,0.9348,-0.3755,
5.612694,-0.0784,0.8280,0.5465,1.0905,1.3975,1.7655,0.9752,0.9348,-0.3755,
5.614979,-0.0784,0.8280,0.5465,1.5552,-0.3800,1.0404,0.9752,0.9348,-0.3755,
5.616741,-0.0784,0.8280,0.5465,1.5552,-0.3800,1.0404,1.2256,1.1569,-0.4671,
5.633177,-0.0784,0.8280,0.5465,1.5552,-0.3800,1.0404,1.3007,1.3305,-0.5230,
5.651782,-0.1512,0.7820,0.3196,1.5552,-0.3800,1.0404,1.3007,1.3305,-0.5230,
5.654802,-0.1512,0.7820,0.3196,1.1716,-0.9839,-0.6559,1.3007,1.3305,-0.5230,
5.656417,-0.1512,0.7820,0.3196,1.1716,-0.9839,-0.6559,1.0924,1.3566,-0.6168,
5.672147,-0.1512,0.7820,0.3196,1.1716,-0.9839,-0.6559,0.7494,1.1100,-0.6184,
5.691684,-0.4842,1.0332,0.3159,1.1716,-0.9839,-0.6559,0.7494,1.1100,-0.6184,
5.695155,-0.4842,1.0332,0.3159,-1.7120,1.4173,-0.2426,0.7494,1.1100,-0.6184,
5.697257,-0.4842,1.0332,0.3159,-1.7120,1.4173,-0.2426,0.3888,0.8405,-0.3904,
5.712664,-0.4842,1.0332,0.3159,-1.7120,1.4173,-0.2426,0.0080,0.6993,-0.1182,
5.731939,-0.4126,0.9701,0.4796,-1.7120,1.4173,-0.2426,0.0080,0.6993,-0.1182,
5.735926,-0.4126,0.9701,0.4796,-0.8232,0.8060,1.5244,0.0080,0.6993,-0.1182,
5.737742,-0.4126,0.9701,0.4796,-0.8232,0.8060,1.5244,-0.1033,0.6163,0.2157,
5.751547,-0.4126,0.9701,0.4796,-0.8232,0.8060,1.5244,0.1502,0.6775,0.3867,
5.771223,-0.0308,0.7928,0.2841,-0.8232,0.8060,1.5244,0.1502,0.6775,0.3867,
5.773709,-0.0308,0.7928,0.2841,2.8618,-0.9788,-0.3198,0.1502,0.6775,0.3867,
5.775839,-0.0308,0.7928,0.2841,2.8618,-0.9788,-0.3198,0.2519,0.9119,0.4373,
5.794087,-0.0308,0.7928,0.2841,2.8618,-0.9788,-0.3198,0.1758,0.8586,0.4874,
5.810953,-0.1886,0.8807,0.4278,2.8618,-0.9788,-0.3198,0.1758,0.8586,0.4874,
5.813742,-0.1886,0.8807,0.4278,1.2222,-0.2017,1.2386,0.1758,0.8586,0.4874,
5.815452,-0.1886,0.8807,0.4278,1.2222,-0.2017,1.2386,0.1310,0.5374,0.4916,
5.831401,-0.1886,0.8807,0.4278,1.2222,-0.2017,1.2386,0.0916,0.0847,0.3521,
5.851317,-0.4730,0.9318,0.3628,1.2222,-0.2017,1.2386,0.0916,0.0847,0.3521,
5.853483,-0.4730,0.9318,0.3628,-1.6758,0.2427,0.6568,0.0916,0.0847,0.3521,
5.855310,-0.4730,0.9318,0.3628,-1.6758,0.2427,0.6568,0.0368,-0.2152,0.2887,
5.871509,-0.4730,0.9318,0.3628,-1.6758,0.2427,0.6568,-0.0565,-0.3222,0.2232,
5.891234,-0.3904,0.8365,0.4168,-1.6758,0.2427,0.6568,-0.0565,-0.3222,0.2232,
5.893084,-0.3904,0.8365,0.4168,-0.9721,-0.7047,1.1227,-0.0565,-0.3222,0.2232,
5.894570,-0.3904,0.8365,0.4168,-0.9721,-0.7047,1.1227,-0.0346,-0.4783,0.3936,
5.911788,-0.3904,0.8365,0.4168,-0.9721,-0.7047,1.1227,-0.0016,-0.4874,0.5609,
5.931042,-0.1544,0.9125,0.3963,-0.9721,-0.7047,1.1227,-0.0016,-0.4874,0.5609,
5.934188,-0.1544,0.9125,0.3963,1.1113,-0.0003,0.8318,-0.0016,-0.4874,0.5609,
5.936117,-0.1544,0.9125,0.3963,1.1113,-0.0003,0.8318,-0.0485,-0.5092,0.4778,
5.951925,-0.1544,0.9125,0.3963,1.1113,-0.0003,0.8318,-0.0889,-0.5060,0.3718,
5.971310,-0.1649,0.9452,0.3357,1.1113,-0.0003,0.8318,-0.0889,-0.5060,0.3718,
5.974425,-0.1649,0.9452,0.3357,0.7846,0.2897,0.1456,-0.0889,-0.5060,0.3718,
5.976233,-0.1649,0.9452,0.3357,0.7846,0.2897,0.1456,-0.2157,-0.6051,0.2637,
5.993796,-0.1649,0.9452,0.3357,0.7846,0.2897,0.1456,-0.3670,-0.8027,0.2200,
6.010290,-0.2262,1.0503,0.3369,0.7846,0.2897,0.1456,-0.3670,-0.8027,0.2200,
6.013121,-0.2262,1.0503,0.3369,0.0051,1.3341,-0.0116,-0.3670,-0.8027,0.2200,
6.014922,-0.2262,1.0503,0.3369,0.0051,1.3341,-0.0116,-0.4719,-0.9161,0.2131,
6.031538,-0.2262,1.0503,0.3369,0.0051,1.3341,-0.0116,-0.7292,-1.0578,0.1209,
6.050775,-0.2944,0.9968,0.4068,0.0051,1.3341,-0.0116,-0.7292,-1.0578,0.1209,
6.053484,-0.2944,0.9968,0.4068,-0.8568,0.8786,0.3767,-0.7292,-1.0578,0.1209,
6.055197,-0.2944,0.9968,0.4068,-0.8568,0.8786,0.3767,-0.9380,-0.8900,0.1055,
6.070658,-0.2944,0.9968,0.4068,-0.8568,0.8786,0.3767,-1.0525,-0.9587,0.2125,
6.091079,0.0970,0.6130,0.5394,-0.8568,0.8786,0.3767,-1.0525,-0.9587,0.2125,
6.094122,0.0970,0.6130,0.5394,2.7691,-2.7407,1.2441,-1.0525,-0.9587,0.2125,
6.095809,0.0970,0.6130,0.5394,2.7691,-2.7407,1.2441,-1.0440,-1.3140,0.3558,
6.111515,0.0970,0.6130,0.5394,2.7691,-2.7407,1.2441,-0.9822,-1.0701,0.2450,
6.130981,0.0164,0.8612,0.4649,2.7691,-2.7407,1.2441,-0.9822,-1.0701,0.2450,
6.133229,0.0164,0.8612,0.4649,1.6506,-0.1571,0.0788,-0.9822,-1.0701,0.2450,
6.134942,0.0164,0.8612,0.4649,1.6506,-0.1571,0.0788,-1.0770,-0.7510,0.0458,
6.150693,0.0164,0.8612,0.4649,1.6506,-0.1571,0.0788,-1.3151,-0.6221,-0.0708,
6.171060,-0.0999,0.9697,0.4720,1.6506,-0.1571,0.0788,-1.3151,-0.6221,-0.0708,
6.173855,-0.0999,0.9697,0.4720,0.3630,1.1185,-0.2812,-1.3151,-0.6221,-0.0708,
6.175580,-0.0999,0.9697,0.4720,0.3630,1.1185,-0.2812,-1.5116,-0.2610,0.0362,
6.193661,-0.0999,0.9697,0.4720,0.3630,1.1185,-0.2812,-1.6043,-0.2828,-0.1017,
6.210579,0.0435,0.7109,0.7244,0.3630,1.1185,-0.2812,-1.6043,-0.2828,-0.1017,
6.212978,0.0435,0.7109,0.7244,1.6810,-1.0938,1.6567,-1.6043,-0.2828,-0.1017,
6.215353,0.0435,0.7109,0.7244,1.6810,-1.0938,1.6567,-1.4141,-0.4964,-0.3521,
6.230883,0.0435,0.7109,0.7244,1.6810,-1.0938,1.6567,-0.7526,-0.5689,-0.3878,
6.250437,-0.0095,0.6865,0.6433,1.6810,-1.0938,1.6567,-0.7526,-0.5689,-0.3878,
6.252906,-0.0095,0.6865,0.6433,1.1276,-1.0692,0.4826,-0.7526,-0.5689,-0.3878,
6.254398,-0.0095,0.6865,0.6433,1.1276,-1.0692,0.4826,-0.2280,-0.7649,-0.3222,
6.270857,-0.0095,0.6865,0.6433,1.1276,-1.0692,0.4826,-0.1539,-0.4586,-0.1768,
6.290532,0.0716,0.6816,0.5111,1.1276,-1.0692,0.4826,-0.1539,-0.4586,-0.1768,
6.292722,0.0716,0.6816,0.5111,1.8458,-1.0611,-0.9023,-0.1539,-0.4586,-0.1768,
6.294455,0.0716,0.6816,0.5111,1.8458,-1.0611,-0.9023,-0.1816,-0.1545,-0.1971,
6.310596,0.0716,0.6816,0.5111,1.8458,-1.0611,-0.9023,-0.2445,0.0927,-0.3382,
6.330653,-0.2511,0.5582,0.3811,1.8458,-1.0611,-0.9023,-0.2445,0.0927,-0.3382,
6.332840,-0.2511,0.5582,0.3811,-1.2417,-2.2070,-2.2430,-0.2445,0.0927,-0.3382,
6.334928,-0.2511,0.5582,0.3811,-1.2417,-2.2070,-2.2430,-0.2578,0.1593,-0.2599,
6.350189,-0.2511,0.5582,0.3811,-1.2417,-2.2070,-2.2430,-0.2040,0.1087,-0.0293,
6.370376,-0.1224,0.6823,0.4234,-1.2417,-2.2070,-2.2430,-0.2040,0.1087,-0.0293,
6.372885,-0.1224,0.6823,0.4234,0.0964,-0.9281,-1.8925,-0.2040,0.1087,-0.0293,
6.374731,-0.1224,0.6823,0.4234,0.0964,-0.9281,-1.8925,-0.1609,0.1401,0.0549,
6.392817,-0.1224,0.6823,0.4234,0.0964,-0.9281,-1.8925,-0.2104,0.1917,0.0421,
6.409990,-0.1583,0.8206,0.6032,0.0964,-0.9281,-1.8925,-0.2104,0.1917,0.0421,
6.412289,-0.1583,0.8206,0.6032,-0.2299,0.4684,-0.1766,-0.2104,0.1917,0.0421,
6.414091,-0.1583,0.8206,0.6032,-0.2299,0.4684,-0.1766,-0.0868,0.1763,0.0224,
6.430057,-0.1583,0.8206,0.6032,-0.2299,0.4684,-0.1766,0.1044,0.2551,-0.0378,
6.450289,-0.0557,0.6850,0.5885,-0.2299,0.4684,-0.1766,0.1044,0.2551,-0.0378,
6.453972,-0.0557,0.6850,0.5885,0.8299,-0.8624,-0.3058,0.1044,0.2551,-0.0378,
6.455679,-0.0557,0.6850,0.5885,0.8299,-0.8624,-0.3058,0.2605,0.4511,-0.0905,
6.470331,-0.0557,0.6850,0.5885,0.8299,-0.8624,-0.3058,0.4229,0.7936,-0.0469,
6.490594,-0.1334,0.8976,0.6611,0.8299,-0.8624,-0.3058,0.4229,0.7936,-0.0469,
6.492992,-0.1334,0.8976,0.6611,0.2216,1.1375,0.5477,0.4229,0.7936,-0.0469,
6.494663,-0.1334,0.8976,0.6611,0.2216,1.1375,0.5477,0.4852,1.0088,0.0107,
6.510620,-0.1334,0.8976,0.6611,0.2216,1.1375,0.5477,0.5017,0.7899,0.0117,
6.529785,-0.0621,0.8404,0.7561,0.2216,1.1375,0.5477,0.5017,0.7899,0.0117,
6.532293,-0.0621,0.8404,0.7561,1.1105,0.4650,1.6806,0.5017,0.7899,0.0117,
6.533732,-0.0621,0.8404,0.7561,1.1105,0.4650,1.6806,0.6354,0.5886,-0.0985,
6.550404,-0.0621,0.8404,0.7561,1.1105,0.4650,1.6806,0.8602,0.6067,-0.2871,
6.569966,-0.0452,0.7442,0.5414,1.1105,0.4650,1.6806,0.8602,0.6067,-0.2871,
6.572981,-0.0452,0.7442,0.5414,1.4240,-0.6256,-0.1702,0.8602,0.6067,-0.2871,
6.575123,-0.0452,0.7442,0.5414,1.4240,-0.6256,-0.1702,1.1707,0.8794,-0.4719,
6.593451,-0.0452,0.7442,0.5414,1.4240,-0.6256,-0.1702,1.3342,1.1649,-0.5715,
6.611309,-0.2108,0.7666,0.3411,1.4240,-0.6256,-0.1702,1.3342,1.1649,-0.5715,
6.614166,-0.2108,0.7666,0.3411,0.1714,-0.6254,-1.6506,1.3342,1.1649,-0.5715,
6.616129,-0.2108,0.7666,0.3411,0.1714,-0.6254,-1.6506,1.1974,1.2224,-0.6088,
6.629754,-0.2108,0.7666,0.3411,0.1714,-0.6254,-1.6506,0.9103,1.1468,-0.5699,
6.649694,-0.3374,0.8670,0.4424,0.1714,-0.6254,-1.6506,0.9103,1.1468,-0.5699,
6.653054,-0.3374,0.8670,0.4424,-0.6620,0.2159,-0.2029,0.9103,1.1468,-0.5699,
6.654935,-0.3374,0.8670,0.4424,-0.6620,0.2159,-0.2029,0.5838,1.0882,-0.5561,
6.669466,-0.3374,0.8670,0.4424,-0.6620,0.2159,-0.2029,0.4101,0.9209,-0.4655,
6.690171,-0.4349,1.0969,0.6088,-0.6620,0.2159,-0.2029,0.4101,0.9209,-0.4655,
6.693229,-0.4349,1.0969,0.6088,-1.2715,2.4389,1.7054,0.4101,0.9209,-0.4655,
6.694784,-0.4349,1.0969,0.6088,-1.2715,2.4389,1.7054,0.3915,0.9007,-0.3467,
6.709490,-0.4349,1.0969,0.6088,-1.2715,2.4389,1.7054,0.4112,0.9577,-0.2530,
6.729856,-0.3454,0.9494,0.6205,-1.2715,2.4389,1.7054,0.4112,0.9577,-0.2530,
6.733711,-0.3454,0.9494,0.6205,-0.1419,0.9638,2.0696,0.4112,0.9577,-0.2530,
6.735794,-0.3454,0.9494,0.6205,-0.1419,0.9638,2.0696,0.5358,0.8959,-0.1172,
6.749830,-0.3454,0.9494,0.6205,-0.1419,0.9638,2.0696,0.6679,0.7627,0.0138,
6.770441,-0.1840,0.7977,0.3875,-0.1419,0.9638,2.0696,0.6679,0.7627,0.0138,
6.773767,-0.1840,0.7977,0.3875,1.5656,-0.6071,0.0747,0.6679,0.7627,0.0138,
6.775641,-0.1840,0.7977,0.3875,1.5656,-0.6071,0.0747,0.5348,0.8314,0.0831,
6.792680,-0.1840,0.7977,0.3875,1.5656,-0.6071,0.0747,0.1971,0.8661,-0.0868,
6.809993,-0.3112,0.9753,0.3833,1.5656,-0.6071,0.0747,0.1971,0.8661,-0.0868,
6.813340,-0.3112,0.9753,0.3833,0.4274,1.0798,0.2634,0.1971,0.8661,-0.0868,
6.815021,-0.3112,0.9753,0.3833,0.4274,1.0798,0.2634,0.1193,0.5204,0.0309,
6.829790,-0.3112,0.9753,0.3833,0.4274,1.0798,0.2634,0.0650,0.3814,0.2210,
6.849509,-0.1757,0.7894,0.3811,0.4274,1.0798,0.2634,0.0650,0.3814,0.2210,
6.852383,-0.1757,0.7894,0.3811,1.7364,-0.7775,0.3087,0.0650,0.3814,0.2210,
6.854238,-0.1757,0.7894,0.3811,1.7364,-0.7775,0.3087,0.0437,0.2216,0.3803,
6.870576,-0.1757,0.7894,0.3811,1.7364,-0.7775,0.3087,0.0815,0.0591,0.3430,
6.890095,-0.2311,0.6560,0.3936,1.7364,-0.7775,0.3087,0.0815,0.0591,0.3430,
6.893684,-0.2311,0.6560,0.3936,1.0869,-2.1422,0.4689,0.0815,0.0591,0.3430,
6.895635,-0.2311,0.6560,0.3936,1.0869,-2.1422,0.4689,0.2109,0.0186,0.1561,
6.909948,-0.2311,0.6560,0.3936,1.0869,-2.1422,0.4689,0.2131,-0.0240,0.0453,
6.930101,-0.5172,0.9284,0.3134,1.0869,-2.1422,0.4689,0.2131,-0.0240,0.0453,
6.932464,-0.5172,0.9284,0.3134,-1.7437,0.4930,-0.2555,0.2131,-0.0240,0.0453,
6.934306,-0.5172,0.9284,0.3134,-1.7437,0.4930,-0.2555,0.0767,-0.3036,0.0431,
6.949490,-0.5172,0.9284,0.3134,-1.7437,0.4930,-0.2555,-0.0676,-0.5822,0.2013,
6.969674,-0.5228,1.0842,0.4429,-1.7437,0.4930,-0.2555,-0.0676,-0.5822,0.2013,
6.972178,-0.5228,1.0842,0.4429,-1.9001,2.0040,0.9570,-0.0676,-0.5822,0.2013,
6.973925,-0.5228,1.0842,0.4429,-1.9001,2.0040,0.9570,-0.2988,-0.9231,0.2871,
6.992409,-0.5228,1.0842,0.4429,-1.9001,2.0040,0.9570,-0.4591,-1.1979,0.4011,
7.009865,-0.1950,0.8267,0.5306,-1.9001,2.0040,0.9570,-0.4591,-1.1979,0.4011,
7.012391,-0.1950,0.8267,0.5306,1.0474,-0.5036,1.5445,-0.4591,-1.1979,0.4011,
7.014165,-0.1950,0.8267,0.5306,1.0474,-0.5036,1.5445,-0.4442,-1.2256,0.5081,
7.029470,-0.1950,0.8267,0.5306,1.0474,-0.5036,1.5445,-0.4884,-1.2714,0.4847,
7.049340,-0.2108,1.0564,0.4363,1.0474,-0.5036,1.5445,-0.4884,-1.2714,0.4847,
7.052017,-0.2108,1.0564,0.4363,0.5314,1.7627,0.3216,-0.4884,-1.2714,0.4847,
7.053666,-0.2108,1.0564,0.4363,0.5314,1.7627,0.3216,-0.7302,-1.2719,0.4639,
7.069437,-0.2108,1.0564,0.4363,0.5314,1.7627,0.3216,-1.0589,-1.2746,0.5651,
7.089459,-0.0970,0.9621,0.5602,0.5314,1.7627,0.3216,-1.0589,-1.2746,0.5651,
7.093619,-0.0970,0.9621,0.5602,1.2605,0.9383,1.1080,-1.0589,-1.2746,0.5651,
7.095997,-0.0970,0.9621,0.5602,1.2605,0.9383,1.1080,-1.3279,-1.2671,0.5886,
7.109548,-0.0970,0.9621,0.5602,1.2605,0.9383,1.1080,-1.4093,-1.1270,0.4234,
7.130015,0.0100,0.7244,0.5680,1.2605,0.9383,1.1080,-1.4093,-1.1270,0.4234,
7.132148,0.0100,0.7244,0.5680,1.8911,-1.1793,0.6241,-1.4093,-1.1270,0.4234,
7.133856,0.0100,0.7244,0.5680,1.8911,-1.1793,0.6241,-1.3097,-0.8325,0.2051,
7.148917,0.0100,0.7244,0.5680,1.8911,-1.1793,0.6241,-1.2922,-0.8064,0.1028,
7.169064,-0.0665,0.6667,0.5785,1.8911,-1.1793,0.6241,-1.2922,-0.8064,0.1028,
7.172078,-0.0665,0.6667,0.5785,0.9080,-1.4851,0.2438,-1.2922,-0.8064,0.1028,
7.173700,-0.0665,0.6667,0.5785,0.9080,-1.4851,0.2438,-1.2746,-0.8288,0.1049,
7.189024,-0.0665,0.6667,0.5785,0.9080,-1.4851,0.2438,-1.1073,-0.7942,0.1166,
7.209200,0.0247,0.7200,0.5641,0.9080,-1.4851,0.2438,-1.1073,-0.7942,0.1166,
7.211491,0.0247,0.7200,0.5641,1.5704,-0.7036,-0.3197,-1.1073,-0.7942,0.1166,
7.213313,0.0247,0.7200,0.5641,1.5704,-0.7036,-0.3197,-0.7537,-0.7318,0.0495,
7.229117,0.0247,0.7200,0.5641,1.5704,-0.7036,-0.3197,-0.4490,-0.5981,-0.1081,
7.249430,0.0349,0.5841,0.5270,1.5704,-0.7036,-0.3197,-0.4490,-0.5981,-0.1081,
7.251650,0.0349,0.5841,0.5270,1.5215,-1.8905,-0.9013,-0.4490,-0.5981,-0.1081,
7.253521,0.0349,0.5841,0.5270,1.5215,-1.8905,-0.9013,-0.2892,-0.1848,-0.2131,
7.269194,0.0349,0.5841,0.5270,1.5215,-1.8905,-0.9013,-0.0570,0.0399,-0.2759,
7.289429,-0.0665,0.5927,0.3838,1.5215,-1.8905,-0.9013,-0.0570,0.0399,-0.2759,
7.292931,-0.0665,0.5927,0.3838,0.5843,-1.7528,-2.3602,-0.0570,0.0399,-0.2759,
7.294942,-0.0665,0.5927,0.3838,0.5843,-1.7528,-2.3602,0.0969,0.0895,-0.3547,
7.309279,-0.0665,0.5927,0.3838,0.5843,-1.7528,-2.3602,0.0437,0.0261,-0.2977,
7.329104,-0.2998,0.9083,0.5385,0.5843,-1.7528,-2.3602,0.0437,0.0261,-0.2977,
7.331597,-0.2998,0.9083,0.5385,-1.5877,1.3360,-0.8149,0.0437,0.0261,-0.2977,
7.333356,-0.2998,0.9083,0.5385,-1.5877,1.3360,-0.8149,-0.1246,-0.1411,-0.2162,
7.349051,-0.2998,0.9083,0.5385,-1.5877,1.3360,-0.8149,-0.2482,-0.1513,-0.1854,
7.368849,-0.0606,0.6447,0.5690,-1.5877,1.3360,-0.8149,-0.2482,-0.1513,-0.1854,
7.371439,-0.0606,0.6447,0.5690,0.7810,-1.1908,-0.5797,-0.2482,-0.1513,-0.1854,
7.373184,-0.0606,0.6447,0.5690,0.7810,-1.1908,-0.5797,-0.2908,-0.0213,-0.0442,
7.389037,-0.0606,0.6447,0.5690,0.7810,-1.1908,-0.5797,-0.1630,0.2924,-0.0746,
7.408806,0.0611,0.5876,0.6262,0.7810,-1.1908,-0.5797,-0.1630,0.2924,-0.0746,
7.411884,0.0611,0.5876,0.6262,2.0246,-1.6917,-0.0796,-0.1630,0.2924,-0.0746,
7.413551,0.0611,0.5876,0.6262,2.0246,-1.6917,-0.0796,0.1513,0.6157,-0.2019,
7.428699,0.0611,0.5876,0.6262,2.0246,-1.6917,-0.0796,0.3862,0.7499,-0.2125,
7.448646,-0.0994,0.7745,0.5077,2.0246,-1.6917,-0.0796,0.3862,0.7499,-0.2125,
7.451603,-0.0994,0.7745,0.5077,0.6815,0.0866,-1.1185,0.3862,0.7499,-0.2125,
7.453261,-0.0994,0.7745,0.5077,0.6815,0.0866,-1.1185,0.4985,0.9939,-0.2509,
7.468823,-0.0994,0.7745,0.5077,0.6815,0.0866,-1.1185,0.5390,1.0898,-0.3228,
7.488726,-0.3037,0.8690,0.6298,0.6815,0.0866,-1.1185,0.5390,1.0898,-0.3228,
7.491039,-0.3037,0.8690,0.6298,-0.9956,0.9056,0.3133,0.5390,1.0898,-0.3228,
7.492755,-0.3037,0.8690,0.6298,-0.9956,0.9056,0.3133,0.5124,0.9316,-0.2578,
7.509297,-0.3037,0.8690,0.6298,-0.9956,0.9056,0.3133,0.3872,0.7127,-0.1933,
7.529134,-0.2160,0.8697,0.7974,-0.9956,0.9056,0.3133,0.3872,0.7127,-0.1933,
7.533040,-0.2160,0.8697,0.7974,0.1166,0.8306,2.1573,0.3872,0.7127,-0.1933,
7.534777,-0.2160,0.8697,0.7974,0.1166,0.8306,2.1573,0.4623,0.6344,-0.2322,
7.548882,-0.2160,0.8697,0.7974,0.1166,0.8306,2.1573,0.8453,0.6168,-0.3308,
7.568982,-0.1300,0.7415,0.6281,0.1166,0.8306,2.1573,0.8453,0.6168,-0.3308,
7.572491,-0.1300,0.7415,0.6281,1.1613,-0.5359,0.7365,0.8453,0.6168,-0.3308,
7.574587,-0.1300,0.7415,0.6281,1.1613,-0.5359,0.7365,1.1920,0.9225,-0.3366,
7.591565,-0.1300,0.7415,0.6281,1.1613,-0.5359,0.7365,1.2991,1.2975,-0.3302,
7.608558,-0.2118,0.8553,0.3591,1.1613,-0.5359,0.7365,1.2991,1.2975,-0.3302,
7.610861,-0.2118,0.8553,0.3591,0.6607,0.3535,-1.4023,1.2991,1.2975,-0.3302,
7.612596,-0.2118,0.8553,0.3591,0.6607,0.3535,-1.4023,1.1308,1.3177,-0.3920,
7.628910,-0.2118,0.8553,0.3591,0.6607,0.3535,-1.4023,0.7398,1.2378,-0.5113,
7.648907,-0.5465,1.0710,0.5336,0.6607,0.3535,-1.4023,0.7398,1.2378,-0.5113,
7.651134,-0.5465,1.0710,0.5336,-2.2340,2.3449,0.7588,0.7398,1.2378,-0.5113,
7.652904,-0.5465,1.0710,0.5336,-2.2340,2.3449,0.7588,0.3451,1.1228,-0.5598,
7.668395,-0.5465,1.0710,0.5336,-2.2340,2.3449,0.7588,0.3824,1.0637,-0.3286,
7.688122,-0.4033,0.8971,0.6565,-2.2340,2.3449,0.7588,0.3824,1.0637,-0.3286,
7.689150,-0.4033,0.8971,0.6565,-0.4970,0.6354,2.2254,0.3824,1.0637,-0.3286,
7.689791,-0.4033,0.8971,0.6565,-0.4970,0.6354,2.2254,0.6173,0.9694,-0.0181,
7.709363,-0.4033,0.8971,0.6565,-0.4970,0.6354,2.2254,0.7089,0.6040,0.1459,
7.729153,-0.1156,0.7498,0.3230,-0.4970,0.6354,2.2254,0.7089,0.6040,0.1459,
7.731439,-0.1156,0.7498,0.3230,2.3904,-0.9266,-0.7457,0.7089,0.6040,0.1459,
7.733260,-0.1156,0.7498,0.3230,2.3904,-0.9266,-0.7457,0.5763,0.6045,0.1284,
7.748653,-0.1156,0.7498,0.3230,2.3904,-0.9266,-0.7457,0.3388,0.7308,0.0463,
7.768124,-0.3012,0.8297,0.2504,2.3904,-0.9266,-0.7457,0.3388,0.7308,0.0463,
7.771542,-0.3012,0.8297,0.2504,0.6249,-0.2309,-1.2147,0.3388,0.7308,0.0463,
7.773073,-0.3012,0.8297,0.2504,0.6249,-0.2309,-1.2147,0.1486,0.6232,-0.0847,
7.788162,-0.3012,0.8297,0.2504,0.6249,-0.2309,-1.2147,0.0911,0.4426,0.0613,
7.808801,-0.3242,0.9403,0.4141,0.6249,-0.2309,-1.2147,0.0911,0.4426,0.0613,
7.811174,-0.3242,0.9403,0.4141,0.4531,0.8303,0.4966,0.0911,0.4426,0.0613,
7.812795,-0.3242,0.9403,0.4141,0.4531,0.8303,0.4966,-0.0602,0.1901,0.3201,
7.828240,-0.3242,0.9403,0.4141,0.4531,0.8303,0.4966,-0.0783,-0.1055,0.2695,
7.848129,-0.2436,0.8109,0.5035,0.4531,0.8303,0.4966,-0.0783,-0.1055,0.2695,
7.851787,-0.2436,0.8109,0.5035,1.1188,-0.4714,1.3259,-0.0783,-0.1055,0.2695,
7.853913,-0.2436,0.8109,0.5035,1.1188,-0.4714,1.3259,0.0581,-0.2498,0.2285,
7.868453,-0.2436,0.8109,0.5035,1.1188,-0.4714,1.3259,0.0921,-0.2407,0.1726,
7.888389,-0.3689,0.9347,0.3897,1.1188,-0.4714,1.3259,0.0921,-0.2407,0.1726,
7.892551,-0.3689,0.9347,0.3897,-0.2236,0.7040,0.1912,0.0921,-0.2407,0.1726,
7.894793,-0.3689,0.9347,0.3897,-0.2236,0.7040,0.1912,0.0495,-0.2216,0.0080,
7.908822,-0.3689,0.9347,0.3897,-0.2236,0.7040,0.1912,-0.1119,-0.3915,0.0783,
7.928796,-0.4151,0.9569,0.4283,-0.2236,0.7040,0.1912,-0.1119,-0.3915,0.0783,
7.931231,-0.4151,0.9569,0.4283,-0.7552,0.9428,0.4497,-0.1119,-0.3915,0.0783,
7.932913,-0.4151,0.9569,0.4283,-0.7552,0.9428,0.4497,-0.2418,-0.7633,0.2674,
7.948303,-0.4151,0.9569,0.4283,-0.7552,0.9428,0.4497,-0.3702,-1.0722,0.3116,
7.969075,-0.3437,0.9528,0.4383,-0.7552,0.9428,0.4497,-0.3702,-1.0722,0.3116,
7.973460,-0.3437,0.9528,0.4383,-0.2948,0.9123,0.3279,-0.3702,-1.0722,0.3116,
7.975676,-0.3437,0.9528,0.4383,-0.2948,0.9123,0.3279,-0.4820,-1.3795,0.4330,
7.988962,-0.3437,0.9528,0.4383,-0.2948,0.9123,0.3279,-0.7286,-1.5521,0.5156,
8.007931,-0.1219,0.7774,0.4869,-0.2948,0.9123,0.3279,-0.7286,-1.5521,0.5156,
8.010411,-0.1219,0.7774,0.4869,1.4722,-0.7614,0.4313,-0.7286,-1.5521,0.5156,
8.012233,-0.1219,0.7774,0.4869,1.4722,-0.7614,0.4313,-1.0695,-1.7257,0.5486,
8.028370,-0.1219,0.7774,0.4869,1.4722,-0.7614,0.4313,-1.2794,-1.8834,0.5934,
8.047565,0.0051,0.8277,0.5406,1.4722,-0.7614,0.4313,-1.2794,-1.8834,0.5934,
8.049916,0.0051,0.8277,0.5406,2.1682,-0.1136,0.3961,-1.2794,-1.8834,0.5934,
8.051972,0.0051,0.8277,0.5406,2.1682,-0.1136,0.3961,-1.2197,-1.7721,0.4495,
8.067797,0.0051,0.8277,0.5406,2.1682,-0.1136,0.3961,-1.1649,-1.1846,0.0804,
8.087901,-0.1383,0.9120,0.5578,2.1682,-0.1136,0.3961,-1.1649,-1.1846,0.0804,
8.091787,-0.1383,0.9120,0.5578,0.3619,0.9266,0.0765,-1.1649,-1.1846,0.0804,
8.093592,-0.1383,0.9120,0.5578,0.3619,0.9266,0.0765,-1.2378,-0.7148,-0.1497,
8.107658,-0.1383,0.9120,0.5578,0.3619,0.9266,0.0765,-1.3598,-0.8932,-0.1816,
8.128956,-0.1336,0.9012,0.7024,0.3619,0.9266,0.0765,-1.3598,-0.8932,-0.1816,
8.131129,-0.1336,0.9012,0.7024,0.2757,1.1205,1.0364,-1.3598,-0.8932,-0.1816,
8.132767,-0.1336,0.9012,0.7024,0.2757,1.1205,1.0364,-1.1462,-0.9534,0.0336,
8.148346,-0.1336,0.9012,0.7024,0.2757,1.1205,1.0364,-0.7340,-0.9215,-0.0858,
8.167639,0.0997,0.6699,0.7762,0.2757,1.1205,1.0364,-0.7340,-0.9215,-0.0858,
8.170890,0.0997,0.6699,0.7762,2.3201,-0.9201,1.4143,-0.7340,-0.9215,-0.0858,
8.172881,0.0997,0.6699,0.7762,2.3201,-0.9201,1.4143,-0.3510,-0.7697,-0.1944,
8.187579,0.0997,0.6699,0.7762,2.3201,-0.9201,1.4143,-0.0059,-0.2168,-0.3558,
8.207792,-0.0599,0.6017,0.4222,2.3201,-0.9201,1.4143,-0.0059,-0.2168,-0.3558,
8.210103,-0.0599,0.6017,0.4222,0.7124,-1.5304,-2.1332,-0.0059,-0.2168,-0.3558,
8.212122,-0.0599,0.6017,0.4222,0.7124,-1.5304,-2.1332,0.2690,0.2120,-0.3851,
8.228366,-0.0599,0.6017,0.4222,0.7124,-1.5304,-2.1332,0.3052,0.3846,-0.3451,
8.247664,-0.1984,0.4911,0.1845,0.7124,-1.5304,-2.1332,0.3052,0.3846,-0.3451,
8.250904,-0.1984,0.4911,0.1845,-0.4624,-2.6661,-4.3606,0.3052,0.3846,-0.3451,
8.253443,-0.1984,0.4911,0.1845,-0.4624,-2.6661,-4.3606,0.2993,0.5806,-0.3009,
8.267768,-0.1984,0.4911,0.1845,-0.4624,-2.6661,-4.3606,0.2280,0.5752,-0.2312,
8.288130,-0.2595,0.7195,0.2648,-0.4624,-2.6661,-4.3606,0.2280,0.5752,-0.2312,
8.291767,-0.2595,0.7195,0.2648,-0.8402,-0.4750,-3.4571,0.2280,0.5752,-0.2312,
8.293938,-0.2595,0.7195,0.2648,-0.8402,-0.4750,-3.4571,0.1678,0.6083,-0.2115,
8.307775,-0.2595,0.7195,0.2648,-0.8402,-0.4750,-3.4571,0.1577,0.6951,-0.1710,
8.328102,-0.2668,0.6804,0.5880,-0.8402,-0.4750,-3.4571,0.1577,0.6951,-0.1710,
8.330583,-0.2668,0.6804,0.5880,-0.6982,-0.8834,-0.1934,0.1577,0.6951,-0.1710,
8.332613,-0.2668,0.6804,0.5880,-0.6982,-0.8834,-0.1934,0.0905,0.3483,-0.0943,
8.347808,-0.2668,0.6804,0.5880,-0.6982,-0.8834,-0.1934,0.1140,-0.0905,0.0666,
8.367365,-0.0682,0.8314,0.7383,-0.6982,-0.8834,-0.1934,0.1140,-0.0905,0.0666,
8.370173,-0.0682,0.8314,0.7383,1.2761,0.5716,1.3195,0.1140,-0.0905,0.0666,
8.372016,-0.0682,0.8314,0.7383,1.2761,0.5716,1.3195,0.3249,0.0820,0.0724,
8.388149,-0.0682,0.8314,0.7383,1.2761,0.5716,1.3195,0.4969,0.5566,-0.0064,
8.407523,-0.0733,1.1143,0.9154,1.2761,0.5716,1.3195,0.4969,0.5566,-0.0064,
8.410596,-0.0733,1.1143,0.9154,1.2900,3.2456,3.2056,0.4969,0.5566,-0.0064,
8.412592,-0.0733,1.1143,0.9154,1.2900,3.2456,3.2056,0.5843,0.7702,-0.0874,
8.427505,-0.0733,1.1143,0.9154,1.2900,3.2456,3.2056,0.7452,0.8687,-0.3558,
8.447820,-0.1092,0.7117,0.6933,1.2900,3.2456,3.2056,0.7452,0.8687,-0.3558,
8.449859,-0.1092,0.7117,0.6933,1.1855,-0.8289,1.3000,0.7452,0.8687,-0.3558,
8.451695,-0.1092,0.7117,0.6933,1.1855,-0.8289,1.3000,1.0615,1.0434,-0.5124,
8.467439,-0.1092,0.7117,0.6933,1.1855,-0.8289,1.3000,1.3566,1.4546,-0.5678,
8.487756,-0.1818,0.6396,0.2639,1.1855,-0.8289,1.3000,1.3566,1.4546,-0.5678,
8.491488,-0.1818,0.6396,0.2639,0.8991,-1.7352,-2.4077,1.3566,1.4546,-0.5678,
8.493523,-0.1818,0.6396,0.2639,0.8991,-1.7352,-2.4077,1.3960,1.7199,-0.6296,
8.510725,-0.1818,0.6396,0.2639,0.8991,-1.7352,-2.4077,1.1803,1.5308,-0.6519,
8.527032,-0.4104,0.8338,0.2516,0.8991,-1.7352,-2.4077,1.1803,1.5308,-0.6519,
8.529492,-0.4104,0.8338,0.2516,-0.8329,0.0007,-1.9201,1.1803,1.5308,-0.6519,
8.531532,-0.4104,0.8338,0.2516,-0.8329,0.0007,-1.9201,0.8495,1.2336,-0.5864,
8.546985,-0.4104,0.8338,0.2516,-0.8329,0.0007,-1.9201,0.5289,1.0583,-0.4746,
8.567458,-0.5235,0.8333,0.4642,-0.8329,0.0007,-1.9201,0.5289,1.0583,-0.4746,
8.569675,-0.5235,0.8333,0.4642,-1.5708,-0.0416,0.5338,0.5289,1.0583,-0.4746,
8.571600,-0.5235,0.8333,0.4642,-1.5708,-0.0416,0.5338,0.4266,0.8788,-0.2887,
8.586904,-0.5235,0.8333,0.4642,-1.5708,-0.0416,0.5338,0.5103,0.7057,-0.1289,
8.607040,-0.3188,0.9367,0.4153,-1.5708,-0.0416,0.5338,0.5103,0.7057,-0.1289,
8.609422,-0.3188,0.9367,0.4153,0.6145,0.9281,0.3142,0.5103,0.7057,-0.1289,
8.611156,-0.3188,0.9367,0.4153,0.6145,0.9281,0.3142,0.4655,0.4565,-0.1220,
8.627213,-0.3188,0.9367,0.4153,0.6145,0.9281,0.3142,0.2647,0.2972,-0.2125,
8.646862,-0.5040,1.2689,0.4747,0.6145,0.9281,0.3142,0.2647,0.2972,-0.2125,
8.650162,-0.5040,1.2689,0.4747,-1.0898,4.1561,1.0736,0.2647,0.2972,-0.2125,
8.652329,-0.5040,1.2689,0.4747,-1.0898,4.1561,1.0736,0.0075,0.2983,-0.2264,
8.667018,-0.5040,1.2689,0.4747,-1.0898,4.1561,1.0736,-0.0410,0.1161,-0.0953,
8.686738,-0.2260,0.8536,0.4999,-1.0898,4.1561,1.0736,-0.0410,0.1161,-0.0953,
8.689357,-0.2260,0.8536,0.4999,1.7173,0.1133,1.3469,-0.0410,0.1161,-0.0953,
8.690951,-0.2260,0.8536,0.4999,1.7173,0.1133,1.3469,0.0272,-0.0213,0.2541,
8.707058,-0.2260,0.8536,0.4999,1.7173,0.1133,1.3469,0.1593,0.0208,0.2642,
8.727714,-0.2531,0.7380,0.3408,1.7173,0.1133,1.3469,0.1593,0.0208,0.2642,
8.731597,-0.2531,0.7380,0.3408,1.3308,-1.0797,-0.2022,0.1593,0.0208,0.2642,
8.733430,-0.2531,0.7380,0.3408,1.3308,-1.0797,-0.2022,0.3174,-0.0005,-0.0245,
8.747270,-0.2531,0.7380,0.3408,1.3308,-1.0797,-0.2022,0.3334,0.0048,0.0293,
8.766697,-0.4801,0.7591,0.1859,1.3308,-1.0797,-0.2022,0.3334,0.0048,0.0293,
8.769346,-0.4801,0.7591,0.1859,-0.8931,-0.9201,-1.6090,0.3334,0.0048,0.0293,
8.771108,-0.4801,0.7591,0.1859,-0.8931,-0.9201,-1.6090,0.2525,-0.0112,0.0751,
8.786793,-0.4801,0.7591,0.1859,-0.8931,-0.9201,-1.6090,0.0916,-0.2663,0.1933,
8.806419,-0.3139,0.6599,0.2651,-0.8931,-0.9201,-1.6090,0.0916,-0.2663,0.1933,
8.810709,-0.3139,0.6599,0.2651,0.6711,-1.9358,-0.7967,0.0916,-0.2663,0.1933,
8.812688,-0.3139,0.6599,0.2651,0.6711,-1.9358,-0.7967,-0.1459,-0.5774,0.3792,
8.826383,-0.3139,0.6599,0.2651,0.6711,-1.9358,-0.7967,-0.2748,-0.6738,0.2700,
8.846844,-0.4911,1.0784,0.3858,0.6711,-1.9358,-0.7967,-0.2748,-0.6738,0.2700,
8.850940,-0.4911,1.0784,0.3858,-1.2518,2.1467,0.2344,-0.2748,-0.6738,0.2700,
8.853045,-0.4911,1.0784,0.3858,-1.2518,2.1467,0.2344,-0.5412,-0.8176,0.1726,
8.866275,-0.4911,1.0784,0.3858,-1.2518,2.1467,0.2344,-0.8831,-1.1691,0.2573,
8.886242,-0.5392,1.1920,0.5927,-1.2518,2.1467,0.2344,-0.8831,-1.1691,0.2573,
8.888967,-0.5392,1.1920,0.5927,-1.9436,3.3367,1.8867,-0.8831,-1.1691,0.2573,
8.890771,-0.5392,1.1920,0.5927,-1.9436,3.3367,1.8867,-0.9955,-1.7939,0.5736,
8.907506,-0.5392,1.1920,0.5927,-1.9436,3.3367,1.8867,-1.1659,-2.1508,0.8922,
8.927221,-0.0420,0.9252,0.6738,-1.9436,3.3367,1.8867,-1.1659,-2.1508,0.8922,
8.929343,-0.0420,0.9252,0.6738,2.3528,0.8154,2.0820,-1.1659,-2.1508,0.8922,
8.931077,-0.0420,0.9252,0.6738,2.3528,0.8154,2.0820,-1.2804,-2.0783,0.8666,
8.946720,-0.0420,0.9252,0.6738,2.3528,0.8154,2.0820,-1.2783,-1.8200,0.5135,
8.966147,-0.0491,0.9530,0.6120,2.3528,0.8154,2.0820,-1.2783,-1.8200,0.5135,
8.968659,-0.0491,0.9530,0.6120,1.6829,1.2667,0.8680,-1.2783,-1.8200,0.5135,
8.970229,-0.0491,0.9530,0.6120,1.6829,1.2667,0.8680,-1.2959,-1.2767,0.1230,
8.986803,-0.0491,0.9530,0.6120,1.6829,1.2667,0.8680,-1.3348,-0.8027,0.0799,
9.006729,0.0630,0.6174,0.6464,1.6829,1.2667,0.8680,-1.3348,-0.8027,0.0799,
9.009357,0.0630,0.6174,0.6464,2.4897,-1.7521,0.6967,-1.3348,-0.8027,0.0799,
9.011048,0.0630,0.6174,0.6464,2.4897,-1.7521,0.6967,-1.1574,-0.6935,0.0666,
9.025870,0.0630,0.6174,0.6464,2.4897,-1.7521,0.6967,-0.8836,-0.6450,-0.0607,
9.045978,0.0921,0.5382,0.4371,2.4897,-1.7521,0.6967,-0.8836,-0.6450,-0.0607,
9.048940,0.0921,0.5382,0.4371,2.6177,-2.2909,-1.7164,-0.8836,-0.6450,-0.0607,
9.051111,0.0921,0.5382,0.4371,2.6177,-2.2909,-1.7164,-0.5454,-0.2349,-0.1933,
9.066090,0.0921,0.5382,0.4371,2.6177,-2.2909,-1.7164,-0.1177,0.1944,-0.3851,
9.086557,-0.1793,0.5363,0.3220,2.6177,-2.2909,-1.7164,-0.1177,0.1944,-0.3851,
9.088916,-0.1793,0.5363,0.3220,0.0398,-2.2097,-2.9448,-0.1177,0.1944,-0.3851,
9.090882,-0.1793,0.5363,0.3220,0.0398,-2.2097,-2.9448,0.1971,0.3004,-0.4980,
9.106447,-0.1793,0.5363,0.3220,0.0398,-2.2097,-2.9448,0.2546,0.4112,-0.4309,
9.126411,-0.4647,0.4942,0.1725,0.0398,-2.2097,-2.9448,0.2546,0.4112,-0.4309,
9.129757,-0.4647,0.4942,0.1725,-2.5322,-2.6408,-4.3155,0.2546,0.4112,-0.4309,
9.132188,-0.4647,0.4942,0.1725,-2.5322,-2.6408,-4.3155,0.0256,0.0389,-0.2178,
9.146663,-0.4647,0.4942,0.1725,-2.5322,-2.6408,-4.3155,-0.1566,-0.0415,-0.0698,
9.166840,-0.3591,0.8766,0.5763,-2.5322,-2.6408,-4.3155,-0.1566,-0.0415,-0.0698,
9.169592,-0.3591,0.8766,0.5763,-1.4553,1.1336,-0.3775,-0.1566,-0.0415,-0.0698,
9.171437,-0.3591,0.8766,0.5763,-1.4553,1.1336,-0.3775,-0.1470,0.2296,-0.2099,
9.186226,-0.3591,0.8766,0.5763,-1.4553,1.1336,-0.3775,-0.2509,0.0650,0.0186,
9.205870,0.0437,0.6051,0.6376,-1.4553,1.1336,-0.3775,-0.2509,0.0650,0.0186,
9.208346,0.0437,0.6051,0.6376,2.5567,-1.4703,0.1768,-0.2509,0.0650,0.0186,
9.210058,0.0437,0.6051,0.6376,2.5567,-1.4703,0.1768,-0.1571,0.3446,0.1220,
9.226278,0.0437,0.6051,0.6376,2.5567,-1.4703,0.1768,0.3505,0.7318,-0.1124,
9.245917,-0.1395,0.8123,0.5568,2.5567,-1.4703,0.1768,0.3505,0.7318,-0.1124,
9.248995,-0.1395,0.8123,0.5568,0.8859,0.5344,-0.5390,0.3505,0.7318,-0.1124,
9.250669,-0.1395,0.8123,0.5568,0.8859,0.5344,-0.5390,0.7531,1.0008,-0.1987,
9.265937,-0.1395,0.8123,0.5568,0.8859,0.5344,-0.5390,0.6530,0.9358,-0.0362,
9.285958,-0.2756,0.9460,0.7449,0.8859,0.5344,-0.5390,0.6530,0.9358,-0.0362,
9.289113,-0.2756,0.9460,0.7449,-0.1993,1.6892,1.6043,0.6530,0.9358,-0.0362,
9.291557,-0.2756,0.9460,0.7449,-0.1993,1.6892,1.6043,0.1278,0.5779,-0.0985,
9.307697,-0.2756,0.9460,0.7449,-0.1993,1.6892,1.6043,0.2280,0.5742,-0.1854,
9.325986,-0.1742,0.7837,0.7139,-0.1993,1.6892,1.6043,0.2280,0.5742,-0.1854,
9.328404,-0.1742,0.7837,0.7139,0.9525,0.0761,1.4040,0.2280,0.5742,-0.1854,
9.329965,-0.1742,0.7837,0.7139,0.9525,0.0761,1.4040,0.7989,0.9694,-0.2578,
9.345688,-0.1742,0.7837,0.7139,0.9525,0.0761,1.4040,1.1984,1.4104,-0.3611,
9.365901,-0.1820,0.7224,0.3684,0.9525,0.0761,1.4040,1.1984,1.4104,-0.3611,
9.368715,-0.1820,0.7224,0.3684,1.2024,-0.7077,-1.5482,1.1984,1.4104,-0.3611,
9.370404,-0.1820,0.7224,0.3684,1.2024,-0.7077,-1.5482,1.2048,1.5548,-0.4224,
9.385744,-0.1820,0.7224,0.3684,1.2024,-0.7077,-1.5482,0.9550,1.5382,-0.4804,
9.406123,-0.4358,0.8871,0.3027,1.2024,-0.7077,-1.5482,0.9550,1.5382,-0.4804,
9.409132,-0.4358,0.8871,0.3027,-0.8556,0.7432,-1.6486,0.9550,1.5382,-0.4804,
9.410881,-0.4358,0.8871,0.3027,-0.8556,0.7432,-1.6486,0.6844,1.4211,-0.5028,
9.425939,-0.4358,0.8871,0.3027,-0.8556,0.7432,-1.6486,0.4501,1.2298,-0.4085,
9.445900,-0.6086,0.9604,0.5277,-0.8556,0.7432,-1.6486,0.4501,1.2298,-0.4085,
9.450119,-0.6086,0.9604,0.5277,-2.1688,1.4266,0.9280,0.4501,1.2298,-0.4085,
9.452144,-0.6086,0.9604,0.5277,-2.1688,1.4266,0.9280,0.2679,1.0296,-0.1060,
9.465425,-0.6086,0.9604,0.5277,-2.1688,1.4266,0.9280,0.3691,0.8874,0.2338,
9.486327,-0.2282,0.8077,0.4915,-2.1688,1.4266,0.9280,0.3691,0.8874,0.2338,
9.490344,-0.2282,0.8077,0.4915,1.6787,-0.1330,0.8084,0.3691,0.8874,0.2338,
9.492346,-0.2282,0.8077,0.4915,1.6787,-0.1330,0.8084,0.6157,0.5678,0.2642,
9.506692,-0.2282,0.8077,0.4915,1.6787,-0.1330,0.8084,0.5183,0.5358,0.1113,
9.526221,-0.1659,0.8077,0.2455,1.6787,-0.1330,0.8084,0.5183,0.5358,0.1113,
9.528569,-0.1659,0.8077,0.2455,2.2898,-0.2597,-1.3368,0.5183,0.5358,0.1113,
9.530534,-0.1659,0.8077,0.2455,2.2898,-0.2597,-1.3368,0.1257,0.5694,-0.0607,
9.545699,-0.1659,0.8077,0.2455,2.2898,-0.2597,-1.3368,-0.0980,0.2599,-0.0282,
9.565407,-0.4542,1.0561,0.4405,2.2898,-0.2597,-1.3368,-0.0980,0.2599,-0.0282,
9.568378,-0.4542,1.0561,0.4405,-0.4691,2.1757,0.6431,-0.0980,0.2599,-0.0282,
9.570075,-0.4542,1.0561,0.4405,-0.4691,2.1757,0.6431,-0.1928,0.1406,0.1981,
9.586016,-0.4542,1.0561,0.4405,-0.4691,2.1757,0.6431,-0.0549,0.0879,0.1603,
9.605748,-0.3604,0.8047,0.4300,-0.4691,2.1757,0.6431,-0.0549,0.0879,0.1603,
9.608060,-0.3604,0.8047,0.4300,0.3926,-0.3023,0.5102,-0.0549,0.0879,0.1603,
9.609739,-0.3604,0.8047,0.4300,0.3926,-0.3023,0.5102,0.2131,-0.2333,-0.0218,
9.625524,-0.3604,0.8047,0.4300,0.3926,-0.3023,0.5102,0.2525,-0.3334,0.0341,
9.645131,-0.3498,0.6108,0.2480,0.3926,-0.3023,0.5102,0.2525,-0.3334,0.0341,
9.648068,-0.3498,0.6108,0.2480,0.4517,-2.2385,-1.2414,0.2525,-0.3334,0.0341,
9.649678,-0.3498,0.6108,0.2480,0.4517,-2.2385,-1.2414,0.1257,-0.3462,0.0767,
9.666615,-0.3498,0.6108,0.2480,0.4517,-2.2385,-1.2414,-0.0181,-0.4139,0.1390,
9.685743,-0.4471,0.9811,0.4019,0.4517,-2.2385,-1.2414,-0.0181,-0.4139,0.1390,
9.688131,-0.4471,0.9811,0.4019,-0.5923,1.3659,0.2284,-0.0181,-0.4139,0.1390,
9.689911,-0.4471,0.9811,0.4019,-0.5923,1.3659,0.2284,-0.1529,-0.7308,0.1875,
9.706880,-0.4471,0.9811,0.4019,-0.5923,1.3659,0.2284,-0.3782,-1.2714,0.1848,
9.725913,-0.4202,1.0051,0.4363,-0.5923,1.3659,0.2284,-0.3782,-1.2714,0.1848,
9.728791,-0.4202,1.0051,0.4363,-0.5423,1.6128,0.3342,-0.3782,-1.2714,0.1848,
9.730628,-0.4202,1.0051,0.4363,-0.5423,1.6128,0.3342,-0.6386,-1.4695,0.2578,
9.745051,-0.4202,1.0051,0.4363,-0.5423,1.6128,0.3342,-0.8778,-1.5686,0.3441,
9.765461,-0.2253,0.8976,0.5167,-0.5423,1.6128,0.3342,-0.8778,-1.5686,0.3441,
9.767659,-0.2253,0.8976,0.5167,1.0143,0.6420,0.6708,-0.8778,-1.5686,0.3441,
9.769267,-0.2253,0.8976,0.5167,1.0143,0.6420,0.6708,-0.9875,-1.8594,0.3430,
9.785137,-0.2253,0.8976,0.5167,1.0143,0.6420,0.6708,-1.1489,-2.1992,0.3121,
9.805935,-0.3718,0.9452,0.5490,1.0143,0.6420,0.6708,-1.1489,-2.1992,0.3121,
9.808966,-0.3718,0.9452,0.5490,-0.9081,1.2697,0.4008,-1.1489,-2.1992,0.3121,
9.810747,-0.3718,0.9452,0.5490,-0.9081,1.2697,0.4008,-1.4828,-2.3526,0.3089,
9.825432,-0.3718,0.9452,0.5490,-0.9081,1.2697,0.4008,-1.7774,-2.1822,0.4565,
9.845611,0.0000,0.7725,0.7058,-0.9081,1.2697,0.4008,-1.7774,-2.1822,0.4565,
9.847953,0.0000,0.7725,0.7058,2.1279,-0.1161,1.2108,-1.7774,-2.1822,0.4565,
9.849628,0.0000,0.7725,0.7058,2.1279,-0.1161,1.2108,-1.6394,-1.6496,0.5124,
9.864926,0.0000,0.7725,0.7058,2.1279,-0.1161,1.2108,-1.2282,-1.2874,0.1289,
9.884911,-0.0418,0.7788,0.6406,2.1279,-0.1161,1.2108,-1.2282,-1.2874,0.1289,
9.887525,-0.0418,0.7788,0.6406,1.2593,0.2504,0.0417,-1.2282,-1.2874,0.1289,
9.889030,-0.0418,0.7788,0.6406,1.2593,0.2504,0.0417,-0.8927,-1.0972,-0.2328,
9.906966,-0.0418,0.7788,0.6406,1.2593,0.2504,0.0417,-0.4677,-0.4943,-0.3281,
9.925331,-0.1280,0.6704,0.5995,1.2593,0.2504,0.0417,-0.4677,-0.4943,-0.3281,
9.927593,-0.1280,0.6704,0.5995,0.2857,-0.6353,-0.5966,-0.4677,-0.4943,-0.3281,
9.929497,-0.1280,0.6704,0.5995,0.2857,-0.6353,-0.5966,-0.2754,-0.2642,-0.4597,
9.945580,-0.1280,0.6704,0.5995,0.2857,-0.6353,-0.5966,-0.0985,0.0543,-0.3904,
9.964941,-0.1314,0.4395,0.4190,0.2857,-0.6353,-0.5966,-0.0985,0.0543,-0.3904,
9.969019,-0.1314,0.4395,0.4190,0.3466,-2.8225,-2.4259,-0.0985,0.0543,-0.3904,
9.970606,-0.1314,0.4395,0.4190,0.3466,-2.8225,-2.4259,0.1816,0.0932,-0.3302,
9.984358,-0.1314,0.4395,0.4190,0.3466,-2.8225,-2.4259,0.1752,-0.1529,-0.1427,
10.003791,-0.1256,0.7637,0.4715,0.3466,-2.8225,-2.4259,0.1752,-0.1529,-0.1427,
10.005011,-0.1256,0.7637,0.4715,0.4638,0.3241,-1.8623,0.1752,-0.1529,-0.1427,
10.005613,-0.1256,0.7637,0.4715,0.4638,0.3241,-1.8623,-0.0415,0.1278,-0.1060,
10.024402,-0.1256,0.7637,0.4715,0.4638,0.3241,-1.8623,-0.0794,0.2455,-0.1518,
10.044418,-0.1090,0.5233,0.3450,0.4638,0.3241,-1.8623,-0.0794,0.2455,-0.1518,
10.047117,-0.1090,0.5233,0.3450,0.7118,-2.0072,-3.1068,-0.0794,0.2455,-0.1518,
10.049158,-0.1090,0.5233,0.3450,0.7118,-2.0072,-3.1068,-0.0128,0.4815,-0.1949,
10.064440,-0.1090,0.5233,0.3450,0.7118,-2.0072,-3.1068,0.1976,0.7276,-0.2258,
10.084997,-0.2165,0.6161,0.4134,0.7118,-2.0072,-3.1068,0.1976,0.7276,-0.2258,
10.088680,-0.2165,0.6161,0.4134,-0.1258,-1.1054,-2.3645,0.1976,0.7276,-0.2258,
10.091220,-0.2165,0.6161,0.4134,-0.1258,-1.1054,-2.3645,0.4171,0.7862,-0.1774,
10.107744,-0.2165,0.6161,0.4134,-0.1258,-1.1054,-2.3645,0.4346,0.6003,-0.0032,
10.125254,-0.2978,0.7713,0.6525,-0.1258,-1.1054,-2.3645,0.4346,0.6003,-0.0032,
10.129574,-0.2978,0.7713,0.6525,-0.7219,0.3148,0.1600,0.4346,0.6003,-0.0032,
10.131641,-0.2978,0.7713,0.6525,-0.7219,0.3148,0.1600,0.3696,0.3041,0.1246,
10.145558,-0.2978,0.7713,0.6525,-0.7219,0.3148,0.1600,0.5129,0.2557,0.0831,
10.164978,-0.1671,0.7837,0.8431,-0.7219,0.3148,0.1600,0.5129,0.2557,0.0831,
10.167771,-0.1671,0.7837,0.8431,0.5858,0.3288,2.1651,0.5129,0.2557,0.0831,
10.169259,-0.1671,0.7837,0.8431,0.5858,0.3288,2.1651,0.8245,0.4820,0.0490,
10.184695,-0.1671,0.7837,0.8431,0.5858,0.3288,2.1651,1.0791,0.6818,-0.1316,
10.204191,-0.0821,0.8841,0.6242,0.5858,0.3288,2.1651,1.0791,0.6818,-0.1316,
10.206761,-0.0821,0.8841,0.6242,1.5435,1.0912,0.3465,1.0791,0.6818,-0.1316,
10.208292,-0.0821,0.8841,0.6242,1.5435,1.0912,0.3465,1.3358,1.0264,-0.2647,
10.225348,-0.0821,0.8841,0.6242,1.5435,1.0912,0.3465,1.3710,1.6197,-0.4208,
10.244335,-0.2966,1.0156,0.4395,1.5435,1.0912,0.3465,1.3710,1.6197,-0.4208,
10.246962,-0.2966,1.0156,0.4395,-0.1731,2.1123,-0.9108,1.3710,1.6197,-0.4208,
10.248804,-0.2966,1.0156,0.4395,-0.1731,2.1123,-0.9108,1.1223,1.7007,-0.5172,
10.263947,-0.2966,1.0156,0.4395,-0.1731,2.1123,-0.9108,0.9518,1.2911,-0.5204,
10.284303,-0.4446,0.9017,0.4808,-0.1731,2.1123,-0.9108,0.9518,1.2911,-0.5204,
10.286615,-0.4446,0.9017,0.4808,-1.1657,0.8518,-0.0020,0.9518,1.2911,-0.5204,
10.288351,-0.4446,0.9017,0.4808,-1.1657,0.8518,-0.0020,0.9145,1.0322,-0.4330,
10.304232,-0.4446,0.9017,0.4808,-1.1657,0.8518,-0.0020,0.8932,0.9444,-0.2993,
10.325263,-0.3623,0.8084,0.4417,-1.1657,0.8518,-0.0020,0.8932,0.9444,-0.2993,
10.327620,-0.3623,0.8084,0.4417,-0.0718,-0.1761,0.0296,0.8932,0.9444,-0.2993,
10.329460,-0.3623,0.8084,0.4417,-0.0718,-0.1761,0.0296,0.7372,0.7963,-0.3073,
10.344415,-0.3623,0.8084,0.4417,-0.0718,-0.1761,0.0296,0.5236,0.6248,-0.3414,
10.364175,-0.4158,0.9208,0.3574,-0.0718,-0.1761,0.0296,0.5236,0.6248,-0.3414,
10.367856,-0.4158,0.9208,0.3574,-0.3773,0.8658,-0.4905,0.5236,0.6248,-0.3414,
10.369902,-0.4158,0.9208,0.3574,-0.3773,0.8658,-0.4905,0.3856,0.2748,-0.1843,
10.384106,-0.4158,0.9208,0.3574,-0.3773,0.8658,-0.4905,0.1886,0.1784,-0.0091,
10.404534,-0.2829,0.8477,0.2690,-0.3773,0.8658,-0.4905,0.1886,0.1784,-0.0091,
10.407705,-0.2829,0.8477,0.2690,0.9729,0.1050,-1.2182,0.1886,0.1784,-0.0091,
10.409544,-0.2829,0.8477,0.2690,0.9729,0.1050,-1.2182,0.0991,0.0959,-0.1097,
10.424271,-0.2829,0.8477,0.2690,0.9729,0.1050,-1.2182,0.0442,0.0735,0.1214,
10.444885,-0.3198,0.9110,0.4075,0.9729,0.1050,-1.2182,0.0442,0.0735,0.1214,
10.447065,-0.3198,0.9110,0.4075,0.6029,0.7022,0.1800,0.0442,0.0735,0.1214,
10.448739,-0.3198,0.9110,0.4075,0.6029,0.7022,0.1800,-0.0687,-0.0341,0.0682,
10.464315,-0.3198,0.9110,0.4075,0.6029,0.7022,0.1800,0.0549,-0.1140,0.0016,
10.484831,-0.4459,0.8407,0.3828,0.6029,0.7022,0.1800,0.0549,-0.1140,0.0016,
10.488300,-0.4459,0.8407,0.3828,-0.6569,0.0065,-0.0722,0.0549,-0.1140,0.0016,
10.490359,-0.4459,0.8407,0.3828,-0.6569,0.0065,-0.0722,0.2338,-0.3249,0.1598,
10.506788,-0.4459,0.8407,0.3828,-0.6569,0.0065,-0.0722,0.2152,-0.4218,0.2168,
10.525039,-0.3701,0.8367,0.4068,-0.6569,0.0065,-0.0722,0.2152,-0.4218,0.2168,
10.527411,-0.3701,0.8367,0.4068,-0.0334,-0.0934,0.1820,0.2152,-0.4218,0.2168,
10.529184,-0.3701,0.8367,0.4068,-0.0334,-0.0934,0.1820,0.0778,-0.4117,0.2189,
10.544192,-0.3701,0.8367,0.4068,-0.0334,-0.0934,0.1820,-0.0671,-0.5257,0.2860,
10.564661,-0.4324,0.9425,0.4459,-0.0334,-0.0934,0.1820,-0.0671,-0.5257,0.2860,
10.567128,-0.4324,0.9425,0.4459,-0.7965,0.9082,0.5014,-0.0671,-0.5257,0.2860,
10.568921,-0.4324,0.9425,0.4459,-0.7965,0.9082,0.5014,-0.1609,-0.6450,0.3276,
10.583870,-0.4324,0.9425,0.4459,-0.7965,0.9082,0.5014,-0.2961,-0.9071,0.2610,
10.604349,-0.4012,1.0065,0.3816,-0.7965,0.9082,0.5014,-0.2961,-0.9071,0.2610,
10.606559,-0.4012,1.0065,0.3816,-0.7103,1.5323,-0.3070,-0.2961,-0.9071,0.2610,
10.608468,-0.4012,1.0065,0.3816,-0.7103,1.5323,-0.3070,-0.4538,-1.2192,0.3712,
10.624313,-0.4012,1.0065,0.3816,-0.7103,1.5323,-0.3070,-0.7025,-1.3667,0.5044,
10.644224,-0.2634,0.8258,0.4488,-0.7103,1.5323,-0.3070,-0.7025,-1.3667,0.5044,
10.647830,-0.2634,0.8258,0.4488,0.2850,-0.1972,0.0119,-0.7025,-1.3667,0.5044,
10.649817,-0.2634,0.8258,0.4488,0.2850,-0.1972,0.0119,-1.1830,-1.7311,0.5470,
10.664009,-0.2634,0.8258,0.4488,0.2850,-0.1972,0.0119,-1.3912,-2.1055,0.6706,
10.683068,-0.1791,0.9806,0.5636,0.2850,-0.1972,0.0119,-1.3912,-2.1055,0.6706,
10.685445,-0.1791,0.9806,0.5636,0.5524,1.4969,0.5216,-1.3912,-2.1055,0.6706,
10.686943,-0.1791,0.9806,0.5636,0.5524,1.4969,0.5216,-1.3966,-2.0869,0.4629,
10.705386,-0.1791,0.9806,0.5636,0.5524,1.4969,0.5216,-1.3982,-1.7508,0.1699,
10.722926,-0.0535,0.6496,0.6867,0.5524,1.4969,0.5216,-1.3982,-1.7508,0.1699,
10.723921,-0.0535,0.6496,0.6867,1.2755,-1.4780,1.1266,-1.3982,-1.7508,0.1699,
10.724646,-0.0535,0.6496,0.6867,1.2755,-1.4780,1.1266,-1.3321,-1.3060,0.1140,
10.743779,-0.0535,0.6496,0.6867,1.2755,-1.4780,1.1266,-1.1675,-1.1931,0.1135,
10.763694,-0.0068,0.7986,0.5885,1.2755,-1.4780,1.1266,-1.1675,-1.1931,0.1135,
10.765884,-0.0068,0.7986,0.5885,1.3894,0.2520,-0.2883,-1.1675,-1.1931,0.1135,
10.767555,-0.0068,0.7986,0.5885,1.3894,0.2520,-0.2883,-0.5657,-0.4772,-0.0453,
10.784080,-0.0068,0.7986,0.5885,1.3894,0.2520,-0.2883,-0.1875,-0.4309,-0.2754,
10.803877,-0.1688,0.7420,0.5485,1.3894,0.2520,-0.2883,-0.1875,-0.4309,-0.2754,
10.807256,-0.1688,0.7420,0.5485,-0.2628,-0.2136,-0.8066,-0.1875,-0.4309,-0.2754,
10.809730,-0.1688,0.7420,0.5485,-0.2628,-0.2136,-0.8066,-0.0208,-0.1795,-0.2455,
10.823456,-0.1688,0.7420,0.5485,-0.2628,-0.2136,-0.8066,0.1007,0.1204,-0.1880,
10.843454,-0.1432,0.6721,0.3389,-0.2628,-0.2136,-0.8066,0.1007,0.1204,-0.1880,
10.847107,-0.1432,0.6721,0.3389,0.0460,-0.8960,-2.8505,0.1007,0.1204,-0.1880,
10.849419,-0.1432,0.6721,0.3389,0.0460,-0.8960,-2.8505,0.1241,0.1374,-0.1166,
10.863931,-0.1432,0.6721,0.3389,0.0460,-0.8960,-2.8505,0.0554,0.2503,-0.2051,
10.883513,-0.1434,0.5824,0.3718,0.0460,-0.8960,-2.8505,0.0554,0.2503,-0.2051,
10.888072,-0.1434,0.5824,0.3718,0.1392,-1.7871,-2.4888,0.0554,0.2503,-0.2051,
10.890068,-0.1434,0.5824,0.3718,0.1392,-1.7871,-2.4888,-0.2035,0.2168,-0.1246,
10.903863,-0.1434,0.5824,0.3718,0.1392,-1.7871,-2.4888,-0.2397,0.3143,-0.0927,
10.923230,-0.0985,0.5731,0.4097,0.1392,-1.7871,-2.4888,-0.2397,0.3143,-0.0927,
10.925421,-0.0985,0.5731,0.4097,0.6775,-1.8167,-2.1669,-0.2397,0.3143,-0.0927,
10.927296,-0.0985,0.5731,0.4097,0.6775,-1.8167,-2.1669,0.0181,0.6562,-0.1976,
10.943254,-0.0985,0.5731,0.4097,0.6775,-1.8167,-2.1669,0.3084,0.6615,-0.2482,
10.963675,-0.1986,0.6806,0.4696,0.6775,-1.8167,-2.1669,0.3084,0.6615,-0.2482,
10.966816,-0.1986,0.6806,0.4696,-0.0761,-0.7875,-1.4855,0.3084,0.6615,-0.2482,
10.968691,-0.1986,0.6806,0.4696,-0.0761,-0.7875,-1.4855,0.4842,0.5124,-0.1417,
10.984165,-0.1986,0.6806,0.4696,-0.0761,-0.7875,-1.4855,0.6109,0.7015,-0.0639,
11.003043,-0.2209,0.8556,0.6442,-0.0761,-0.7875,-1.4855,0.6109,0.7015,-0.0639,
11.006660,-0.2209,0.8556,0.6442,-0.1194,0.8015,0.4410,0.6109,0.7015,-0.0639,
11.008219,-0.2209,0.8556,0.6442,-0.1194,0.8015,0.4410,0.5076,0.7515,-0.2168,
11.022841,-0.2209,0.8556,0.6442,-0.1194,0.8015,0.4410,0.4160,0.5651,-0.2908,
11.044032,-0.2128,0.9665,0.8389,-0.1194,0.8015,0.4410,0.4160,0.5651,-0.2908,
11.047627,-0.2128,0.9665,0.8389,0.1856,1.8045,2.5445,0.4160,0.5651,-0.2908,
11.049679,-0.2128,0.9665,0.8389,0.1856,1.8045,2.5445,0.6876,0.6440,-0.3127,
11.062791,-0.2128,0.9665,0.8389,0.1856,1.8045,2.5445,1.0045,0.9385,-0.3670,
11.083083,-0.2394,1.0852,0.6494,0.1856,1.8045,2.5445,1.0045,0.9385,-0.3670,
11.085871,-0.2394,1.0852,0.6494,0.2039,2.8145,1.0246,1.0045,0.9385,-0.3670,
11.087720,-0.2394,1.0852,0.6494,0.2039,2.8145,1.0246,1.1398,1.1430,-0.4687,
11.103170,-0.2394,1.0852,0.6494,0.2039,2.8145,1.0246,1.0637,1.1004,-0.5625,
11.122723,-0.4251,0.9574,0.4945,0.2039,2.8145,1.0246,1.0637,1.1004,-0.5625,
11.125934,-0.4251,0.9574,0.4945,-1.2243,1.3945,-0.0227,1.0637,1.1004,-0.5625,
11.128313,-0.4251,0.9574,0.4945,-1.2243,1.3945,-0.0227,0.8948,1.0008,-0.5310,
11.142614,-0.4251,0.9574,0.4945,-1.2243,1.3945,-0.0227,0.8107,0.9428,-0.4107,
11.162853,-0.3552,0.6569,0.4459,-1.2243,1.3945,-0.0227,0.8107,0.9428,-0.4107,
11.165623,-0.3552,0.6569,0.4459,-0.2116,-1.6446,-0.1197,0.8107,0.9428,-0.4107,
11.167553,-0.3552,0.6569,0.4459,-0.2116,-1.6446,-0.1197,0.8107,0.9987,-0.2850,
11.183269,-0.3552,0.6569,0.4459,-0.2116,-1.6446,-0.1197,0.8623,0.9081,-0.2503,
11.202654,-0.2841,0.6982,0.1986,-0.2116,-1.6446,-0.1197,0.8623,0.9081,-0.2503,
11.205272,-0.2841,0.6982,0.1986,0.7349,-1.3471,-2.1416,0.8623,0.9081,-0.2503,
11.206749,-0.2841,0.6982,0.1986,0.7349,-1.3471,-2.1416,0.8432,0.6003,-0.1875,
11.223007,-0.2841,0.6982,0.1986,0.7349,-1.3471,-2.1416,0.5001,0.4389,-0.1704,
11.243162,-0.4063,0.9386,0.2536,0.7349,-1.3471,-2.1416,0.5001,0.4389,-0.1704,
11.245600,-0.4063,0.9386,0.2536,-0.3247,0.9214,-1.2947,0.5001,0.4389,-0.1704,
11.247514,-0.4063,0.9386,0.2536,-0.3247,0.9214,-1.2947,0.0842,0.2967,-0.1119,
11.262739,-0.4063,0.9386,0.2536,-0.3247,0.9214,-1.2947,-0.1641,0.0341,0.1401,
11.282892,-0.2626,0.9012,0.5152,-0.3247,0.9214,-1.2947,-0.1641,0.0341,0.1401,
11.285422,-0.2626,0.9012,0.5152,1.0801,0.5524,1.2726,-0.1641,0.0341,0.1401,
11.287108,-0.2626,0.9012,0.5152,1.0801,0.5524,1.2726,-0.1204,-0.0783,0.0804,
11.305843,-0.2626,0.9012,0.5152,1.0801,0.5524,1.2726,0.1337,0.0218,-0.1752,
11.322971,-0.6196,1.0254,0.4537,1.0801,0.5524,1.2726,0.1337,0.0218,-0.1752,
11.325830,-0.6196,1.0254,0.4537,-2.4064,1.7746,0.6673,0.1337,0.0218,-0.1752,
11.328661,-0.6196,1.0254,0.4537,-2.4064,1.7746,0.6673,0.1486,0.0064,-0.1550,
11.342760,-0.6196,1.0254,0.4537,-2.4064,1.7746,0.6673,0.0117,-0.3494,0.0868,
11.362867,-0.4549,0.8927,0.4529,-2.4064,1.7746,0.6673,0.0117,-0.3494,0.0868,
11.365117,-0.4549,0.8927,0.4529,-0.8073,0.4675,0.6615,0.0117,-0.3494,0.0868,
11.366835,-0.4549,0.8927,0.4529,-0.8073,0.4675,0.6615,0.0000,-0.5513,0.3388,
11.382592,-0.4549,0.8927,0.4529,-0.8073,0.4675,0.6615,-0.0410,-0.6605,0.3531,
11.403336,-0.3789,0.8846,0.3946,-0.8073,0.4675,0.6615,-0.0410,-0.6605,0.3531,
11.405880,-0.3789,0.8846,0.3946,-0.2671,0.3436,-0.0029,-0.0410,-0.6605,0.3531,
11.408435,-0.3789,0.8846,0.3946,-0.2671,0.3436,-0.0029,-0.2583,-0.8266,0.3680,
11.423532,-0.3789,0.8846,0.3946,-0.2671,0.3436,-0.0029,-0.6354,-1.1643,0.5603,
11.442019,-0.2062,0.8802,0.4532,-0.2671,0.3436,-0.0029,-0.6354,-1.1643,0.5603,
11.444347,-0.2062,0.8802,0.4532,1.1120,0.3107,0.2930,-0.6354,-1.1643,0.5603,
11.445991,-0.2062,0.8802,0.4532,1.1120,0.3107,0.2930,-0.9699,-1.5548,0.7041,
11.461972,-0.2062,0.8802,0.4532,1.1120,0.3107,0.2930,-1.1207,-1.8951,0.6578,
11.482596,-0.2240,0.8622,0.4681,1.1120,0.3107,0.2930,-1.1207,-1.8951,0.6578,
11.484656,-0.2240,0.8622,0.4681,0.4104,0.2340,-0.0916,-1.1207,-1.8951,0.6578,
11.486365,-0.2240,0.8622,0.4681,0.4104,0.2340,-0.0916,-1.2970,-1.9638,0.4810,
11.504412,-0.2240,0.8622,0.4681,0.4104,0.2340,-0.0916,-1.6219,-1.8104,0.3707,
11.522301,-0.1395,0.7187,0.5946,0.4104,0.2340,-0.0916,-1.6219,-1.8104,0.3707,
11.525176,-0.1395,0.7187,0.5946,0.7283,-0.9228,0.5064,-1.6219,-1.8104,0.3707,
11.527059,-0.1395,0.7187,0.5946,0.7283,-0.9228,0.5064,-1.7353,-1.4056,0.2503,
11.542702,-0.1395,0.7187,0.5946,0.7283,-0.9228,0.5064,-1.2943,-0.8970,-0.0772,
11.562263,-0.2414,0.8739,0.8284,0.7283,-0.9228,0.5064,-1.2943,-0.8970,-0.0772,
11.565160,-0.2414,0.8739,0.8284,-0.5534,0.9299,2.2360,-1.2943,-0.8970,-0.0772,
11.566911,-0.2414,0.8739,0.8284,-0.5534,0.9299,2.2360,-0.8671,-1.1500,-0.1752,
11.582042,-0.2414,0.8739,0.8284,-0.5534,0.9299,2.2360,-0.6903,-1.2970,0.0565,
11.602311,0.1791,0.5993,0.7432,-0.5534,0.9299,2.2360,-0.6903,-1.2970,0.0565,
11.605437,0.1791,0.5993,0.7432,3.2526,-1.5601,1.0641,-0.6903,-1.2970,0.0565,
11.607357,0.1791,0.5993,0.7432,3.2526,-1.5601,1.0641,-0.2610,-0.5715,0.0820,
11.623093,0.1791,0.5993,0.7432,3.2526,-1.5601,1.0641,0.2216,0.0868,-0.2344,
11.642407,-0.0987,0.7253,0.5042,3.2526,-1.5601,1.0641,0.2216,0.0868,-0.2344,
11.644857,-0.0987,0.7253,0.5042,0.4775,-0.3178,-1.2982,0.2216,0.0868,-0.2344,
11.646926,-0.0987,0.7253,0.5042,0.4775,-0.3178,-1.2982,0.4858,0.7974,-0.5337,
11.662871,-0.0987,0.7253,0.5042,0.4775,-0.3178,-1.2982,0.5225,0.9486,-0.4735,
11.682370,-0.4610,0.5492,0.1165,0.4775,-0.3178,-1.2982,0.5225,0.9486,-0.4735,
11.684873,-0.4610,0.5492,0.1165,-2.7092,-2.1349,-4.8906,0.5225,0.9486,-0.4735,
11.686967,-0.4610,0.5492,0.1165,-2.7092,-2.1349,-4.8906,0.2716,0.6077,-0.0756,
11.705542,-0.4610,0.5492,0.1165,-2.7092,-2.1349,-4.8906,0.0959,0.5156,0.0181,
11.722444,-0.2257,0.5231,0.3078,-2.7092,-2.1349,-4.8906,0.0959,0.5156,0.0181,
11.725913,-0.2257,0.5231,0.3078,-0.2608,-2.4330,-2.9183,0.0959,0.5156,0.0181,
11.727976,-0.2257,0.5231,0.3078,-0.2608,-2.4330,-2.9183,0.0783,0.4160,-0.0181,
11.741650,-0.2257,0.5231,0.3078,-0.2608,-2.4330,-2.9183,0.0506,0.1039,0.1411,
11.762167,-0.1505,0.6166,0.4715,-0.2608,-2.4330,-2.9183,0.0506,0.1039,0.1411,
11.765997,-0.1505,0.6166,0.4715,0.5194,-1.5361,-1.2742,0.0506,0.1039,0.1411,
11.768132,-0.1505,0.6166,0.4715,0.5194,-1.5361,-1.2742,-0.0240,-0.0618,0.2487,
11.782032,-0.1505,0.6166,0.4715,0.5194,-1.5361,-1.2742,0.0154,-0.0522,0.3073,
11.802636,-0.0191,0.7974,0.7977,0.5194,-1.5361,-1.2742,0.0154,-0.0522,0.3073,
11.804788,-0.0191,0.7974,0.7977,1.7088,0.2152,1.9158,0.0154,-0.0522,0.3073,
11.806425,-0.0191,0.7974,0.7977,1.7088,0.2152,1.9158,0.1784,0.0959,0.2658,
11.822043,-0.0191,0.7974,0.7977,1.7088,0.2152,1.9158,0.4384,0.5454,0.0921,
11.841880,-0.0752,1.0341,0.8849,1.7088,0.2152,1.9158,0.4384,0.5454,0.0921,
11.844039,-0.0752,1.0341,0.8849,1.1783,2.4498,2.8888,0.4384,0.5454,0.0921,
11.845670,-0.0752,1.0341,0.8849,1.1783,2.4498,2.8888,0.7169,1.0924,-0.1928,
11.861769,-0.0752,1.0341,0.8849,1.1783,2.4498,2.8888,0.9092,1.3065,-0.5039,
11.882258,-0.2678,0.8477,0.6787,1.1783,2.4498,2.8888,0.9092,1.3065,-0.5039,
11.885516,-0.2678,0.8477,0.6787,-0.3313,0.4705,1.2207,0.9092,1.3065,-0.5039,
11.887888,-0.2678,0.8477,0.6787,-0.3313,0.4705,1.2207,1.0749,1.3534,-0.5582,
11.906827,-0.2678,0.8477,0.6787,-0.3313,0.4705,1.2207,1.2288,1.4919,-0.5641,
11.921300,-0.2778,0.6635,0.3941,-0.3313,0.4705,1.2207,1.2288,1.4919,-0.5641,
11.923628,-0.2778,0.6635,0.3941,0.0253,-1.5073,-1.0840,1.2288,1.4919,-0.5641,
11.925272,-0.2778,0.6635,0.3941,0.0253,-1.5073,-1.0840,1.2868,1.6144,-0.6205,
11.941885,-0.2778,0.6635,0.3941,0.0253,-1.5073,-1.0840,1.1675,1.4701,-0.7382,
11.961304,-0.5600,0.9039,0.3369,0.0253,-1.5073,-1.0840,1.1675,1.4701,-0.7382,
11.964130,-0.5600,0.9039,0.3369,-2.2243,0.7084,-1.0683,1.1675,1.4701,-0.7382,
11.965756,-0.5600,0.9039,0.3369,-2.2243,0.7084,-1.0683,0.8740,1.2149,-0.8053,
11.982030,-0.5600,0.9039,0.3369,-2.2243,0.7084,-1.0683,0.5683,0.8559,-0.4740,
12.001455,-0.5778,0.9032,0.4886,-2.2243,0.7084,-1.0683,0.5683,0.8559,-0.4740,
12.005058,-0.5778,0.9032,0.4886,-2.0138,0.6717,0.7944,0.5683,0.8559,-0.4740,
12.006684,-0.5778,0.9032,0.4886,-2.0138,0.6717,0.7944,0.2269,0.4623,0.1113,
12.021558,-0.5778,0.9032,0.4886,-2.0138,0.6717,0.7944,0.1369,0.0495,0.2695,
12.042035,-0.2260,0.9220,0.5228,-2.0138,0.6717,0.7944,0.1369,0.0495,0.2695,
12.045678,-0.2260,0.9220,0.5228,1.4082,0.8010,1.2204,0.1369,0.0495,0.2695,
12.047886,-0.2260,0.9220,0.5228,1.4082,0.8010,1.2204,0.1965,-0.1321,0.2168,
12.061212,-0.2260,0.9220,0.5228,1.4082,0.8010,1.2204,0.1550,0.1475,0.1651,
12.081610,-0.4737,0.8797,0.4402,1.4082,0.8010,1.2204,0.1550,0.1475,0.1651,
12.083732,-0.4737,0.8797,0.4402,-1.0803,0.3343,0.4667,0.1550,0.1475,0.1651,
12.085495,-0.4737,0.8797,0.4402,-1.0803,0.3343,0.4667,0.1475,0.1065,0.2333,
12.101751,-0.4737,0.8797,0.4402,-1.0803,0.3343,0.4667,0.2029,-0.1598,0.3840,
12.121362,-0.3418,0.6833,0.3865,-1.0803,0.3343,0.4667,0.2029,-0.1598,0.3840,
12.124120,-0.3418,0.6833,0.3865,0.1170,-1.6476,-0.0240,0.2029,-0.1598,0.3840,
12.125826,-0.3418,0.6833,0.3865,0.1170,-1.6476,-0.0240,0.1523,-0.1646,0.4501,
12.141247,-0.3418,0.6833,0.3865,0.1170,-1.6476,-0.0240,0.0591,-0.0991,0.3952,
12.160985,-0.4806,0.7813,0.4168,0.1170,-1.6476,-0.0240,0.0591,-0.0991,0.3952,
12.162230,-0.4806,0.7813,0.4168,-1.3714,-0.7401,0.2737,0.0591,-0.0991,0.3952,
12.163129,-0.4806,0.7813,0.4168,-1.3714,-0.7401,0.2737,0.0112,-0.1225,0.5028,
12.181483,-0.4806,0.7813,0.4168,-1.3714,-0.7401,0.2737,-0.0096,-0.2658,0.6104,
12.201716,-0.3125,0.6381,0.3017,-1.3714,-0.7401,0.2737,-0.0096,-0.2658,0.6104,
12.204214,-0.3125,0.6381,0.3017,0.0586,-2.2151,-0.8787,-0.0096,-0.2658,0.6104,
12.206025,-0.3125,0.6381,0.3017,0.0586,-2.2151,-0.8787,-0.0479,-0.4506,0.6301,
12.221992,-0.3125,0.6381,0.3017,0.0586,-2.2151,-0.8787,-0.0666,-0.3904,0.7350,
12.241781,-0.5502,0.9533,0.3389,0.0586,-2.2151,-0.8787,-0.0666,-0.3904,0.7350,
12.244218,-0.5502,0.9533,0.3389,-2.5055,0.8160,-0.5709,-0.0666,-0.3904,0.7350,
12.245952,-0.5502,0.9533,0.3389,-2.5055,0.8160,-0.5709,-0.7244,-0.6583,0.7984,
12.261212,-0.5502,0.9533,0.3389,-2.5055,0.8160,-0.5709,-1.4312,-2.0235,1.2144,
12.281370,-0.2008,0.8939,0.7933,-2.5055,0.8160,-0.5709,-1.4312,-2.0235,1.2144,
12.283809,-0.2008,0.8939,0.7933,0.3641,0.3141,3.3703,-1.4312,-2.0235,1.2144,
12.285475,-0.2008,0.8939,0.7933,0.3641,0.3141,3.3703,-1.5675,-2.8933,1.5452,
12.301164,-0.2008,0.8939,0.7933,0.3641,0.3141,3.3703,-1.4701,-2.8208,1.2133,
12.320812,0.1520,0.9110,0.6894,0.3641,0.3141,3.3703,-1.4701,-2.8208,1.2133,
12.323641,0.1520,0.9110,0.6894,2.8153,0.6714,1.6339,-1.4701,-2.8208,1.2133,
12.325558,0.1520,0.9110,0.6894,2.8153,0.6714,1.6339,-1.3145,-1.7934,0.5593,
12.341378,0.1520,0.9110,0.6894,2.8153,0.6714,1.6339,-1.2607,-1.0690,0.2541,
12.360739,-0.1143,0.9762,0.8680,2.8153,0.6714,1.6339,-1.2607,-1.0690,0.2541,
12.363150,-0.1143,0.9762,0.8680,-0.2323,1.5687,2.9026,-1.2607,-1.0690,0.2541,
12.364515,-0.1143,0.9762,0.8680,-0.2323,1.5687,2.9026,-1.2139,-0.6226,0.0937,
12.381478,-0.1143,0.9762,0.8680,-0.2323,1.5687,2.9026,-1.0988,-0.5795,0.1470,
12.401382,0.2135,0.3352,0.8233,-0.2323,1.5687,2.9026,-1.0988,-0.5795,0.1470,
12.404818,0.2135,0.3352,0.8233,2.7729,-4.4120,2.0297,-1.0988,-0.5795,0.1470,
12.406725,0.2135,0.3352,0.8233,2.7729,-4.4120,2.0297,-0.7036,-0.7196,0.2333,
12.421073,0.2135,0.3352,0.8233,2.7729,-4.4120,2.0297,-0.1614,-0.4447,0.1630,
12.441073,0.1766,0.5282,0.4019,2.7729,-4.4120,2.0297,-0.1614,-0.4447,0.1630,
12.443401,0.1766,0.5282,0.4019,2.2087,-2.4196,-2.2458,-0.1614,-0.4447,0.1630,
12.444927,0.1766,0.5282,0.4019,2.2087,-2.4196,-2.2458,0.3718,0.8165,-0.1997,
12.460771,0.1766,0.5282,0.4019,2.2087,-2.4196,-2.2458,0.4922,1.4727,-0.5172,
12.481053,-0.3955,0.4781,0.1236,2.2087,-2.4196,-2.2458,0.4922,1.4727,-0.5172,
12.484578,-0.3955,0.4781,0.1236,-3.0101,-3.0060,-4.8103,0.4922,1.4727,-0.5172,
12.486688,-0.3955,0.4781,0.1236,-3.0101,-3.0060,-4.8103,0.3894,1.5681,-0.2706,
12.501176,-0.3955,0.4781,0.1236,-3.0101,-3.0060,-4.8103,0.3036,1.5915,0.0021,
12.520893,-0.1053,0.2660,0.0748,-3.0101,-3.0060,-4.8103,0.3036,1.5915,0.0021,
12.524398,-0.1053,0.2660,0.0748,0.2499,-5.1611,-5.1137,0.3036,1.5915,0.0021,
12.526398,-0.1053,0.2660,0.0748,0.2499,-5.1611,-5.1137,0.1688,1.4866,-0.0804,
12.541732,-0.1053,0.2660,0.0748,0.2499,-5.1611,-5.1137,0.1529,1.3848,-0.0655,
12.561331,-0.3218,0.6547,0.1417,0.2499,-5.1611,-5.1137,0.1529,1.3848,-0.0655,
12.563842,-0.3218,0.6547,0.1417,-1.5143,-1.3851,-4.3228,0.1529,1.3848,-0.0655,
12.565834,-0.3218,0.6547,0.1417,-1.5143,-1.3851,-4.3228,0.1491,1.5303,-0.0234,
12.581108,-0.3218,0.6547,0.1417,-1.5143,-1.3851,-4.3228,0.0549,1.3279,0.0117,
12.601168,-0.5001,1.0901,0.6423,-1.5143,-1.3851,-4.3228,0.0549,1.3279,0.0117,
12.603758,-0.5001,1.0901,0.6423,-2.1668,2.6553,1.3697,0.0549,1.3279,0.0117,
12.605596,-0.5001,1.0901,0.6423,-2.1668,2.6553,1.3697,-0.0128,0.9257,0.0804,
12.622021,-0.5001,1.0901,0.6423,-2.1668,2.6553,1.3697,-0.3377,0.4208,-0.0676,
12.640810,-0.5749,1.3322,1.4663,-2.1668,2.6553,1.3697,-0.3377,0.4208,-0.0676,
12.644099,-0.5749,1.3322,1.4663,-2.7698,5.0616,9.4644,-0.3377,0.4208,-0.0676,
12.645755,-0.5749,1.3322,1.4663,-2.7698,5.0616,9.4644,-0.5784,0.1598,-0.2328,
12.661066,-0.5749,1.3322,1.4663,-2.7698,5.0616,9.4644,0.0559,0.3206,-0.0751,
12.680963,-0.1170,0.8785,1.3259,-2.7698,5.0616,9.4644,0.0559,0.3206,-0.0751,
12.683799,-0.1170,0.8785,1.3259,1.8135,0.6849,8.0328,0.0559,0.3206,-0.0751,
12.685769,-0.1170,0.8785,1.3259,1.8135,0.6849,8.0328,0.9454,0.5630,0.0597,
12.701479,-0.1170,0.8785,1.3259,1.8135,0.6849,8.0328,1.3907,1.0733,0.0948,
12.720516,-0.0545,0.7842,0.5138,1.8135,0.6849,8.0328,1.3907,1.0733,0.0948,
12.722346,-0.0545,0.7842,0.5138,2.5555,-0.4690,0.5481,1.3907,1.0733,0.0948,
12.723574,-0.0545,0.7842,0.5138,2.5555,-0.4690,0.5481,1.2517,1.6687,-0.0629,
12.740815,-0.0545,0.7842,0.5138,2.5555,-0.4690,0.5481,0.9902,2.0458,-0.2258,
12.760847,-0.2863,0.6139,0.2558,2.5555,-0.4690,0.5481,0.9902,2.0458,-0.2258,
12.764294,-0.2863,0.6139,0.2558,0.6030,-2.2887,-1.4392,0.9902,2.0458,-0.2258,
12.766291,-0.2863,0.6139,0.2558,0.6030,-2.2887,-1.4392,0.9060,2.1380,-0.2748,
12.780784,-0.2863,0.6139,0.2558,0.6030,-2.2887,-1.4392,0.7952,2.2493,-0.2802,
12.801293,-0.4774,0.5397,0.1151,0.6030,-2.2887,-1.4392,0.7952,2.2493,-0.2802,
12.806091,-0.4774,0.5397,0.1151,-0.8576,-3.1006,-2.2175,0.7952,2.2493,-0.2802,
12.808334,-0.4774,0.5397,0.1151,-0.8576,-3.1006,-2.2175,0.5859,1.9116,-0.1774,
12.821905,-0.4774,0.5397,0.1151,-0.8576,-3.1006,-2.2175,0.1981,1.4200,0.2993,
12.840739,-0.2573,0.6222,0.2038,-0.8576,-3.1006,-2.2175,0.1981,1.4200,0.2993,
12.844496,-0.2573,0.6222,0.2038,1.4876,-2.3511,-0.9550,0.1981,1.4200,0.2993,
12.846732,-0.2573,0.6222,0.2038,1.4876,-2.3511,-0.9550,-0.5241,1.1079,0.3995,
12.860989,-0.2573,0.6222,0.2038,1.4876,-2.3511,-0.9550,-0.5177,0.3308,0.1949,
12.880911,-0.2626,0.7881,0.3950,1.4876,-2.3511,-0.9550,-0.5177,0.3308,0.1949,
12.883308,-0.2626,0.7881,0.3950,1.4196,-0.7112,0.8589,-0.5177,0.3308,0.1949,
12.885073,-0.2626,0.7881,0.3950,1.4196,-0.7112,0.8589,-0.1896,0.0852,0.3404,
12.899973,-0.2626,0.7881,0.3950,1.4196,-0.7112,0.8589,-0.3015,0.1411,0.1976,
12.920145,-0.6010,1.0556,0.6105,1.4196,-0.7112,0.8589,-0.3015,0.1411,0.1976,
12.922594,-0.6010,1.0556,0.6105,-1.9730,1.9051,2.8861,-0.3015,0.1411,0.1976,
12.924156,-0.6010,1.0556,0.6105,-1.9730,1.9051,2.8861,-0.1049,-0.0629,0.0320,
12.941272,-0.6010,1.0556,0.6105,-1.9730,1.9051,2.8861,-0.0863,-0.6205,0.2924,
12.961036,-0.7713,1.3288,0.7962,-1.9730,1.9051,2.8861,-0.0863,-0.6205,0.2924,
12.963486,-0.7713,1.3288,0.7962,-3.7394,4.5687,4.6207,-0.0863,-0.6205,0.2924,
12.965215,-0.7713,1.3288,0.7962,-3.7394,4.5687,4.6207,-0.3526,-1.0434,0.6088,
12.980304,-0.7713,1.3288,0.7962,-3.7394,4.5687,4.6207,-0.3925,-1.2970,0.7638,
13.001398,-0.2216,0.8109,0.7813,-3.7394,4.5687,4.6207,-0.3925,-1.2970,0.7638,
13.004469,-0.2216,0.8109,0.7813,1.2594,-0.5569,4.1790,-0.3925,-1.2970,0.7638,
13.006202,-0.2216,0.8109,0.7813,1.2594,-0.5569,4.1790,-0.3989,-1.2868,0.8346,
13.021092,-0.2216,0.8109,0.7813,1.2594,-0.5569,4.1790,-0.3372,-1.2655,0.7531,
13.040834,0.0015,0.9523,0.3755,1.2594,-0.5569,4.1790,-0.3372,-1.2655,0.7531,
13.042838,0.0015,0.9523,0.3755,2.9900,0.7809,-0.0863,-0.3372,-1.2655,0.7531,
13.044495,0.0015,0.9523,0.3755,2.9900,0.7809,-0.0863,-0.4005,-1.1851,0.5587,
13.060782,0.0015,0.9523,0.3755,2.9900,0.7809,-0.0863,-0.8538,-1.0445,0.3302,
13.079789,0.0027,0.3784,0.3100,2.9900,0.7809,-0.0863,-0.8538,-1.0445,0.3302,
13.081831,0.0027,0.3784,0.3100,2.6760,-4.7942,-1.0668,-0.8538,-1.0445,0.3302,
13.083960,0.0027,0.3784,0.3100,2.6760,-4.7942,-1.0668,-1.5212,-1.1382,0.2541,
13.100433,0.0027,0.3784,0.3100,2.6760,-4.7942,-1.0668,-2.0075,-1.4504,0.2935,
13.121063,-0.1251,0.8553,0.3689,2.6760,-4.7942,-1.0668,-2.0075,-1.4504,0.2935,
13.123871,-0.1251,0.8553,0.3689,1.1018,0.1666,-1.2074,-2.0075,-1.4504,0.2935,
13.125851,-0.1251,0.8553,0.3689,1.1018,0.1666,-1.2074,-1.8647,-0.8197,0.0053,
13.140994,-0.1251,0.8553,0.3689,1.1018,0.1666,-1.2074,-1.1755,0.0810,-0.5811,
13.160784,-0.5465,1.0578,0.8460,1.1018,0.1666,-1.2074,-1.1755,0.0810,-0.5811,
13.163162,-0.5465,1.0578,0.8460,-3.0101,2.4872,2.9453,-1.1755,0.0810,-0.5811,
13.164894,-0.5465,1.0578,0.8460,-3.0101,2.4872,2.9453,-0.9539,-0.9763,-0.7899,
13.180763,-0.5465,1.0578,0.8460,-3.0101,2.4872,2.9453,-0.7702,-1.1771,-0.4485,
13.200782,0.1224,0.4857,0.8358,-3.0101,2.4872,2.9453,-0.7702,-1.1771,-0.4485,
13.203184,0.1224,0.4857,0.8358,3.4605,-2.8518,2.4353,-0.7702,-1.1771,-0.4485,
13.204976,0.1224,0.4857,0.8358,3.4605,-2.8518,2.4353,-0.3217,-0.5800,-0.1044,
13.220811,0.1224,0.4857,0.8358,3.4605,-2.8518,2.4353,-0.0810,0.0629,-0.1039,
13.240360,-0.0217,0.8314,0.5299,3.4605,-2.8518,2.4353,-0.0810,0.0629,-0.1039,
13.242600,-0.0217,0.8314,0.5299,1.9666,0.5884,-0.6618,-0.0810,0.0629,-0.1039,
13.244309,-0.0217,0.8314,0.5299,1.9666,0.5884,-0.6618,0.0085,0.5571,-0.2322,
13.260049,-0.0217,0.8314,0.5299,1.9666,0.5884,-0.6618,-0.0980,0.7398,-0.2381,
13.280522,0.0042,0.6728,0.4378,1.9666,0.5884,-0.6618,-0.0980,0.7398,-0.2381,
13.282774,0.0042,0.6728,0.4378,2.4351,-0.9353,-1.5193,-0.0980,0.7398,-0.2381,
13.284637,0.0042,0.6728,0.4378,2.4351,-0.9353,-1.5193,-0.3404,0.6844,-0.2423,
13.300283,0.0042,0.6728,0.4378,2.4351,-0.9353,-1.5193,-0.3633,0.5587,-0.4021,
13.320295,-0.0247,0.3430,0.2998,2.4351,-0.9353,-1.5193,-0.3633,0.5587,-0.4021,
13.322613,-0.0247,0.3430,0.2998,2.3934,-4.0530,-2.9148,-0.3633,0.5587,-0.4021,
13.324509,-0.0247,0.3430,0.2998,2.3934,-4.0530,-2.9148,-0.1672,0.6370,-0.4671,
13.339667,-0.0247,0.3430,0.2998,2.3934,-4.0530,-2.9148,0.3180,1.1585,-0.5822,
13.359816,-0.2800,0.5512,0.3674,2.3934,-4.0530,-2.9148,0.3180,1.1585,-0.5822,
13.362779,-0.2800,0.5512,0.3674,0.2545,-1.9716,-2.1281,0.3180,1.1585,-0.5822,
13.364927,-0.2800,0.5512,0.3674,0.2545,-1.9716,-2.1281,0.6258,1.5164,-0.7894,
13.380994,-0.2800,0.5512,0.3674,0.2545,-1.9716,-2.1281,0.5710,1.1052,-0.6045,
13.401528,-0.3518,0.6775,0.5492,0.2545,-1.9716,-2.1281,0.5710,1.1052,-0.6045,
13.403727,-0.3518,0.6775,0.5492,0.0473,-0.7760,-0.0004,0.5710,1.1052,-0.6045,
13.405710,-0.3518,0.6775,0.5492,0.0473,-0.7760,-0.0004,0.5124,0.7499,-0.3878,
13.419954,-0.3518,0.6775,0.5492,0.0473,-0.7760,-0.0004,0.5321,0.7942,-0.5699,
13.440529,-0.5272,1.1719,0.7097,0.0473,-0.7760,-0.0004,0.5321,0.7942,-0.5699,
13.442887,-0.5272,1.1719,0.7097,-1.3708,4.0288,1.8398,0.5321,0.7942,-0.5699,
13.444660,-0.5272,1.1719,0.7097,-1.3708,4.0288,1.8398,0.5848,0.6040,-0.6802,
13.459851,-0.5272,1.1719,0.7097,-1.3708,4.0288,1.8398,0.7079,0.3595,-0.4341,
13.479744,-0.2907,1.0762,0.9132,-1.3708,4.0288,1.8398,0.7079,0.3595,-0.4341,
13.481874,-0.2907,1.0762,0.9132,1.2093,3.0493,4.1026,0.7079,0.3595,-0.4341,
13.483620,-0.2907,1.0762,0.9132,1.2093,3.0493,4.1026,0.9587,0.3750,-0.2312,
13.499789,-0.2907,1.0762,0.9132,1.2093,3.0493,4.1026,1.2224,0.6354,-0.2929,
13.519904,-0.2358,1.0561,0.6601,1.2093,3.0493,4.1026,1.2224,0.6354,-0.2929,
13.521925,-0.2358,1.0561,0.6601,1.9207,2.6941,2.0360,1.2224,0.6354,-0.2929,
13.523664,-0.2358,1.0561,0.6601,1.9207,2.6941,2.0360,1.2501,0.8112,-0.4874,
13.540438,-0.2358,1.0561,0.6601,1.9207,2.6941,2.0360,1.1159,0.8027,-0.5012,
13.559769,-0.3555,0.7190,0.1852,1.9207,2.6941,2.0360,1.1159,0.8027,-0.5012,
13.562020,-0.3555,0.7190,0.1852,1.0021,-0.7335,-2.1256,1.1159,0.8027,-0.5012,
13.564042,-0.3555,0.7190,0.1852,1.0021,-0.7335,-2.1256,0.8645,0.9220,-0.2999,
13.580555,-0.3555,0.7190,0.1852,1.0021,-0.7335,-2.1256,0.4133,0.9294,-0.3382,
13.599828,-0.4043,0.7813,0.1207,1.0021,-0.7335,-2.1256,0.4133,0.9294,-0.3382,
13.602151,-0.4043,0.7813,0.1207,0.7342,-0.1795,-2.3819,0.4133,0.9294,-0.3382,
13.604035,-0.4043,0.7813,0.1207,0.7342,-0.1795,-2.3819,0.1033,0.4352,-0.2615,
13.620273,-0.4043,0.7813,0.1207,0.7342,-0.1795,-2.3819,-0.1353,-0.1198,0.0900,
13.639691,-0.0738,0.9135,0.2511,0.7342,-0.1795,-2.3819,-0.1353,-0.1198,0.0900,
13.642183,-0.0738,0.9135,0.2511,3.9871,1.1098,-1.0723,-0.1353,-0.1198,0.0900,
13.644040,-0.0738,0.9135,0.2511,3.9871,1.1098,-1.0723,-0.3414,-0.2764,0.0980,
13.659268,-0.0738,0.9135,0.2511,3.9871,1.1098,-1.0723,-0.3510,-0.5268,-0.1214,
13.679860,-0.4109,0.9059,0.6157,3.9871,1.1098,-1.0723,-0.3510,-0.5268,-0.1214,
13.682657,-0.4109,0.9059,0.6157,0.5835,1.0669,2.3044,-0.3510,-0.5268,-0.1214,
13.684269,-0.4109,0.9059,0.6157,0.5835,1.0669,2.3044,-0.0165,-0.7121,-0.2173,
13.699057,-0.4109,0.9059,0.6157,0.5835,1.0669,2.3044,0.3020,-0.8000,-0.1188,
13.720493,-0.5025,0.8790,0.4305,0.5835,1.0669,2.3044,0.3020,-0.8000,-0.1188,
13.725467,-0.5025,0.8790,0.4305,-0.3916,0.8054,0.3923,0.3020,-0.8000,-0.1188,
13.727308,-0.5025,0.8790,0.4305,-0.3916,0.8054,0.3923,0.2605,-1.1073,0.0618,
13.740158,-0.5025,0.8790,0.4305,-0.3916,0.8054,0.3923,0.0506,-1.2197,0.2482,
13.759949,-0.4029,0.8311,0.5177,-0.3916,0.8054,0.3923,0.0506,-1.2197,0.2482,
13.763679,-0.4029,0.8311,0.5177,0.3449,0.2823,1.0835,0.0506,-1.2197,0.2482,
13.765572,-0.4029,0.8311,0.5177,0.3449,0.2823,1.0835,-0.1667,-1.3018,0.2786,
13.779218,-0.4029,0.8311,0.5177,0.3449,0.2823,1.0835,-0.2205,-1.7561,0.1465,
13.799523,-0.4253,1.1026,0.3655,0.3449,0.2823,1.0835,-0.2205,-1.7561,0.1465,
13.802671,-0.4253,1.1026,0.3655,-0.1955,2.9390,-0.7209,-0.2205,-1.7561,0.1465,
13.805774,-0.4253,1.1026,0.3655,-0.1955,2.9390,-0.7209,-0.1465,-1.8285,0.1166,
13.821707,-0.4253,1.1026,0.3655,-0.1955,2.9390,-0.7209,-0.6381,-1.6693,0.2083,
13.839060,-0.2563,1.0598,0.4969,-0.1955,2.9390,-0.7209,-0.6381,-1.6693,0.2083,
13.841662,-0.2563,1.0598,0.4969,1.0976,2.5668,0.1790,-0.6381,-1.6693,0.2083,
13.843362,-0.2563,1.0598,0.4969,1.0976,2.5668,0.1790,-1.1510,-1.9936,0.2487,
13.858935,-0.2563,1.0598,0.4969,1.0976,2.5668,0.1790,-1.3225,-2.1534,0.1411,
13.878867,-0.0638,0.8047,0.4955,1.0976,2.5668,0.1790,-1.3225,-2.1534,0.1411,
13.881071,-0.0638,0.8047,0.4955,2.4904,0.2709,-0.4801,-1.3225,-2.1534,0.1411,
13.882386,-0.0638,0.8047,0.4955,2.4904,0.2709,-0.4801,-1.4940,-1.5702,-0.1891,
13.899305,-0.0638,0.8047,0.4955,2.4904,0.2709,-0.4801,-1.7002,-1.3721,-0.3590,
13.919672,-0.1004,0.7959,0.7923,2.4904,0.2709,-0.4801,-1.7002,-1.3721,-0.3590,
13.923659,-0.1004,0.7959,0.7923,1.8663,0.5700,1.7837,-1.7002,-1.3721,-0.3590,
13.925331,-0.1004,0.7959,0.7923,1.8663,0.5700,1.7837,-1.5825,-1.5553,-0.4554,
13.939565,-0.1004,0.7959,0.7923,1.8663,0.5700,1.7837,-0.9502,-1.4663,-0.5694,
13.960142,-0.1002,0.8262,0.7559,1.8663,0.5700,1.7837,-0.9502,-1.4663,-0.5694,
13.962396,-0.1002,0.8262,0.7559,1.6298,1.2351,0.9067,-0.9502,-1.4663,-0.5694,
13.964147,-0.1002,0.8262,0.7559,1.6298,1.2351,0.9067,-0.0538,-1.1340,-0.5742,
13.980022,-0.1002,0.8262,0.7559,1.6298,1.2351,0.9067,0.3734,-0.7132,-0.6370,
13.999309,0.0071,0.3726,0.2370,1.6298,1.2351,0.9067,0.3734,-0.7132,-0.6370,
14.002969,0.0071,0.3726,0.2370,2.6048,-3.1909,-4.2296,0.3734,-0.7132,-0.6370,
14.004926,0.0071,0.3726,0.2370,2.6048,-3.1909,-4.2296,0.1326,0.0575,-0.5726,
14.020284,0.0071,0.3726,0.2370,2.6048,-3.1909,-4.2296,0.0655,0.3063,-0.4698,
14.039027,-0.2309,0.5472,0.1932,2.6048,-3.1909,-4.2296,0.0655,0.3063,-0.4698,
14.041298,-0.2309,0.5472,0.1932,0.4624,-1.4504,-4.6118,0.0655,0.3063,-0.4698,
14.043212,-0.2309,0.5472,0.1932,0.4624,-1.4504,-4.6118,0.0149,0.1076,-0.3830,
14.059345,-0.2309,0.5472,0.1932,0.4624,-1.4504,-4.6118,-0.0272,0.2338,-0.3574,
14.079039,-0.1884,0.7131,0.4263,0.4624,-1.4504,-4.6118,-0.0272,0.2338,-0.3574,
14.082409,-0.1884,0.7131,0.4263,1.0238,0.2182,-2.3102,-0.0272,0.2338,-0.3574,
14.084357,-0.1884,0.7131,0.4263,1.0238,0.2182,-2.3102,0.1486,0.2029,-0.5678,
14.098640,-0.1884,0.7131,0.4263,1.0238,0.2182,-2.3102,0.3675,0.3579,-0.6850,
14.118957,-0.2795,0.8426,0.5553,1.0238,0.2182,-2.3102,0.3675,0.3579,-0.6850,
14.121704,-0.2795,0.8426,0.5553,0.3721,1.4955,-0.9428,0.3675,0.3579,-0.6850,
14.123598,-0.2795,0.8426,0.5553,0.3721,1.4955,-0.9428,0.5113,0.1486,-0.6764,
14.140109,-0.2795,0.8426,0.5553,0.3721,1.4955,-0.9428,0.7063,-0.0234,-0.4900,
14.159854,-0.1901,0.7793,0.6806,0.3721,1.4955,-0.9428,0.7063,-0.0234,-0.4900,
14.161958,-0.1901,0.7793,0.6806,1.3962,0.7752,0.4687,0.7063,-0.0234,-0.4900,
14.163740,-0.1901,0.7793,0.6806,1.3962,0.7752,0.4687,0.7404,0.0746,-0.4517,
14.178899,-0.1901,0.7793,0.6806,1.3962,0.7752,0.4687,0.8671,0.4794,-0.5316,
14.198802,-0.4126,1.0144,0.6894,1.3962,0.7752,0.4687,0.8671,0.4794,-0.5316,
14.200858,-0.4126,1.0144,0.6894,-0.5824,2.9488,0.8149,0.8671,0.4794,-0.5316,
14.202719,-0.4126,1.0144,0.6894,-0.5824,2.9488,0.8149,1.0551,0.8778,-0.5044,
14.219578,-0.4126,1.0144,0.6894,-0.5824,2.9488,0.8149,1.2160,1.0312,-0.4453,
14.239003,-0.3809,0.7850,0.5968,-0.5824,2.9488,0.8149,1.2160,1.0312,-0.4453,
14.241296,-0.3809,0.7850,0.5968,0.0744,0.5071,0.3676,1.2160,1.0312,-0.4453,
14.242981,-0.3809,0.7850,0.5968,0.0744,0.5071,0.3676,1.3694,1.0269,-0.2264,
14.258265,-0.3809,0.7850,0.5968,0.0744,0.5071,0.3676,1.4738,1.0786,-0.2338,
14.278335,-0.3586,0.9352,0.4141,0.0744,0.5071,0.3676,1.4738,1.0786,-0.2338,
14.280406,-0.3586,0.9352,0.4141,0.5685,1.7155,-0.8411,1.4738,1.0786,-0.2338,
14.281589,-0.3586,0.9352,0.4141,0.5685,1.7155,-0.8411,1.5420,0.9326,-0.4352,
14.298243,-0.3586,0.9352,0.4141,0.5685,1.7155,-0.8411,1.1745,0.6221,-0.2743,
14.318869,-0.5091,1.0280,0.3840,0.5685,1.7155,-0.8411,1.1745,0.6221,-0.2743,
14.321092,-0.5091,1.0280,0.3840,-0.6555,2.4338,-0.5954,1.1745,0.6221,-0.2743,
14.323059,-0.5091,1.0280,0.3840,-0.6555,2.4338,-0.5954,0.6685,0.6088,0.3063,
14.339325,-0.5091,1.0280,0.3840,-0.6555,2.4338,-0.5954,0.3760,0.3249,0.5550,
14.359126,-0.1544,0.7955,0.4737,-0.6555,2.4338,-0.5954,0.3760,0.3249,0.5550,
14.362851,-0.1544,0.7955,0.4737,2.7336,-0.0220,0.5166,0.3760,0.3249,0.5550,
14.364869,-0.1544,0.7955,0.4737,2.7336,-0.0220,0.5166,0.3601,0.0405,0.0346,
14.378882,-0.1544,0.7955,0.4737,2.7336,-0.0220,0.5166,0.5145,0.3361,-0.0884,
14.398302,-0.3325,0.7271,0.3112,2.7336,-0.0220,0.5166,0.5145,0.3361,-0.0884,
14.400648,-0.3325,0.7271,0.3112,1.0024,-0.7699,-0.9101,0.5145,0.3361,-0.0884,
14.402707,-0.3325,0.7271,0.3112,1.0024,-0.7699,-0.9101,0.3206,0.2429,0.0650,
14.419492,-0.3325,0.7271,0.3112,1.0024,-0.7699,-0.9101,0.2328,-0.0144,0.3457,
14.439095,-0.3953,0.7796,0.3691,1.0024,-0.7699,-0.9101,0.2328,-0.0144,0.3457,
14.442637,-0.3953,0.7796,0.3691,0.3268,-0.3386,-0.2385,0.2328,-0.0144,0.3457,
14.444959,-0.3953,0.7796,0.3691,0.3268,-0.3386,-0.2385,0.2823,-0.3451,0.4362,
14.458165,-0.3953,0.7796,0.3691,0.3268,-0.3386,-0.2385,0.2844,-0.4320,0.3601,
14.478777,-0.6103,0.9513,0.4007,0.3268,-0.3386,-0.2385,0.2844,-0.4320,0.3601,
14.481424,-0.6103,0.9513,0.4007,-1.9626,1.2367,0.1008,0.2844,-0.4320,0.3601,
14.483094,-0.6103,0.9513,0.4007,-1.9626,1.2367,0.1008,0.1321,-0.5678,0.5475,
14.498032,-0.6103,0.9513,0.4007,-1.9626,1.2367,0.1008,-0.0037,-0.8709,0.7691,
14.518877,-0.3225,0.8135,0.4771,-1.9626,1.2367,0.1008,-0.0037,-0.8709,0.7691,
14.521284,-0.3225,0.8135,0.4771,0.5359,-0.2213,0.7559,-0.0037,-0.8709,0.7691,
14.523092,-0.3225,0.8135,0.4771,0.5359,-0.2213,0.7559,-0.1273,-1.0679,0.5934,
14.538414,-0.3225,0.8135,0.4771,0.5359,-0.2213,0.7559,-0.2258,-1.3646,0.3739,
14.558578,-0.3753,1.0012,0.3599,0.5359,-0.2213,0.7559,-0.2258,-1.3646,0.3739,
14.560916,-0.3753,1.0012,0.3599,-0.3325,1.5758,-0.6154,-0.2258,-1.3646,0.3739,
14.562737,-0.3753,1.0012,0.3599,-0.3325,1.5758,-0.6154,-0.6445,-1.6698,0.6567,
14.578303,-0.3753,1.0012,0.3599,-0.3325,1.5758,-0.6154,-1.2826,-2.0869,0.8996,
14.598222,0.0325,0.8653,0.5707,-0.3325,1.5758,-0.6154,-1.2826,-2.0869,0.8996,
14.601343,0.0325,0.8653,0.5707,3.0568,0.3104,0.9105,-1.2826,-2.0869,0.8996,
14.603036,0.0325,0.8653,0.5707,3.0568,0.3104,0.9105,-1.5899,-2.1119,0.8181,
14.620184,0.0325,0.8653,0.5707,3.0568,0.3104,0.9105,-1.6655,-1.8173,0.3153,
14.638204,-0.1480,0.9416,0.5827,3.0568,0.3104,0.9105,-1.6655,-1.8173,0.3153,
14.641053,-0.1480,0.9416,0.5827,0.7033,1.3219,0.3217,-1.6655,-1.8173,0.3153,
14.642556,-0.1480,0.9416,0.5827,0.7033,1.3219,0.3217,-1.7183,-1.2783,-0.1790,
14.657785,-0.1480,0.9416,0.5827,0.7033,1.3219,0.3217,-1.7838,-1.1286,-0.3835,
14.678097,-0.1610,0.5643,0.8917,0.7033,1.3219,0.3217,-1.7838,-1.1286,-0.3835,
14.680218,-0.1610,0.5643,0.8917,0.3802,-1.9460,2.7025,-1.7838,-1.1286,-0.3835,
14.682001,-0.1610,0.5643,0.8917,0.3802,-1.9460,2.7025,-1.5537,-1.2709,-0.3542,
14.697983,-0.1610,0.5643,0.8917,0.3802,-1.9460,2.7025,-0.5902,-1.3119,-0.2099,
14.718253,-0.0352,0.5890,0.7224,0.3802,-1.9460,2.7025,-0.5902,-1.3119,-0.2099,
14.720459,-0.0352,0.5890,0.7224,1.3519,-1.4051,0.6163,-0.5902,-1.3119,-0.2099,
14.722042,-0.0352,0.5890,0.7224,1.3519,-1.4051,0.6163,0.3372,-1.2698,-0.2200,
14.737952,-0.0352,0.5890,0.7224,1.3519,-1.4051,0.6163,0.2306,-0.6019,-0.1012,
14.758733,0.1368,0.5939,0.4253,1.3519,-1.4051,0.6163,0.2306,-0.6019,-0.1012,
14.763412,0.1368,0.5939,0.4253,2.8422,-1.4202,-2.2731,0.2306,-0.6019,-0.1012,
14.765352,0.1368,0.5939,0.4253,2.8422,-1.4202,-2.2731,0.3579,0.6722,0.0176,
14.778082,0.1368,0.5939,0.4253,2.8422,-1.4202,-2.2731,0.5763,1.0317,-0.2716,
14.798712,-0.3090,0.5839,0.0901,2.8422,-1.4202,-2.2731,0.5763,1.0317,-0.2716,
14.801128,-0.3090,0.5839,0.0901,-1.2740,-1.6282,-5.3666,0.5763,1.0317,-0.2716,
14.803167,-0.3090,0.5839,0.0901,-1.2740,-1.6282,-5.3666,0.2903,0.8304,-0.2051,
14.819834,-0.3090,0.5839,0.0901,-1.2740,-1.6282,-5.3666,-0.0101,0.7153,-0.0533,
14.838362,0.0134,0.4073,0.3191,-1.2740,-1.6282,-5.3666,-0.0101,0.7153,-0.0533,
14.841827,0.0134,0.4073,0.3191,2.1155,-3.3845,-3.0242,-0.0101,0.7153,-0.0533,
14.844167,0.0134,0.4073,0.3191,2.1155,-3.3845,-3.0242,-0.0591,0.6754,-0.1198,
14.857685,0.0134,0.4073,0.3191,2.1155,-3.3845,-3.0242,0.1571,0.5870,-0.3084,
14.877979,-0.3144,0.7803,0.4791,2.1155,-3.3845,-3.0242,0.1571,0.5870,-0.3084,
14.880522,-0.3144,0.7803,0.4791,-0.8801,0.2776,-1.3890,0.1571,0.5870,-0.3084,
14.882430,-0.3144,0.7803,0.4791,-0.8801,0.2776,-1.3890,0.5358,0.7979,-0.2392,
14.898192,-0.3144,0.7803,0.4791,-0.8801,0.2776,-1.3890,0.6557,0.7633,-0.0783,
14.918087,-0.3662,0.8956,0.8011,-0.8801,0.2776,-1.3890,0.6557,0.7633,-0.0783,
14.920527,-0.3662,0.8956,0.8011,-1.1525,1.2804,2.0167,0.6557,0.7633,-0.0783,
14.922295,-0.3662,0.8956,0.8011,-1.1525,1.2804,2.0167,0.4906,0.5140,-0.0192,
14.937546,-0.3662,0.8956,0.8011,-1.1525,1.2804,2.0167,0.4490,0.7547,-0.0224,
14.958068,-0.3474,1.0359,0.9775,-1.1525,1.2804,2.0167,0.4490,0.7547,-0.0224,
14.962209,-0.3474,1.0359,0.9775,-0.8168,2.5491,3.9509,0.4490,0.7547,-0.0224,
14.964260,-0.3474,1.0359,0.9775,-0.8168,2.5491,3.9509,0.8288,1.3316,-0.1641,
14.977954,-0.3474,1.0359,0.9775,-0.8168,2.5491,3.9509,1.2751,1.7529,-0.2700,
14.997824,-0.3574,0.9267,0.7745,-0.8168,2.5491,3.9509,1.2751,1.7529,-0.2700,
15.001935,-0.3574,0.9267,0.7745,-0.5161,1.2771,2.4568,1.2751,1.7529,-0.2700,
15.003965,-0.3574,0.9267,0.7745,-0.5161,1.2771,2.4568,1.3891,1.8200,-0.1577,
15.016999,-0.3574,0.9267,0.7745,-0.5161,1.2771,2.4568,1.4301,1.6490,0.0069,
15.037170,-0.2096,0.8282,0.5138,-0.5161,1.2771,2.4568,1.4301,1.6490,0.0069,
15.039038,-0.2096,0.8282,0.5138,1.2890,0.0515,0.5684,1.4301,1.6490,0.0069,
15.040082,-0.2096,0.8282,0.5138,1.2890,0.0515,0.5684,1.3300,1.5723,-0.1198,
15.057689,-0.2096,0.8282,0.5138,1.2890,0.0515,0.5684,1.1020,1.4711,-0.3494,
15.077183,-0.3699,0.7840,0.2511,1.2890,0.0515,0.5684,1.1020,1.4711,-0.3494,
15.079702,-0.3699,0.7840,0.2511,0.0264,-0.5466,-1.4263,1.1020,1.4711,-0.3494,
15.081469,-0.3699,0.7840,0.2511,0.0264,-0.5466,-1.4263,0.9848,1.2016,0.0607,
15.097596,-0.3699,0.7840,0.2511,0.0264,-0.5466,-1.4263,0.4149,0.9364,0.1811,
15.117900,-0.3220,0.8407,0.2880,0.0264,-0.5466,-1.4263,0.4149,0.9364,0.1811,
15.120284,-0.3220,0.8407,0.2880,0.5949,-0.1142,-0.6899,0.4149,0.9364,0.1811,
15.122138,-0.3220,0.8407,0.2880,0.5949,-0.1142,-0.6899,0.1550,0.4389,0.1342,
15.137157,-0.3220,0.8407,0.2880,0.5949,-0.1142,-0.6899,0.0154,0.2887,0.3270,
15.157795,-0.3474,0.8355,0.4522,0.5949,-0.1142,-0.6899,0.0154,0.2887,0.3270,
15.161470,-0.3474,0.8355,0.4522,0.3029,-0.2067,0.9746,0.0154,0.2887,0.3270,
15.163582,-0.3474,0.8355,0.4522,0.3029,-0.2067,0.9746,-0.1097,0.1518,0.1475,
15.177665,-0.3474,0.8355,0.4522,0.3029,-0.2067,0.9746,0.0389,0.0240,0.2759,
15.197709,-0.4075,0.8934,0.5333,0.3029,-0.2067,0.9746,0.0389,0.0240,0.2759,
15.200131,-0.4075,0.8934,0.5333,-0.3498,0.3413,1.7492,0.0389,0.0240,0.2759,
15.201782,-0.4075,0.8934,0.5333,-0.3498,0.3413,1.7492,0.1832,-0.2439,0.2711,
15.220059,-0.4075,0.8934,0.5333,-0.3498,0.3413,1.7492,0.2178,-0.4059,0.2104,
15.237669,-0.5607,0.9848,0.4569,-0.3498,0.3413,1.7492,0.2178,-0.4059,0.2104,
15.239881,-0.5607,0.9848,0.4569,-1.9771,1.1744,1.0211,0.2178,-0.4059,0.2104,
15.241649,-0.5607,0.9848,0.4569,-1.9771,1.1744,1.0211,0.0383,-0.5236,0.2706,
15.257810,-0.5607,0.9848,0.4569,-1.9771,1.1744,1.0211,-0.3185,-0.7803,0.6477,
15.277191,-0.2511,0.8001,0.5812,-1.9771,1.1744,1.0211,-0.3185,-0.7803,0.6477,
15.279811,-0.2511,0.8001,0.5812,0.8101,-0.6714,2.0893,-0.3185,-0.7803,0.6477,
15.281627,-0.2511,0.8001,0.5812,0.8101,-0.6714,2.0893,-0.6051,-1.2709,0.7153,
15.297562,-0.2511,0.8001,0.5812,0.8101,-0.6714,2.0893,-0.6828,-1.6927,0.5289,
15.317788,-0.2985,0.9054,0.4615,0.8101,-0.6714,2.0893,-0.6828,-1.6927,0.5289,
15.320111,-0.2985,0.9054,0.4615,-0.0876,0.3869,0.5097,-0.6828,-1.6927,0.5289,
15.321899,-0.2985,0.9054,0.4615,-0.0876,0.3869,0.5097,-1.0024,-1.9526,0.7728,
15.337134,-0.2985,0.9054,0.4615,-0.0876,0.3869,0.5097,-1.5036,-2.1364,0.8570,
15.356787,-0.0459,0.8666,0.5678,-0.0876,0.3869,0.5097,-1.5036,-2.1364,0.8570,
15.358606,-0.0459,0.8666,0.5678,1.7561,0.1436,0.9162,-1.5036,-2.1364,0.8570,
15.359788,-0.0459,0.8666,0.5678,1.7561,0.1436,0.9162,-1.8935,-2.0613,0.4879,
15.376968,-0.0459,0.8666,0.5678,1.7561,0.1436,0.9162,-1.7928,-1.2815,0.2285,
15.397585,-0.1502,0.8353,0.8160,1.7561,0.1436,0.9162,-1.7928,-1.2815,0.2285,
15.401076,-0.1502,0.8353,0.8160,0.2829,0.1796,2.6123,-1.7928,-1.2815,0.2285,
15.402889,-0.1502,0.8353,0.8160,0.2829,0.1796,2.6123,-1.4269,-0.7707,-0.1097,
15.417546,-0.1502,0.8353,0.8160,0.2829,0.1796,2.6123,-1.1617,-0.9401,-0.1465,
15.437557,0.0472,0.5050,0.7986,0.2829,0.1796,2.6123,-1.1617,-0.9401,-0.1465,
15.439528,0.0472,0.5050,0.7986,2.0368,-2.7310,1.9350,-1.1617,-0.9401,-0.1465,
15.441351,0.0472,0.5050,0.7986,2.0368,-2.7310,1.9350,-0.4027,-0.6541,-0.0437,
15.457190,0.0472,0.5050,0.7986,2.0368,-2.7310,1.9350,0.2242,-0.3734,-0.1033,
15.477183,-0.0589,0.5736,0.4173,2.0368,-2.7310,1.9350,0.2242,-0.3734,-0.1033,
15.480224,-0.0589,0.5736,0.4173,0.8982,-2.0328,-1.8609,0.2242,-0.3734,-0.1033,
15.482244,-0.0589,0.5736,0.4173,0.8982,-2.0328,-1.8609,0.1667,0.1135,-0.0980,
15.497456,-0.0589,0.5736,0.4173,0.8982,-2.0328,-1.8609,0.0378,0.3441,0.1348,
15.517091,-0.1107,0.5509,0.1898,0.8982,-2.0328,-1.8609,0.0378,0.3441,0.1348,
15.520196,-0.1107,0.5509,0.1898,0.4390,-2.2808,-4.0449,0.0378,0.3441,0.1348,
15.521850,-0.1107,0.5509,0.1898,0.4390,-2.2808,-4.0449,0.0538,0.9523,0.0597,
15.537758,-0.1107,0.5509,0.1898,0.4390,-2.2808,-4.0449,-0.0458,1.0860,-0.1598,
