
time,gFx,gFy,gFz,ax,ay,az,wx,wy,wz,
0.024790,0.0000,0.0000,0.0000,0.0000,0.0000,0.0000,-0.0900,0.4650,0.0868,
0.045557,0.0086,0.3254,0.7021,0.0000,0.0000,0.0000,-0.0900,0.4650,0.0868,
0.047253,0.0086,0.3254,0.7021,0.0000,0.0000,0.0000,-0.0900,0.4650,0.0868,
0.065487,0.0086,0.3254,0.7021,0.0000,0.0000,0.0000,-0.0900,0.4650,0.0868,
0.085332,0.0381,0.3564,1.1109,0.0000,0.0000,0.0000,-0.0900,0.4650,0.0868,
0.087041,0.0381,0.3564,1.1109,0.0533,0.4985,1.5537,-0.0900,0.4650,0.0868,
0.088547,0.0381,0.3564,1.1109,0.0533,0.4985,1.5537,-0.0900,0.4650,0.0868,
0.105313,0.0381,0.3564,1.1109,0.0533,0.4985,1.5537,0.2626,-2.1928,-0.0144,
0.124814,0.3953,0.2001,1.0605,0.0533,0.4985,1.5537,0.2626,-2.1928,-0.0144,
0.126708,0.3953,0.2001,1.0605,2.2307,-0.5208,1.0491,0.2626,-2.1928,-0.0144,
0.128489,0.3953,0.2001,1.0605,2.2307,-0.5208,1.0491,0.9028,-1.6996,-0.3127,
0.145561,0.3953,0.2001,1.0605,2.2307,-0.5208,1.0491,1.3092,-0.6914,-0.3734,
0.165078,0.1862,0.2128,0.7244,2.2307,-0.5208,1.0491,1.3092,-0.6914,-0.3734,
0.168562,0.1862,0.2128,0.7244,-0.0587,-0.4664,-2.1809,1.3092,-0.6914,-0.3734,
0.171136,0.1862,0.2128,0.7244,-0.0587,-0.4664,-2.1809,1.2336,0.8485,-0.3196,
0.185897,0.1862,0.2128,0.7244,-0.0587,-0.4664,-2.1809,0.6035,1.4243,-0.1007,
0.204496,-0.0892,0.4217,0.7058,-0.0587,-0.4664,-2.1809,0.6035,1.4243,-0.1007,
0.206539,-0.0892,0.4217,0.7058,-1.6335,0.5642,-2.1860,0.6035,1.4243,-0.1007,
0.208486,-0.0892,0.4217,0.7058,-1.6335,0.5642,-2.1860,-0.1294,1.5079,0.2807,
0.224960,-0.0892,0.4217,0.7058,-1.6335,0.5642,-2.1860,-0.4256,1.8280,0.4810,
0.245216,0.1339,0.3323,1.0158,-1.6335,0.5642,-2.1860,-0.4256,1.8280,0.4810,
0.248555,0.1339,0.3323,1.0158,0.3340,-0.0568,0.7769,-0.4256,1.8280,0.4810,
0.250160,0.1339,0.3323,1.0158,0.3340,-0.0568,0.7769,-0.2605,1.4408,0.3766,
0.264845,0.1339,0.3323,1.0158,0.3340,-0.0568,0.7769,-0.0543,0.6328,0.1683,
0.285113,0.0589,0.2998,0.9059,0.3340,-0.0568,0.7769,-0.0543,0.6328,0.1683,
0.286366,0.0589,0.2998,0.9059,-0.2423,-0.2750,-0.3515,-0.0543,0.6328,0.1683,
0.287613,0.0589,0.2998,0.9059,-0.2423,-0.2750,-0.3515,0.0682,0.4815,0.0016,
0.305104,0.0589,0.2998,0.9059,-0.2423,-0.2750,-0.3515,0.0751,0.6951,-0.1007,
0.324286,0.0110,0.3919,0.9037,-0.2423,-0.2750,-0.3515,0.0751,0.6951,-0.1007,
0.326116,0.0110,0.3919,0.9037,-0.4041,0.3241,-0.2841,0.0751,0.6951,-0.1007,
0.327948,0.0110,0.3919,0.9037,-0.4041,0.3241,-0.2841,-0.0165,0.9646,-0.1481,
0.344336,0.0110,0.3919,0.9037,-0.4041,0.3241,-0.2841,-0.1268,1.1824,-0.0565,
0.364583,0.1173,0.3398,0.9408,-0.4041,0.3241,-0.2841,-0.1268,1.1824,-0.0565,
0.366945,0.1173,0.3398,0.9408,1.0205,-0.1593,0.0562,-0.1268,1.1824,-0.0565,
0.368791,0.1173,0.3398,0.9408,1.0205,-0.1593,0.0562,0.0256,0.5033,-0.2855,
0.384495,0.1173,0.3398,0.9408,1.0205,-0.1593,0.0562,0.2908,0.5928,-0.6413,
0.404310,-0.0203,0.2602,0.9855,1.0205,-0.1593,0.0562,0.2908,0.5928,-0.6413,
0.406306,-0.0203,0.2602,0.9855,-0.0814,-0.9774,0.5086,0.2908,0.5928,-0.6413,
0.408145,-0.0203,0.2602,0.9855,-0.0814,-0.9774,0.5086,0.7222,0.1582,-0.9060,
0.424093,-0.0203,0.2602,0.9855,-0.0814,-0.9774,0.5086,0.9832,-0.5412,-0.8986,
0.443861,-0.0537,0.3831,0.8030,-0.0814,-0.9774,0.5086,0.9832,-0.5412,-0.8986,
0.445545,-0.0537,0.3831,0.8030,-0.3494,-0.0700,-1.1589,0.9832,-0.5412,-0.8986,
0.447042,-0.0537,0.3831,0.8030,-0.3494,-0.0700,-1.1589,1.1175,0.0991,-0.5944,
0.463445,-0.0537,0.3831,0.8030,-0.3494,-0.0700,-1.1589,1.0221,0.9960,-0.0320,
0.483960,-0.0110,0.3139,0.7016,-0.3494,-0.0700,-1.1589,1.0221,0.9960,-0.0320,
0.484715,-0.0110,0.3139,0.7016,0.3134,-1.1270,-1.9739,1.0221,0.9960,-0.0320,
0.485259,-0.0110,0.3139,0.7016,0.3134,-1.1270,-1.9739,0.7574,1.1345,0.1140,
0.503967,-0.0110,0.3139,0.7016,0.3134,-1.1270,-1.9739,0.5049,0.3617,0.1491,
0.524020,-0.0938,0.2428,0.7398,0.3134,-1.1270,-1.9739,0.5049,0.3617,0.1491,
0.525660,-0.0938,0.2428,0.7398,-0.2582,-2.0483,-1.4753,0.5049,0.3617,0.1491,
0.527802,-0.0938,0.2428,0.7398,-0.2582,-2.0483,-1.4753,0.1790,0.5832,0.5641,
0.543870,-0.0938,0.2428,0.7398,-0.2582,-2.0483,-1.4753,-0.1896,2.2147,1.1068,
0.564715,0.1339,0.5397,0.7505,-0.2582,-2.0483,-1.4753,-0.1896,2.2147,1.1068,
0.566838,0.1339,0.5397,0.7505,2.3106,0.8359,-1.3251,-0.1896,2.2147,1.1068,
0.568617,0.1339,0.5397,0.7505,2.3106,0.8359,-1.3251,-0.7883,2.4309,0.5012,
0.584566,0.1339,0.5397,0.7505,2.3106,0.8359,-1.3251,-1.5164,-0.2285,0.5087,
0.604218,0.1134,0.3274,0.6872,2.3106,0.8359,-1.3251,-1.5164,-0.2285,0.5087,
0.606679,0.1134,0.3274,0.6872,2.4042,-0.8680,-2.0902,-1.5164,-0.2285,0.5087,
0.609607,0.1134,0.3274,0.6872,2.4042,-0.8680,-2.0902,-2.2695,-1.9063,0.4985,
0.623955,0.1134,0.3274,0.6872,2.4042,-0.8680,-2.0902,-2.6552,-2.1497,0.2653,
0.644289,0.2240,0.2634,1.0632,2.4042,-0.8680,-2.0902,-2.6552,-2.1497,0.2653,
0.647074,0.2240,0.2634,1.0632,2.6675,-0.6235,1.1633,-2.6552,-2.1497,0.2653,
0.649299,0.2240,0.2634,1.0632,2.6675,-0.6235,1.1633,-2.6381,-1.9745,0.0277,
0.664094,0.2240,0.2634,1.0632,2.6675,-0.6235,1.1633,-2.2711,-1.2261,0.0522,
0.685685,0.2555,0.2250,1.0363,2.6675,-0.6235,1.1633,-2.2711,-1.2261,0.0522,
0.687953,0.2555,0.2250,1.0363,2.3046,-0.0971,0.6257,-2.2711,-1.2261,0.0522,
0.690222,0.2555,0.2250,1.0363,2.3046,-0.0971,0.6257,-1.6464,-0.5523,0.2269,
0.703874,0.2555,0.2250,1.0363,2.3046,-0.0971,0.6257,-0.8043,-0.4783,0.3244,
0.724143,0.2961,0.1449,1.3713,2.3046,-0.0971,0.6257,-0.8043,-0.4783,0.3244,
0.726928,0.2961,0.1449,1.3713,2.4826,-0.4098,3.8133,-0.8043,-0.4783,0.3244,
0.728590,0.2961,0.1449,1.3713,2.4826,-0.4098,3.8133,0.3382,-1.5739,-0.0005,
0.744076,0.2961,0.1449,1.3713,2.4826,-0.4098,3.8133,1.3055,-2.1811,-0.5300,
0.764388,0.2209,0.0095,1.0935,2.4826,-0.4098,3.8133,1.3055,-2.1811,-0.5300,
0.766906,0.2209,0.0095,1.0935,1.0486,-2.0597,1.2143,1.3055,-2.1811,-0.5300,
0.768699,0.2209,0.0095,1.0935,1.0486,-2.0597,1.2143,1.7529,-1.0690,-0.7526,
0.784639,0.2209,0.0095,1.0935,1.0486,-2.0597,1.2143,1.9377,-0.2775,-1.3087,
0.803908,0.1940,0.3117,1.0798,1.0486,-2.0597,1.2143,1.9377,-0.2775,-1.3087,
0.806243,0.1940,0.3117,1.0798,0.6372,0.1584,1.2989,1.9377,-0.2775,-1.3087,
0.808292,0.1940,0.3117,1.0798,0.6372,0.1584,1.2989,2.1268,-1.0818,-1.3769,
0.823981,0.1940,0.3117,1.0798,0.6372,0.1584,1.2989,1.6346,-2.1641,-0.9982,
0.844131,0.1827,0.2558,0.8253,0.6372,0.1584,1.2989,1.6346,-2.1641,-0.9982,
0.845863,0.1827,0.2558,0.8253,0.0861,-1.1009,-0.8706,1.6346,-2.1641,-0.9982,
0.847697,0.1827,0.2558,0.8253,0.0861,-1.1009,-0.8706,0.9683,-3.1537,-0.5534,
0.864306,0.1827,0.2558,0.8253,0.0861,-1.1009,-0.8706,0.4346,-3.4472,0.0959,
0.883818,0.4449,0.2480,0.8350,0.0861,-1.1009,-0.8706,0.4346,-3.4472,0.0959,
0.885693,0.4449,0.2480,0.8350,1.5261,-1.3839,-0.3953,0.4346,-3.4472,0.0959,
0.887508,0.4449,0.2480,0.8350,1.5261,-1.3839,-0.3953,-0.1140,-2.6451,0.3494,
0.903397,0.4449,0.2480,0.8350,1.5261,-1.3839,-0.3953,-0.2349,-1.3081,0.4794,
0.924517,0.2348,0.3242,1.0442,1.5261,-1.3839,-0.3953,-0.2349,-1.3081,0.4794,
0.926363,0.2348,0.3242,1.0442,-1.2436,-0.5007,1.8614,-0.2349,-1.3081,0.4794,
0.927896,0.2348,0.3242,1.0442,-1.2436,-0.5007,1.8614,0.1502,-0.4591,0.8293,
0.944160,0.2348,0.3242,1.0442,-1.2436,-0.5007,1.8614,0.6397,-0.3579,1.0365,
0.964073,0.1654,0.2570,0.8174,-1.2436,-0.5007,1.8614,0.6397,-0.3579,1.0365,
0.966089,0.1654,0.2570,0.8174,-2.1547,-1.1270,-0.2730,0.6397,-0.3579,1.0365,
0.968022,0.1654,0.2570,0.8174,-2.1547,-1.1270,-0.2730,0.8069,-0.3190,1.2064,
0.985164,0.1654,0.2570,0.8174,-2.1547,-1.1270,-0.2730,0.9550,-0.9912,1.6133,
1.003425,0.3501,0.3689,0.9640,-2.1547,-1.1270,-0.2730,0.9550,-0.9912,1.6133,
1.005542,0.3501,0.3689,0.9640,-0.7198,-0.0737,1.3646,0.9550,-0.9912,1.6133,
1.007310,0.3501,0.3689,0.9640,-0.7198,-0.0737,1.3646,1.0871,-1.7710,1.3902,
1.024126,0.3501,0.3689,0.9640,-0.7198,-0.0737,1.3646,1.1430,-1.8674,0.9566,
1.044213,0.4356,0.5182,0.7512,-0.7198,-0.0737,1.3646,1.1430,-1.8674,0.9566,
1.046786,0.4356,0.5182,0.7512,-0.5709,1.2457,-0.2576,1.1430,-1.8674,0.9566,
1.048819,0.4356,0.5182,0.7512,-0.5709,1.2457,-0.2576,1.0120,-1.0610,0.5289,
1.064294,0.4356,0.5182,0.7512,-0.5709,1.2457,-0.2576,0.6397,-0.7393,0.5140,
1.084002,0.1891,0.6760,0.7881,-0.5709,1.2457,-0.2576,0.6397,-0.7393,0.5140,
1.086062,0.1891,0.6760,0.7881,-3.2678,2.6147,0.3843,0.6397,-0.7393,0.5140,
1.087847,0.1891,0.6760,0.7881,-3.2678,2.6147,0.3843,0.1406,-1.1191,0.8762,
1.103221,0.1891,0.6760,0.7881,-3.2678,2.6147,0.3843,-0.8213,-1.0434,0.7995,
1.124132,0.1349,0.8131,0.9020,-3.2678,2.6147,0.3843,-0.8213,-1.0434,0.7995,
1.126051,0.1349,0.8131,0.9020,-4.2389,4.2313,1.6778,-0.8213,-1.0434,0.7995,
1.127736,0.1349,0.8131,0.9020,-4.2389,4.2313,1.6778,-1.6986,-0.4922,0.7974,
1.144251,0.1349,0.8131,0.9020,-4.2389,4.2313,1.6778,-2.2972,0.4192,0.7020,
1.163345,0.1820,0.9486,1.0346,-4.2389,4.2313,1.6778,-2.2972,0.4192,0.7020,
1.165871,0.1820,0.9486,1.0346,-3.8878,6.3096,2.7177,-2.2972,0.4192,0.7020,
1.168078,0.1820,0.9486,1.0346,-3.8878,6.3096,2.7177,-2.5907,1.3002,0.4442,
1.183505,0.1820,0.9486,1.0346,-3.8878,6.3096,2.7177,-2.3287,1.0141,-0.2242,
1.205698,0.4290,0.8023,1.3842,-3.8878,6.3096,2.7177,-2.3287,1.0141,-0.2242,
1.207890,0.4290,0.8023,1.3842,-1.1263,5.6559,5.6354,-2.3287,1.0141,-0.2242,
1.209629,0.4290,0.8023,1.3842,-1.1263,5.6559,5.6354,-1.2251,1.3779,-1.1340,
1.224945,0.4290,0.8023,1.3842,-1.1263,5.6559,5.6354,0.2152,1.9899,-2.3468,
1.242852,0.2255,0.5890,1.1267,-1.1263,5.6559,5.6354,0.2152,1.9899,-2.3468,
1.244836,0.2255,0.5890,1.1267,-2.4187,3.3822,2.7334,0.2152,1.9899,-2.3468,
1.246519,0.2255,0.5890,1.1267,-2.4187,3.3822,2.7334,1.8594,2.0283,-2.5636,
1.263469,0.2255,0.5890,1.1267,-2.4187,3.3822,2.7334,3.1335,2.0006,-2.3590,
1.284359,0.4143,0.4964,0.5294,-2.4187,3.3822,2.7334,3.1335,2.0006,-2.3590,
1.286001,0.4143,0.4964,0.5294,0.3950,1.2324,-3.1507,3.1335,2.0006,-2.3590,
1.287855,0.4143,0.4964,0.5294,0.3950,1.2324,-3.1507,3.5761,2.1550,-2.2632,
1.305085,0.4143,0.4964,0.5294,0.3950,1.2324,-3.1507,3.3726,1.8962,-2.3771,
1.323304,0.3054,0.3748,0.5255,0.3950,1.2324,-3.1507,3.3726,1.8962,-2.3771,
1.325569,0.3054,0.3748,0.5255,0.3827,-1.3900,-2.8330,3.3726,1.8962,-2.3771,
1.327904,0.3054,0.3748,0.5255,0.3827,-1.3900,-2.8330,2.7873,1.9457,-2.3372,
1.343411,0.3054,0.3748,0.5255,0.3827,-1.3900,-2.8330,2.1614,2.1486,-2.1167,
1.363762,-0.0369,0.3164,0.5050,0.3827,-1.3900,-2.8330,2.1614,2.1486,-2.1167,
1.365640,-0.0369,0.3164,0.5050,-1.8405,-2.9165,-2.6525,2.1614,2.1486,-2.1167,
1.367517,-0.0369,0.3164,0.5050,-1.8405,-2.9165,-2.6525,1.3460,1.9857,-1.6181,
1.383718,-0.0369,0.3164,0.5050,-1.8405,-2.9165,-2.6525,0.3558,1.4626,-1.2725,
1.402790,0.0596,0.2783,0.7016,-1.8405,-2.9165,-2.6525,0.3558,1.4626,-1.2725,
1.404103,0.0596,0.2783,0.7016,-0.0187,-3.6059,-0.5872,0.3558,1.4626,-1.2725,
1.404925,0.0596,0.2783,0.7016,-0.0187,-3.6059,-0.5872,-0.2700,0.8602,-1.4408,
1.423062,0.0596,0.2783,0.7016,-0.0187,-3.6059,-0.5872,-0.6322,0.7217,-1.6757,
1.443327,-0.0081,0.3555,0.7938,-0.0187,-3.6059,-0.5872,-0.6322,0.7217,-1.6757,
1.445398,-0.0081,0.3555,0.7938,-0.0532,-2.7310,0.1927,-0.6322,0.7217,-1.6757,
1.447226,-0.0081,0.3555,0.7938,-0.0532,-2.7310,0.1927,-0.8037,0.7020,-1.7513,
1.463294,-0.0081,0.3555,0.7938,-0.0532,-2.7310,0.1927,-0.7723,0.5390,-1.6895,
1.482997,-0.1488,0.5162,0.9425,-0.0532,-2.7310,0.1927,-0.7723,0.5390,-1.6895,
1.485126,-0.1488,0.5162,0.9425,-0.8265,-0.8807,1.4592,-0.7723,0.5390,-1.6895,
1.486800,-0.1488,0.5162,0.9425,-0.8265,-0.8807,1.4592,-0.4985,0.2631,-1.4131,
1.503061,-0.1488,0.5162,0.9425,-0.8265,-0.8807,1.4592,-0.0373,0.1987,-1.0253,
1.523235,-0.1170,0.4012,0.9533,-0.8265,-0.8807,1.4592,-0.0373,0.1987,-1.0253,
1.526117,-0.1170,0.4012,0.9533,-0.1661,-1.8433,1.4769,-0.0373,0.1987,-1.0253,
1.528731,-0.1170,0.4012,0.9533,-0.1661,-1.8433,1.4769,0.5172,-0.1417,-0.6392,
1.542999,-0.1170,0.4012,0.9533,-0.1661,-1.8433,1.4769,1.0637,-0.4043,-0.3680,
1.562857,0.2328,0.3389,0.9501,-0.1661,-1.8433,1.4769,1.0637,-0.4043,-0.3680,
1.565632,0.2328,0.3389,0.9501,3.2521,-2.6269,1.5745,1.0637,-0.4043,-0.3680,
1.567496,0.2328,0.3389,0.9501,3.2521,-2.6269,1.5745,1.7833,0.0309,-0.5188,
1.583376,0.2328,0.3389,0.9501,3.2521,-2.6269,1.5745,2.6658,0.1848,-0.7654,
1.602741,0.0889,0.4703,0.8749,3.2521,-2.6269,1.5745,2.6658,0.1848,-0.7654,
1.605523,0.0889,0.4703,0.8749,1.9893,-1.9246,1.3463,2.6658,0.1848,-0.7654,
1.607726,0.0889,0.4703,0.8749,1.9893,-1.9246,1.3463,3.4232,0.2338,-1.1707,
1.622479,0.0889,0.4703,0.8749,1.9893,-1.9246,1.3463,3.5196,-0.2450,-1.0621,
1.643047,-0.2558,0.9750,0.1459,1.9893,-1.9246,1.3463,3.5196,-0.2450,-1.0621,
1.645080,-0.2558,0.9750,0.1459,-1.0774,2.1434,-4.8310,3.5196,-0.2450,-1.0621,
1.646807,-0.2558,0.9750,0.1459,-1.0774,2.1434,-4.8310,2.4283,-0.8085,-0.7270,
1.662886,-0.2558,0.9750,0.1459,-1.0774,2.1434,-4.8310,1.1308,-0.8128,-0.5358,
1.683149,-0.4253,1.3452,0.1493,-1.0774,2.1434,-4.8310,1.1308,-0.8128,-0.5358,
1.685542,-0.4253,1.3452,0.1493,-2.7272,5.3554,-4.2669,1.1308,-0.8128,-0.5358,
1.687085,-0.4253,1.3452,0.1493,-2.7272,5.3554,-4.2669,0.5907,-0.2658,-0.5262,
1.702511,-0.4253,1.3452,0.1493,-2.7272,5.3554,-4.2669,0.1135,-0.2961,-0.6120,
1.722512,-0.6220,0.7136,0.9479,-2.7272,5.3554,-4.2669,0.1135,-0.2961,-0.6120,
1.725579,-0.6220,0.7136,0.9479,-4.5393,-0.8795,3.6535,0.1135,-0.2961,-0.6120,
1.727975,-0.6220,0.7136,0.9479,-4.5393,-0.8795,3.6535,0.4501,-0.7207,-0.4272,
1.742539,-0.6220,0.7136,0.9479,-4.5393,-0.8795,3.6535,1.4195,-0.2860,0.2306,
1.762757,-0.3814,0.9780,0.5130,-4.5393,-0.8795,3.6535,1.4195,-0.2860,0.2306,
1.765157,-0.3814,0.9780,0.5130,-2.2625,1.5116,-0.3418,1.4195,-0.2860,0.2306,
1.766845,-0.3814,0.9780,0.5130,-2.2625,1.5116,-0.3418,1.4349,0.5497,0.3846,
1.784319,-0.3814,0.9780,0.5130,-2.2625,1.5116,-0.3418,1.1958,0.1438,-0.2589,
1.803582,-0.4324,0.8893,0.7490,-2.2625,1.5116,-0.3418,1.1958,0.1438,-0.2589,
1.805794,-0.4324,0.8893,0.7490,-2.7106,0.3688,2.4231,1.1958,0.1438,-0.2589,
1.807462,-0.4324,0.8893,0.7490,-2.7106,0.3688,2.4231,1.3625,-0.2967,-0.5246,
1.822501,-0.4324,0.8893,0.7490,-2.7106,0.3688,2.4231,1.6671,0.1337,-0.5060,
1.842269,-0.2306,0.9411,0.3240,-2.7106,0.3688,2.4231,1.6671,0.1337,-0.5060,
1.844543,-0.2306,0.9411,0.3240,-0.5751,0.6268,-1.2350,1.6671,0.1337,-0.5060,
1.846262,-0.2306,0.9411,0.3240,-0.5751,0.6268,-1.2350,1.9377,0.2583,-0.6988,
1.862536,-0.2306,0.9411,0.3240,-0.5751,0.6268,-1.2350,1.8541,0.0964,-0.6195,
1.883186,0.1046,0.6579,0.0892,-0.5751,0.6268,-1.2350,1.8541,0.0964,-0.6195,
1.885591,0.1046,0.6579,0.0892,2.9689,-2.4087,-2.8621,1.8541,0.0964,-0.6195,
1.887448,0.1046,0.6579,0.0892,2.9689,-2.4087,-2.8621,1.4450,-0.3776,-0.8490,
1.902701,0.1046,0.6579,0.0892,2.9689,-2.4087,-2.8621,1.0967,-0.4160,-1.2282,
1.922315,-0.1986,0.7161,0.1986,2.9689,-2.4087,-2.8621,1.0967,-0.4160,-1.2282,
1.924762,-0.1986,0.7161,0.1986,0.3122,-1.9307,-1.3702,1.0967,-0.4160,-1.2282,
1.926448,-0.1986,0.7161,0.1986,0.3122,-1.9307,-1.3702,0.9087,-0.1731,-0.5784,
1.943110,-0.1986,0.7161,0.1986,0.3122,-1.9307,-1.3702,0.9289,0.3957,-0.3696,
1.962147,0.0059,0.7857,0.2558,0.3122,-1.9307,-1.3702,0.9289,0.3957,-0.3696,
1.964638,0.0059,0.7857,0.2558,2.4992,-1.3197,-0.4693,0.9289,0.3957,-0.3696,
1.966565,0.0059,0.7857,0.2558,2.4992,-1.3197,-0.4693,1.4637,0.8538,-0.4884,
1.982210,0.0059,0.7857,0.2558,2.4992,-1.3197,-0.4693,1.4834,1.1457,-0.7723,
2.002511,-0.0584,0.5597,-0.1329,2.4992,-1.3197,-0.4693,1.4834,1.1457,-0.7723,
2.004406,-0.0584,0.5597,-0.1329,2.2033,-3.6252,-3.6410,1.4834,1.1457,-0.7723,
2.006145,-0.0584,0.5597,-0.1329,2.2033,-3.6252,-3.6410,0.7441,1.8653,-1.5601,
2.022746,-0.0584,0.5597,-0.1329,2.2033,-3.6252,-3.6410,0.2567,2.1827,-2.1209,
2.042559,-0.3958,0.2741,0.3210,2.2033,-3.6252,-3.6410,0.2567,2.1827,-2.1209,
2.045613,-0.3958,0.2741,0.3210,-0.2700,-6.2321,1.2459,0.2567,2.1827,-2.1209,
2.047270,-0.3958,0.2741,0.3210,-0.2700,-6.2321,1.2459,0.3361,1.2501,-0.7968,
2.062371,-0.3958,0.2741,0.3210,-0.2700,-6.2321,1.2459,0.6722,-0.1710,-0.3196,
2.082745,-0.5360,1.0153,0.3806,-0.2700,-6.2321,1.2459,0.6722,-0.1710,-0.3196,
2.085621,-0.5360,1.0153,0.3806,-1.4066,1.0801,2.0881,0.6722,-0.1710,-0.3196,
2.087442,-0.5360,1.0153,0.3806,-1.4066,1.0801,2.0881,0.4245,-1.4381,-0.0399,
2.101789,-0.5360,1.0153,0.3806,-1.4066,1.0801,2.0881,0.6860,-2.1002,0.4091,
2.121766,-0.2768,1.3654,0.1935,-1.4066,1.0801,2.0881,0.6860,-2.1002,0.4091,
2.124302,-0.2768,1.3654,0.1935,0.9424,4.4443,0.1804,0.6860,-2.1002,0.4091,
2.125497,-0.2768,1.3654,0.1935,0.9424,4.4443,0.1804,1.2788,-0.9657,-0.1252,
2.142407,-0.2768,1.3654,0.1935,0.9424,4.4443,0.1804,2.4506,0.3984,-0.4112,
2.162491,-0.4808,1.3495,-0.4617,0.9424,4.4443,0.1804,2.4506,0.3984,-0.4112,
2.164163,-0.4808,1.3495,-0.4617,-0.9815,4.2216,-5.6131,2.4506,0.3984,-0.4112,
2.166057,-0.4808,1.3495,-0.4617,-0.9815,4.2216,-5.6131,3.0467,-0.0304,-0.3649,
2.182108,-0.4808,1.3495,-0.4617,-0.9815,4.2216,-5.6131,1.6442,-0.4980,-0.0905,
2.201259,-0.5585,1.0564,-0.5260,-0.9815,4.2216,-5.6131,1.6442,-0.4980,-0.0905,
2.203058,-0.5585,1.0564,-0.5260,-1.6655,1.3197,-5.4379,1.6442,-0.4980,-0.0905,
2.204406,-0.5585,1.0564,-0.5260,-1.6655,1.3197,-5.4379,-0.1449,-0.5193,-0.0852,
2.222037,-0.5585,1.0564,-0.5260,-1.6655,1.3197,-5.4379,-0.5859,-0.5651,0.0543,
2.242220,-0.6144,0.6139,-0.0188,-1.6655,1.3197,-5.4379,-0.5859,-0.5651,0.0543,
2.245135,-0.6144,0.6139,-0.0188,-2.1925,-2.9999,-0.6437,-0.5859,-0.5651,0.0543,
2.247376,-0.6144,0.6139,-0.0188,-2.1925,-2.9999,-0.6437,-0.7420,-0.4123,0.5289,
2.261864,-0.6144,0.6139,-0.0188,-2.1925,-2.9999,-0.6437,-0.6456,-0.5912,1.0983,
2.282282,-0.2155,0.6391,0.2228,-2.1925,-2.9999,-0.6437,-0.6456,-0.5912,1.0983,
2.284281,-0.2155,0.6391,0.2228,1.4099,-2.8556,1.3993,-0.6456,-0.5912,1.0983,
2.285808,-0.2155,0.6391,0.2228,1.4099,-2.8556,1.3993,-0.3377,-0.8703,1.1947,
2.304646,-0.2155,0.6391,0.2228,1.4099,-2.8556,1.3993,0.1369,-0.9444,1.1808,
2.321506,-0.1737,0.7398,0.2233,1.4099,-2.8556,1.3993,0.1369,-0.9444,1.1808,
2.323253,-0.1737,0.7398,0.2233,1.3509,-2.0221,1.2485,0.1369,-0.9444,1.1808,
2.324978,-0.1737,0.7398,0.2233,1.3509,-2.0221,1.2485,0.5939,-1.2373,1.1878,
2.342426,-0.1737,0.7398,0.2233,1.3509,-2.0221,1.2485,0.9534,-1.3055,1.2911,
2.362293,-0.0919,0.7060,0.0083,1.3509,-2.0221,1.2485,0.9534,-1.3055,1.2911,
2.363969,-0.0919,0.7060,0.0083,1.6449,-2.5181,-0.7112,0.9534,-1.3055,1.2911,
2.365809,-0.0919,0.7060,0.0083,1.6449,-2.5181,-0.7112,1.0232,-0.5156,1.2203,
2.381629,-0.0919,0.7060,0.0083,1.6449,-2.5181,-0.7112,0.9662,0.4096,0.9396,
2.402592,-0.0662,0.9362,0.2165,1.6449,-2.5181,-0.7112,0.9662,0.4096,0.9396,
2.404672,-0.0662,0.9362,0.2165,1.4838,-0.3881,1.6992,0.9662,0.4096,0.9396,
2.406335,-0.0662,0.9362,0.2165,1.4838,-0.3881,1.6992,1.0099,0.5928,0.4703,
2.422513,-0.0662,0.9362,0.2165,1.4838,-0.3881,1.6992,1.4195,0.8139,0.4218,
2.441404,-0.3222,2.2813,-0.3762,1.4838,-0.3881,1.6992,1.4195,0.8139,0.4218,
2.443907,-0.3222,2.2813,-0.3762,-1.1916,12.7501,-3.5865,1.4195,0.8139,0.4218,
2.445652,-0.3222,2.2813,-0.3762,-1.1916,12.7501,-3.5865,1.3891,1.7566,1.0759,
2.461764,-0.3222,2.2813,-0.3762,-1.1916,12.7501,-3.5865,1.1723,2.2424,-0.0927,
2.481666,-0.2915,1.1426,-0.5546,-1.1916,12.7501,-3.5865,1.1723,2.2424,-0.0927,
2.483322,-0.2915,1.1426,-0.5546,-1.1143,1.5751,-4.6988,1.1723,2.2424,-0.0927,
2.484767,-0.2915,1.1426,-0.5546,-1.1143,1.5751,-4.6988,0.9422,1.6821,-0.1220,
2.501439,-0.2915,1.1426,-0.5546,-1.1143,1.5751,-4.6988,0.1672,1.0674,0.2621,
2.520719,-0.1630,0.8990,-0.3007,-1.1143,1.5751,-4.6988,0.1672,1.0674,0.2621,
2.522138,-0.1630,0.8990,-0.3007,0.0680,-0.7971,-1.9038,0.1672,1.0674,0.2621,
2.523708,-0.1630,0.8990,-0.3007,0.0680,-0.7971,-1.9038,-0.3835,0.3148,0.4421,
2.540830,-0.1630,0.8990,-0.3007,0.0680,-0.7971,-1.9038,-0.3052,-0.6253,0.5678,
2.561672,0.1285,0.9411,-0.7876,0.0680,-0.7971,-1.9038,-0.3052,-0.6253,0.5678,
2.563538,0.1285,0.9411,-0.7876,2.7354,-0.4304,-6.8167,-0.3052,-0.6253,0.5678,
2.565419,0.1285,0.9411,-0.7876,2.7354,-0.4304,-6.8167,1.2006,-2.9417,2.2829,
2.582066,0.1285,0.9411,-0.7876,2.7354,-0.4304,-6.8167,0.5651,-1.1782,1.7635,
2.602035,0.1586,0.7339,-0.1305,2.7354,-0.4304,-6.8167,0.5651,-1.1782,1.7635,
2.604142,0.1586,0.7339,-0.1305,2.3002,-2.5103,-0.0639,0.5651,-1.1782,1.7635,
2.605842,0.1586,0.7339,-0.1305,2.3002,-2.5103,-0.0639,0.4714,-0.8618,1.5478,
2.621329,0.1586,0.7339,-0.1305,2.3002,-2.5103,-0.0639,0.7713,-0.9033,1.1420,
2.641350,-0.0980,1.0510,-0.2223,2.3002,-2.5103,-0.0639,0.7713,-0.9033,1.1420,
2.643696,-0.0980,1.0510,-0.2223,-0.6894,0.6100,-0.6941,0.7713,-0.9033,1.1420,
2.645742,-0.0980,1.0510,-0.2223,-0.6894,0.6100,-0.6941,1.0855,-0.5428,0.6456,
2.661192,-0.0980,1.0510,-0.2223,-0.6894,0.6100,-0.6941,0.9673,0.0916,0.5981,
2.681546,-0.2052,1.2298,-0.4754,-0.6894,0.6100,-0.6941,0.9673,0.0916,0.5981,
2.683490,-0.2052,1.2298,-0.4754,-1.9664,2.4275,-2.7806,0.9673,0.0916,0.5981,
2.685418,-0.2052,1.2298,-0.4754,-1.9664,2.4275,-2.7806,0.4384,0.0975,0.8474,
2.701518,-0.2052,1.2298,-0.4754,-1.9664,2.4275,-2.7806,-0.1715,-0.6147,1.1638,
2.721278,0.0515,1.1683,-0.4393,-1.9664,2.4275,-2.7806,-0.1715,-0.6147,1.1638,
2.723312,0.0515,1.1683,-0.4393,0.1839,1.8401,-2.3724,-0.1715,-0.6147,1.1638,
2.724871,0.0515,1.1683,-0.4393,0.1839,1.8401,-2.3724,-0.5566,-0.9534,1.3097,
2.741448,0.0515,1.1683,-0.4393,0.1839,1.8401,-2.3724,-0.8181,-0.8858,1.1968,
2.761308,0.2040,1.0410,-0.3252,0.1839,1.8401,-2.3724,-0.8181,-0.8858,1.1968,
2.764401,0.2040,1.0410,-0.3252,1.2637,0.5694,-1.4989,-0.8181,-0.8858,1.1968,
2.766238,0.2040,1.0410,-0.3252,1.2637,0.5694,-1.4989,-0.8943,-0.4772,1.0626,
2.781498,0.2040,1.0410,-0.3252,1.2637,0.5694,-1.4989,-1.0472,-0.1965,0.8527,
2.801368,0.3494,0.9687,-0.1945,1.2637,0.5694,-1.4989,-1.0472,-0.1965,0.8527,
2.803477,0.3494,0.9687,-0.1945,2.3382,-0.1622,-0.5759,-1.0472,-0.1965,0.8527,
2.805557,0.3494,0.9687,-0.1945,2.3382,-0.1622,-0.5759,-1.1116,0.4011,0.5880,
2.821291,0.3494,0.9687,-0.1945,2.3382,-0.1622,-0.5759,-1.0796,1.0008,0.2594,
2.841318,0.5192,0.7315,-0.1632,2.3382,-0.1622,-0.5759,-1.0796,1.0008,0.2594,
2.843509,0.5192,0.7315,-0.1632,3.7395,-2.5012,-0.6751,-1.0796,1.0008,0.2594,
2.845305,0.5192,0.7315,-0.1632,3.7395,-2.5012,-0.6751,-0.9476,1.3902,-0.2668,
2.861424,0.5192,0.7315,-0.1632,3.7395,-2.5012,-0.6751,-1.0791,1.5910,-0.8464,
2.881398,0.0425,0.6589,-0.2521,3.7395,-2.5012,-0.6751,-1.0791,1.5910,-0.8464,
2.883154,0.0425,0.6589,-0.2521,-0.7568,-3.2684,-2.0158,-1.0791,1.5910,-0.8464,
2.885225,0.0425,0.6589,-0.2521,-0.7568,-3.2684,-2.0158,-1.6128,2.0421,-0.9694,
2.900623,0.0425,0.6589,-0.2521,-0.7568,-3.2684,-2.0158,-1.6075,1.4994,-0.8171,
2.920911,-0.2834,0.8976,0.0779,-0.7568,-3.2684,-2.0158,-1.6075,1.4994,-0.8171,
2.922888,-0.2834,0.8976,0.0779,-3.6121,-0.9717,0.5205,-1.6075,1.4994,-0.8171,
2.924730,-0.2834,0.8976,0.0779,-3.6121,-0.9717,0.5205,-1.3438,0.6706,-0.4463,
2.941217,-0.2834,0.8976,0.0779,-3.6121,-0.9717,0.5205,-1.0024,-0.2706,0.0352,
2.961278,-0.0535,0.9675,0.2382,-3.6121,-0.9717,0.5205,-1.0024,-0.2706,0.0352,
2.963192,-0.0535,0.9675,0.2382,-1.2771,-0.2711,1.6270,-1.0024,-0.2706,0.0352,
2.965075,-0.0535,0.9675,0.2382,-1.2771,-0.2711,1.6270,-0.7377,-0.5736,0.4192,
2.981131,-0.0535,0.9675,0.2382,-1.2771,-0.2711,1.6270,-0.5795,-0.3329,0.4527,
3.000934,0.2819,0.9904,0.2959,-1.2771,-0.2711,1.6270,-0.5795,-0.3329,0.4527,
3.002814,0.2819,0.9904,0.2959,1.8223,-0.0079,1.9379,-0.5795,-0.3329,0.4527,
3.004624,0.2819,0.9904,0.2959,1.8223,-0.0079,1.9379,-0.2711,-0.1854,0.2759,
3.020173,0.2819,0.9904,0.2959,1.8223,-0.0079,1.9379,0.0447,-0.1017,0.0783,
3.041099,0.1363,0.9098,0.0574,1.8223,-0.0079,1.9379,0.0447,-0.1017,0.0783,
3.042936,0.1363,0.9098,0.0574,0.3181,-0.7861,-0.4391,0.0447,-0.1017,0.0783,
3.044802,0.1363,0.9098,0.0574,0.3181,-0.7861,-0.4391,0.1779,0.0831,0.0016,
3.061245,0.1363,0.9098,0.0574,0.3181,-0.7861,-0.4391,0.1342,0.2040,0.0346,
3.081139,0.0239,0.9249,-0.0770,0.3181,-0.7861,-0.4391,0.1342,0.2040,0.0346,
3.082593,0.0239,0.9249,-0.0770,-0.7826,-0.6439,-1.6942,0.1342,0.2040,0.0346,
3.084195,0.0239,0.9249,-0.0770,-0.7826,-0.6439,-1.6942,-0.0154,0.2136,0.0836,
3.100730,0.0239,0.9249,-0.0770,-0.7826,-0.6439,-1.6942,-0.1694,0.2834,0.0858,
3.120214,0.0007,0.9802,-0.0044,-0.7826,-0.6439,-1.6942,-0.1694,0.2834,0.0858,
3.122452,0.0007,0.9802,-0.0044,-1.0222,-0.0986,-1.0130,-0.1694,0.2834,0.0858,
3.124245,0.0007,0.9802,-0.0044,-1.0222,-0.0986,-1.0130,-0.1720,0.3302,0.1124,
3.140444,0.0007,0.9802,-0.0044,-1.0222,-0.0986,-1.0130,-0.0799,0.3617,0.0874,
3.159913,-0.0594,0.9626,-0.0042,-1.0222,-0.0986,-1.0130,-0.0799,0.3617,0.0874,
3.162321,-0.0594,0.9626,-0.0042,-1.6134,-0.2664,-1.0532,-0.0799,0.3617,0.0874,
3.164369,-0.0594,0.9626,-0.0042,-1.6134,-0.2664,-1.0532,-0.0341,0.3739,0.1342,
3.180617,-0.0594,0.9626,-0.0042,-1.6134,-0.2664,-1.0532,-0.0565,0.4256,0.2786,
3.200799,-0.0931,0.9843,-0.0506,-1.6134,-0.2664,-1.0532,-0.0565,0.4256,0.2786,
3.202837,-0.0931,0.9843,-0.0506,-0.5086,-0.1505,-0.3159,-0.0565,0.4256,0.2786,
3.204899,-0.0931,0.9843,-0.0506,-0.5086,-0.1505,-0.3159,-0.1246,0.3925,0.4650,
3.221112,-0.0931,0.9843,-0.0506,-0.5086,-0.1505,-0.3159,-0.2929,0.3404,0.6210,
3.241110,-0.0364,0.9613,-0.0501,-0.5086,-0.1505,-0.3159,-0.2929,0.3404,0.6210,
3.243054,-0.0364,0.9613,-0.0501,-0.1634,-0.3830,-0.3834,-0.2929,0.3404,0.6210,
3.245032,-0.0364,0.9613,-0.0501,-0.1634,-0.3830,-0.3834,-0.4586,0.3313,0.7494,
3.260625,-0.0364,0.9613,-0.0501,-0.1634,-0.3830,-0.3834,-0.5950,0.3670,0.8330,
3.280593,0.0242,0.8619,0.0044,-0.1634,-0.3830,-0.3834,-0.5950,0.3670,0.8330,
3.282603,0.0242,0.8619,0.0044,0.1222,-1.3588,-0.0531,-0.5950,0.3670,0.8330,
3.284547,0.0242,0.8619,0.0044,0.1222,-1.3588,-0.0531,-0.6674,0.4080,0.8591,
3.300006,0.0242,0.8619,0.0044,0.1222,-1.3588,-0.0531,-0.6818,0.4394,0.8495,
3.320876,0.0831,0.9034,0.0640,0.1222,-1.3588,-0.0531,-0.6818,0.4394,0.8495,
3.323237,0.0831,0.9034,0.0640,0.3692,-0.9360,0.2628,-0.6818,0.4394,0.8495,
3.325095,0.0831,0.9034,0.0640,0.3692,-0.9360,0.2628,-0.6743,0.4788,0.8464,
3.341109,0.0831,0.9034,0.0640,0.3692,-0.9360,0.2628,-0.7073,0.4240,0.8842,
3.361870,0.1634,1.0608,0.1241,0.3692,-0.9360,0.2628,-0.7073,0.4240,0.8842,
3.364211,0.1634,1.0608,0.1241,0.7869,0.6439,0.5754,-0.7073,0.4240,0.8842,
3.365810,0.1634,1.0608,0.1241,0.7869,0.6439,0.5754,-0.8432,0.2908,0.9614,
3.380738,0.1634,1.0608,0.1241,0.7869,0.6439,0.5754,-0.9310,0.2200,1.0338,
3.400769,0.3293,1.0495,0.2753,0.7869,0.6439,0.5754,-0.9310,0.2200,1.0338,
3.402812,0.3293,1.0495,0.2753,2.0179,0.6060,1.6910,-0.9310,0.2200,1.0338,
3.404454,0.3293,1.0495,0.2753,2.0179,0.6060,1.6910,-0.8629,0.0948,1.0195,
3.420125,0.3293,1.0495,0.2753,2.0179,0.6060,1.6910,-0.6008,-0.0836,0.9039,
3.440254,0.5389,1.0422,0.4085,2.0179,0.6060,1.6910,-0.6008,-0.0836,0.9039,
3.442864,0.5389,1.0422,0.4085,3.7019,0.6213,2.7140,-0.6008,-0.0836,0.9039,
3.444579,0.5389,1.0422,0.4085,3.7019,0.6213,2.7140,-0.2370,-0.0431,0.6040,
3.460000,0.5389,1.0422,0.4085,3.7019,0.6213,2.7140,-0.0362,0.2322,0.2898,
3.480487,0.4368,0.9780,0.4126,3.7019,0.6213,2.7140,-0.0362,0.2322,0.2898,
3.482439,0.4368,0.9780,0.4126,2.5353,0.0285,2.6959,-0.0362,0.2322,0.2898,
3.484076,0.4368,0.9780,0.4126,2.5353,0.0285,2.6959,0.0522,0.4192,0.0581,
3.500393,0.4368,0.9780,0.4126,2.5353,0.0285,2.6959,0.1039,0.5151,-0.0458,
3.521529,0.2653,0.9315,0.3992,2.5353,0.0285,2.6959,0.1039,0.5151,-0.0458,
3.523551,0.2653,0.9315,0.3992,0.8708,-0.4276,2.5519,0.1039,0.5151,-0.0458,
3.525896,0.2653,0.9315,0.3992,0.8708,-0.4276,2.5519,0.2812,0.5135,-0.0469,
3.541266,0.2653,0.9315,0.3992,0.8708,-0.4276,2.5519,0.5135,0.4165,0.0783,
3.560544,0.2216,1.2462,0.2636,0.8708,-0.4276,2.5519,0.5135,0.4165,0.0783,
3.563073,0.2216,1.2462,0.2636,0.4607,2.6365,1.3431,0.5135,0.4165,0.0783,
3.564767,0.2216,1.2462,0.2636,0.4607,2.6365,1.3431,0.5438,0.4181,0.4043,
3.579721,0.2216,1.2462,0.2636,0.4607,2.6365,1.3431,0.3159,0.5518,0.5699,
3.600050,0.2646,1.1023,0.3335,0.4607,2.6365,1.3431,0.3159,0.5518,0.5699,
3.602476,0.2646,1.1023,0.3335,0.7183,1.2411,2.1576,0.3159,0.5518,0.5699,
3.603920,0.2646,1.1023,0.3335,0.7183,1.2411,2.1576,-0.0048,0.1651,0.6562,
3.620422,0.2646,1.1023,0.3335,0.7183,1.2411,2.1576,-0.1933,-0.2365,0.7915,
3.639864,0.5487,0.4002,0.3567,0.7183,1.2411,2.1576,-0.1933,-0.2365,0.7915,
3.642918,0.5487,0.4002,0.3567,3.1955,-5.5660,2.3151,-0.1933,-0.2365,0.7915,
3.644920,0.5487,0.4002,0.3567,3.1955,-5.5660,2.3151,-0.2104,-0.3169,0.5193,
3.659513,0.5487,0.4002,0.3567,3.1955,-5.5660,2.3151,0.1182,-0.3095,0.1651,
3.680731,0.1195,0.9208,0.1705,3.1955,-5.5660,2.3151,0.1182,-0.3095,0.1651,
3.683970,0.1195,0.9208,0.1705,-1.1632,-0.4264,0.4805,0.1182,-0.3095,0.1651,
3.686116,0.1195,0.9208,0.1705,-1.1632,-0.4264,0.4805,0.3659,-0.2898,0.0389,
3.703964,0.1195,0.9208,0.1705,-1.1632,-0.4264,0.4805,0.4165,-0.0415,0.1353,
3.719957,0.2116,0.9687,0.0462,-1.1632,-0.4264,0.4805,0.4165,-0.0415,0.1353,
3.722247,0.2116,0.9687,0.0462,-0.3048,0.0364,-0.5898,0.4165,-0.0415,0.1353,
3.724125,0.2116,0.9687,0.0462,-0.3048,0.0364,-0.5898,0.2210,-0.0788,0.3068,
3.740087,0.2116,0.9687,0.0462,-0.3048,0.0364,-0.5898,-0.0953,-0.3446,0.3973,
3.759497,0.3171,0.9948,0.1840,-0.3048,0.0364,-0.5898,-0.0953,-0.3446,0.3973,
3.761973,0.3171,0.9948,0.1840,0.5798,0.3297,0.7764,-0.0953,-0.3446,0.3973,
3.763411,0.3171,0.9948,0.1840,0.5798,0.3297,0.7764,-0.3169,-0.4149,0.4080,
3.779409,0.3171,0.9948,0.1840,0.5798,0.3297,0.7764,-0.2589,-0.2274,0.3270,
3.799883,0.3445,0.8214,0.2096,0.5798,0.3297,0.7764,-0.2589,-0.2274,0.3270,
3.801751,0.3445,0.8214,0.2096,0.6855,-1.3142,0.9328,-0.2589,-0.2274,0.3270,
3.803349,0.3445,0.8214,0.2096,0.6855,-1.3142,0.9328,-0.1486,-0.2269,0.2109,
3.819941,0.3445,0.8214,0.2096,0.6855,-1.3142,0.9328,-0.1348,-0.2216,0.1933,
3.840287,0.2795,0.9587,0.1375,0.6855,-1.3142,0.9328,-0.1348,-0.2216,0.1933,
3.842490,0.2795,0.9587,0.1375,-0.2115,0.1950,-0.3338,-0.1348,-0.2216,0.1933,
3.844294,0.2795,0.9587,0.1375,-0.2115,0.1950,-0.3338,-0.2413,-0.1262,0.2040,
3.859701,0.2795,0.9587,0.1375,-0.2115,0.1950,-0.3338,-0.4698,0.0341,0.3196,
3.880303,0.3029,1.0542,0.1478,-0.2115,0.1950,-0.3338,-0.4698,0.0341,0.3196,
3.882666,0.3029,1.0542,0.1478,-0.0748,1.1838,-0.3502,-0.4698,0.0341,0.3196,
3.884493,0.3029,1.0542,0.1478,-0.0748,1.1838,-0.3502,-0.7404,0.2338,0.4533,
3.899561,0.3029,1.0542,0.1478,-0.0748,1.1838,-0.3502,-1.0136,0.3121,0.5033,
3.919345,0.3887,1.0061,0.2861,-0.0748,1.1838,-0.3502,-1.0136,0.3121,0.5033,
3.921881,0.3887,1.0061,0.2861,0.6144,0.8402,0.6545,-1.0136,0.3121,0.5033,
3.923342,0.3887,1.0061,0.2861,0.6144,0.8402,0.6545,-1.0530,0.5001,0.4453,
3.939537,0.3887,1.0061,0.2861,0.6144,0.8402,0.6545,-1.0823,0.4890,0.4080,
3.959765,0.4012,0.8558,0.4041,0.6144,0.8402,0.6545,-1.0823,0.4890,0.4080,
3.962946,0.4012,0.8558,0.4041,0.6289,-0.4742,1.3627,-1.0823,0.4890,0.4080,
3.964678,0.4012,0.8558,0.4041,0.6289,-0.4742,1.3627,-1.1835,0.4740,0.4479,
3.979504,0.4012,0.8558,0.4041,0.6289,-0.4742,1.3627,-1.1308,0.4581,0.4421,
3.999808,0.5145,0.7302,0.4488,0.6289,-0.4742,1.3627,-1.1308,0.4581,0.4421,
4.002837,0.5145,0.7302,0.4488,0.8958,-1.0157,0.9058,-1.1308,0.4581,0.4421,
4.004786,0.5145,0.7302,0.4488,0.8958,-1.0157,0.9058,-0.9454,0.1838,0.3782,
4.019066,0.5145,0.7302,0.4488,0.8958,-1.0157,0.9058,-0.8725,0.1326,0.2743,
4.039939,0.4420,0.7806,0.3889,0.8958,-1.0157,0.9058,-0.8725,0.1326,0.2743,
4.042181,0.4420,0.7806,0.3889,0.1018,-0.3363,0.0023,-0.8725,0.1326,0.2743,
4.043864,0.4420,0.7806,0.3889,0.1018,-0.3363,0.0023,-0.8495,0.3143,0.1917,
4.058851,0.4420,0.7806,0.3889,0.1018,-0.3363,0.0023,-0.7739,0.3654,0.1667,
4.079592,0.4339,0.7564,0.3677,0.1018,-0.3363,0.0023,-0.7739,0.3654,0.1667,
4.081791,0.4339,0.7564,0.3677,0.0160,-0.4186,-0.5078,-0.7739,0.3654,0.1667,
4.083405,0.4339,0.7564,0.3677,0.0160,-0.4186,-0.5078,-0.7574,0.4048,-0.0048,
4.100420,0.4339,0.7564,0.3677,0.0160,-0.4186,-0.5078,-0.6573,0.5641,-0.1747,
4.119057,0.3755,0.7212,0.4158,0.0160,-0.4186,-0.5078,-0.6573,0.5641,-0.1747,
4.121263,0.3755,0.7212,0.4158,-0.4479,-0.6610,-0.3296,-0.6573,0.5641,-0.1747,
4.123159,0.3755,0.7212,0.4158,-0.4479,-0.6610,-0.3296,-0.5625,0.5635,-0.3393,
4.138332,0.3755,0.7212,0.4158,-0.4479,-0.6610,-0.3296,-0.4256,0.3382,-0.2562,
4.158561,0.4884,0.7754,0.4769,-0.4479,-0.6610,-0.3296,-0.4256,0.3382,-0.2562,
4.161998,0.4884,0.7754,0.4769,0.8155,-0.0876,0.0562,-0.4256,0.3382,-0.2562,
4.164094,0.4884,0.7754,0.4769,0.8155,-0.0876,0.0562,-0.3073,0.2727,-0.1784,
4.178132,0.4884,0.7754,0.4769,0.8155,-0.0876,0.0562,-0.3308,0.4288,-0.2439,
4.198116,0.3706,0.6157,0.4615,0.8155,-0.0876,0.0562,-0.3308,0.4288,-0.2439,
4.199912,0.3706,0.6157,0.4615,-0.2135,-1.6244,-0.2462,-0.3308,0.4288,-0.2439,
4.201250,0.3706,0.6157,0.4615,-0.2135,-1.6244,-0.2462,-0.1971,0.3867,-0.3356,
4.217708,0.3706,0.6157,0.4615,-0.2135,-1.6244,-0.2462,-0.0176,0.3270,-0.3206,
4.237939,0.1527,0.7530,0.3090,-0.2135,-1.6244,-0.2462,-0.0176,0.3270,-0.3206,
4.239576,0.1527,0.7530,0.3090,-2.1800,-0.3075,-1.8266,-0.0176,0.3270,-0.3206,
4.240865,0.1527,0.7530,0.3090,-2.1800,-0.3075,-1.8266,-0.0389,0.4927,-0.2759,
4.258015,0.1527,0.7530,0.3090,-2.1800,-0.3075,-1.8266,-0.1124,0.5300,-0.1912,
4.278101,0.2709,0.7407,0.2944,-2.1800,-0.3075,-1.8266,-0.1124,0.5300,-0.1912,
4.280426,0.2709,0.7407,0.2944,-0.8494,-0.4459,-2.0667,-0.1124,0.5300,-0.1912,
4.282278,0.2709,0.7407,0.2944,-0.8494,-0.4459,-2.0667,-0.2631,0.5167,-0.1113,
4.298140,0.2709,0.7407,0.2944,-0.8494,-0.4459,-2.0667,-0.3617,0.4346,-0.0522,
4.318098,0.3169,0.7586,0.4945,-0.8494,-0.4459,-2.0667,-0.3617,0.4346,-0.0522,
4.320357,0.3169,0.7586,0.4945,-0.2787,-0.2195,-0.2671,-0.3617,0.4346,-0.0522,
4.322217,0.3169,0.7586,0.4945,-0.2787,-0.2195,-0.2671,-0.3989,0.3212,-0.0234,
4.338242,0.3169,0.7586,0.4945,-0.2787,-0.2195,-0.2671,-0.3047,0.1864,-0.0197,
4.358473,0.3765,0.7725,0.5257,-0.2787,-0.2195,-0.2671,-0.3047,0.1864,-0.0197,
4.361832,0.3765,0.7725,0.5257,0.3621,-0.0179,-0.0933,-0.3047,0.1864,-0.0197,
4.363929,0.3765,0.7725,0.5257,0.3621,-0.0179,-0.0933,-0.1475,0.1342,-0.0602,
4.378656,0.3765,0.7725,0.5257,0.3621,-0.0179,-0.0933,-0.0373,0.1598,-0.1017,
4.399272,0.2951,0.7999,0.4823,0.3621,-0.0179,-0.0933,-0.0373,0.1598,-0.1017,
4.402574,0.2951,0.7999,0.4823,-0.3790,0.2508,-0.5553,-0.0373,0.1598,-0.1017,
4.404575,0.2951,0.7999,0.4823,-0.3790,0.2508,-0.5553,0.0458,0.1710,-0.0889,
4.419372,0.2951,0.7999,0.4823,-0.3790,0.2508,-0.5553,0.1044,0.1507,-0.1081,
4.438819,0.2905,0.7361,0.4700,-0.3790,0.2508,-0.5553,0.1044,0.1507,-0.1081,
4.441266,0.2905,0.7361,0.4700,-0.3602,-0.4074,-0.6666,0.1044,0.1507,-0.1081,
4.443145,0.2905,0.7361,0.4700,-0.3602,-0.4074,-0.6666,0.1752,0.1806,-0.1694,
4.458469,0.2905,0.7361,0.4700,-0.3602,-0.4074,-0.6666,0.2349,0.2599,-0.2658,
4.479076,0.2924,0.7705,0.4569,-0.3602,-0.4074,-0.6666,0.2349,0.2599,-0.2658,
4.481464,0.2924,0.7705,0.4569,-0.2507,-0.3523,-0.4208,0.2349,0.2599,-0.2658,
4.483294,0.2924,0.7705,0.4569,-0.2507,-0.3523,-0.4208,0.3499,0.3265,-0.3121,
4.499452,0.2924,0.7705,0.4569,-0.2507,-0.3523,-0.4208,0.4938,0.4011,-0.3121,
4.518443,0.3379,1.0241,0.4752,-0.2507,-0.3523,-0.4208,0.4938,0.4011,-0.3121,
4.521454,0.3379,1.0241,0.4752,0.3637,2.0081,-0.1419,0.4938,0.4011,-0.3121,
4.524525,0.3379,1.0241,0.4752,0.3637,2.0081,-0.1419,0.4346,0.4458,-0.3878,
4.537567,0.3379,1.0241,0.4752,0.3637,2.0081,-0.1419,0.1827,0.2514,-0.4618,
4.558504,0.2636,0.9066,0.6125,0.3637,2.0081,-0.1419,0.1827,0.2514,-0.4618,
4.560582,0.2636,0.9066,0.6125,-0.1604,0.7497,1.2630,0.1827,0.2514,-0.4618,
4.562215,0.2636,0.9066,0.6125,-0.1604,0.7497,1.2630,0.0463,-0.0245,-0.4144,
4.578127,0.2636,0.9066,0.6125,-0.1604,0.7497,1.2630,0.2061,-0.1459,-0.3457,
4.598601,0.3225,0.7530,0.5780,-0.1604,0.7497,1.2630,0.2061,-0.1459,-0.3457,
4.602802,0.3225,0.7530,0.5780,0.5187,-0.8122,0.9640,0.2061,-0.1459,-0.3457,
4.604298,0.3225,0.7530,0.5780,0.5187,-0.8122,0.9640,0.5348,-0.2599,-0.3302,
4.618502,0.3225,0.7530,0.5780,0.5187,-0.8122,0.9640,0.8346,-0.3169,-0.4160,
4.638624,0.2797,0.7823,0.4053,0.5187,-0.8122,0.9640,0.8346,-0.3169,-0.4160,
4.641262,0.2797,0.7823,0.4053,0.1575,-0.6772,-0.4869,0.8346,-0.3169,-0.4160,
4.643054,0.2797,0.7823,0.4053,0.1575,-0.6772,-0.4869,0.9257,-0.2248,-0.4948,
4.658436,0.2797,0.7823,0.4053,0.1575,-0.6772,-0.4869,0.7462,0.0032,-0.5060,
4.678638,0.2348,1.0087,0.3838,0.1575,-0.6772,-0.4869,0.7462,0.0032,-0.5060,
4.681133,0.2348,1.0087,0.3838,-0.1347,1.3486,-0.4048,0.7462,0.0032,-0.5060,
4.683030,0.2348,1.0087,0.3838,-0.1347,1.3486,-0.4048,0.4197,0.1278,-0.3979,
4.699379,0.2348,1.0087,0.3838,-0.1347,1.3486,-0.4048,0.1971,0.1720,-0.2514,
4.718695,0.2299,1.0852,0.5277,-0.1347,1.3486,-0.4048,0.1971,0.1720,-0.2514,
4.721778,0.2299,1.0852,0.5277,-0.0467,2.0165,1.0969,0.1971,0.1720,-0.2514,
4.723584,0.2299,1.0852,0.5277,-0.0467,2.0165,1.0969,0.1667,0.1641,-0.1044,
4.737926,0.2299,1.0852,0.5277,-0.0467,2.0165,1.0969,0.2945,0.0394,0.0091,
4.758352,0.2607,0.9020,0.4525,-0.0467,2.0165,1.0969,0.2945,0.0394,0.0091,
4.760526,0.2607,0.9020,0.4525,0.2876,0.1798,0.4288,0.2945,0.0394,0.0091,
4.761973,0.2607,0.9020,0.4525,0.2876,0.1798,0.4288,0.4570,-0.1001,0.0714,
4.778665,0.2607,0.9020,0.4525,0.2876,0.1798,0.4288,0.4618,-0.1433,0.1321,
4.798403,0.3222,0.7850,0.3564,0.2876,0.1798,0.4288,0.4618,-0.1433,0.1321,
4.800934,0.3222,0.7850,0.3564,0.8211,-1.0218,-0.3500,0.4618,-0.1433,0.1321,
4.802788,0.3222,0.7850,0.3564,0.8211,-1.0218,-0.3500,0.3585,-0.2093,0.2274,
4.817531,0.3222,0.7850,0.3564,0.8211,-1.0218,-0.3500,0.2466,-0.2083,0.2780,
4.838064,0.2358,0.7979,0.3433,0.8211,-1.0218,-0.3500,0.2466,-0.2083,0.2780,
4.840426,0.2358,0.7979,0.3433,-0.3703,-0.7523,-0.5743,0.2466,-0.2083,0.2780,
4.842310,0.2358,0.7979,0.3433,-0.3703,-0.7523,-0.5743,0.2402,-0.2003,0.2285,
4.858155,0.2358,0.7979,0.3433,-0.3703,-0.7523,-0.5743,0.2573,-0.2578,0.2093,
4.878353,0.1520,0.9274,0.2599,-0.3703,-0.7523,-0.5743,0.2573,-0.2578,0.2093,
4.880895,0.1520,0.9274,0.2599,-0.7035,0.1482,-0.8342,0.2573,-0.2578,0.2093,
4.882708,0.1520,0.9274,0.2599,-0.7035,0.1482,-0.8342,0.1678,-0.2525,0.2189,
4.900797,0.1520,0.9274,0.2599,-0.7035,0.1482,-0.8342,-0.0325,-0.2647,0.2109,
4.917450,0.2206,1.0412,0.4009,-0.7035,0.1482,-0.8342,-0.0325,-0.2647,0.2109,
4.920492,0.2206,1.0412,0.4009,-0.1374,1.2735,0.5930,-0.0325,-0.2647,0.2109,
4.922092,0.2206,1.0412,0.4009,-0.1374,1.2735,0.5930,-0.1752,-0.2807,0.3196,
4.938359,0.2206,1.0412,0.4009,-0.1374,1.2735,0.5930,-0.3276,-0.4341,0.4021,
4.957565,0.3858,0.8534,0.5321,-0.1374,1.2735,0.5930,-0.3276,-0.4341,0.4021,
4.959823,0.3858,0.8534,0.5321,1.2996,-0.4923,1.8088,-0.3276,-0.4341,0.4021,
4.961189,0.3858,0.8534,0.5321,1.2996,-0.4923,1.8088,-0.4224,-0.5614,0.3840,
4.977719,0.3858,0.8534,0.5321,1.2996,-0.4923,1.8088,-0.4309,-0.5784,0.2924,
4.997326,0.3516,0.8512,0.4622,1.2996,-0.4923,1.8088,-0.4309,-0.5784,0.2924,
5.000357,0.3516,0.8512,0.4622,0.7590,-0.4107,1.0148,-0.4309,-0.5784,0.2924,
5.002070,0.3516,0.8512,0.4622,0.7590,-0.4107,1.0148,-0.3462,-0.5438,0.2823,
5.017713,0.3516,0.8512,0.4622,0.7590,-0.4107,1.0148,-0.3302,-0.5124,0.2029,
5.038093,0.3269,0.8514,0.3046,0.7590,-0.4107,1.0148,-0.3302,-0.5124,0.2029,
5.040225,0.3269,0.8514,0.3046,0.0691,-0.1507,-0.7815,-0.3302,-0.5124,0.2029,
5.041938,0.3269,0.8514,0.3046,0.0691,-0.1507,-0.7815,-0.4352,-0.4075,0.0799,
5.057909,0.3269,0.8514,0.3046,0.0691,-0.1507,-0.7815,-0.6914,-0.2674,0.0591,
5.077269,0.3012,0.8333,0.2472,0.0691,-0.1507,-0.7815,-0.6914,-0.2674,0.0591,
5.080096,0.3012,0.8333,0.2472,-0.2564,-0.2403,-1.4757,-0.6914,-0.2674,0.0591,
5.082134,0.3012,0.8333,0.2472,-0.2564,-0.2403,-1.4757,-0.9848,-0.1838,0.0682,
5.099717,0.3012,0.8333,0.2472,-0.2564,-0.2403,-1.4757,-1.1926,-0.1539,0.1007,
5.117714,0.3447,0.8473,0.3894,-0.2564,-0.2403,-1.4757,-1.1926,-0.1539,0.1007,
5.120285,0.3447,0.8473,0.3894,0.1139,0.0734,-0.4011,-1.1926,-0.1539,0.1007,
5.121808,0.3447,0.8473,0.3894,0.1139,0.0734,-0.4011,-1.4301,-0.1193,0.1230,
5.137279,0.3447,0.8473,0.3894,0.1139,0.0734,-0.4011,-1.6128,-0.0692,0.1055,
5.156964,0.3474,0.7361,0.5712,0.1139,0.0734,-0.4011,-1.6128,-0.0692,0.1055,
5.159305,0.3474,0.7361,0.5712,0.0856,-0.7324,0.9058,-1.6128,-0.0692,0.1055,
5.160922,0.3474,0.7361,0.5712,0.0856,-0.7324,0.9058,-1.4956,-0.1076,0.1411,
5.176971,0.3474,0.7361,0.5712,0.0856,-0.7324,0.9058,-1.3252,-0.1667,0.1502,
5.197415,0.3100,0.8585,0.5790,0.0856,-0.7324,0.9058,-1.3252,-0.1667,0.1502,
5.199912,0.3100,0.8585,0.5790,-0.3445,0.7534,0.5699,-1.3252,-0.1667,0.1502,
5.201215,0.3100,0.8585,0.5790,-0.3445,0.7534,0.5699,-1.1840,-0.0453,0.1763,
5.217507,0.3100,0.8585,0.5790,-0.3445,0.7534,0.5699,-0.9513,0.1108,0.1891,
5.237976,0.3633,0.6806,0.5756,-0.3445,0.7534,0.5699,-0.9513,0.1108,0.1891,
5.240300,0.3633,0.6806,0.5756,0.1310,-0.7432,0.2137,-0.9513,0.1108,0.1891,
5.241917,0.3633,0.6806,0.5756,0.1310,-0.7432,0.2137,-0.7260,0.1971,0.0389,
5.257531,0.3633,0.6806,0.5756,0.1310,-0.7432,0.2137,-0.4250,0.1182,0.0091,
5.277795,0.3450,0.6174,0.4972,0.1310,-0.7432,0.2137,-0.4250,0.1182,0.0091,
5.280130,0.3450,0.6174,0.4972,-0.0230,-1.2336,-0.7432,-0.4250,0.1182,0.0091,
5.282045,0.3450,0.6174,0.4972,-0.0230,-1.2336,-0.7432,-0.2466,-0.0985,0.0336,
5.299832,0.3450,0.6174,0.4972,-0.0230,-1.2336,-0.7432,-0.2322,-0.2120,0.0293,
5.317529,0.3088,0.5409,0.4722,-0.0230,-1.2336,-0.7432,-0.2322,-0.2120,0.0293,
5.320072,0.3088,0.5409,0.4722,-0.4214,-1.9248,-1.0355,-0.2322,-0.2120,0.0293,
5.322042,0.3088,0.5409,0.4722,-0.4214,-1.9248,-1.0355,-0.1475,-0.1545,-0.0655,
5.337639,0.3088,0.5409,0.4722,-0.4214,-1.9248,-1.0355,-0.0884,-0.0804,-0.0953,
5.357611,0.2521,0.6418,0.4095,-0.4214,-1.9248,-1.0355,-0.0884,-0.0804,-0.0953,
5.360817,0.2521,0.6418,0.4095,-0.9803,-0.9203,-1.6687,-0.0884,-0.0804,-0.0953,
5.362704,0.2521,0.6418,0.4095,-0.9803,-0.9203,-1.6687,-0.1518,-0.0410,-0.0698,
5.377486,0.2521,0.6418,0.4095,-0.9803,-0.9203,-1.6687,-0.2237,-0.0905,-0.0858,
5.397413,0.3542,0.6946,0.5812,-0.9803,-0.9203,-1.6687,-0.2237,-0.0905,-0.0858,
5.399789,0.3542,0.6946,0.5812,0.0278,-0.3711,-0.0304,-0.2237,-0.0905,-0.0858,
5.401531,0.3542,0.6946,0.5812,0.0278,-0.3711,-0.0304,-0.1912,-0.0703,-0.1033,
5.418131,0.3542,0.6946,0.5812,0.0278,-0.3711,-0.0304,-0.0831,0.0399,-0.1289,
5.437441,0.2902,0.6982,0.5920,0.0278,-0.3711,-0.0304,-0.0831,0.0399,-0.1289,
5.439878,0.2902,0.6982,0.5920,-0.5405,-0.3264,0.0290,-0.0831,0.0399,-0.1289,
5.441685,0.2902,0.6982,0.5920,-0.5405,-0.3264,0.0290,0.0602,0.1124,-0.1257,
5.457554,0.2902,0.6982,0.5920,-0.5405,-0.3264,0.0290,0.1790,0.1939,-0.0826,
5.477588,0.3660,0.7793,0.6801,-0.5405,-0.3264,0.0290,0.1790,0.1939,-0.0826,
5.479891,0.3660,0.7793,0.6801,0.2681,0.4300,0.9026,0.1790,0.1939,-0.0826,
5.481577,0.3660,0.7793,0.6801,0.2681,0.4300,0.9026,0.3286,0.4101,-0.1103,
5.499171,0.3660,0.7793,0.6801,0.2681,0.4300,0.9026,0.5896,0.5704,-0.1763,
5.517034,0.3560,0.7754,0.7036,0.2681,0.4300,0.9026,0.5896,0.5704,-0.1763,
5.519729,0.3560,0.7754,0.7036,0.3224,0.2755,1.1934,0.5896,0.5704,-0.1763,
5.522160,0.3560,0.7754,0.7036,0.3224,0.2755,1.1934,1.0578,0.6434,-0.2599,
5.536760,0.3560,0.7754,0.7036,0.3224,0.2755,1.1934,1.4456,0.7238,-0.3451,
5.556346,0.2123,0.7402,0.4666,0.3224,0.2755,1.1934,1.4456,0.7238,-0.3451,
5.558304,0.2123,0.7402,0.4666,-0.8414,-0.3780,-0.8472,1.4456,0.7238,-0.3451,
5.560353,0.2123,0.7402,0.4666,-0.8414,-0.3780,-0.8472,1.5063,0.6839,-0.3585,
5.577012,0.2123,0.7402,0.4666,-0.8414,-0.3780,-0.8472,1.3630,0.5406,-0.3127,
5.597020,0.1906,0.7705,0.3596,-0.8414,-0.3780,-0.8472,1.3630,0.5406,-0.3127,
5.599314,0.1906,0.7705,0.3596,-0.8215,-0.4187,-1.5175,1.3630,0.5406,-0.3127,
5.601232,0.1906,0.7705,0.3596,-0.8215,-0.4187,-1.5175,1.1691,0.3984,-0.3111,
5.616753,0.1906,0.7705,0.3596,-0.8215,-0.4187,-1.5175,0.9353,0.2663,-0.3084,
5.636952,0.1910,0.8419,0.4625,-0.8215,-0.4187,-1.5175,0.9353,0.2663,-0.3084,
5.639475,0.1910,0.8419,0.4625,-0.6482,0.0430,-0.2066,0.9353,0.2663,-0.3084,
5.641353,0.1910,0.8419,0.4625,-0.6482,0.0430,-0.2066,0.7968,0.2322,-0.2024,
5.657135,0.1910,0.8419,0.4625,-0.6482,0.0430,-0.2066,0.8506,0.2003,-0.0943,
5.677369,0.3005,0.8771,0.4810,-0.6482,0.0430,-0.2066,0.8506,0.2003,-0.0943,
5.681016,0.3005,0.8771,0.4810,0.5101,0.2261,0.2197,0.8506,0.2003,-0.0943,
5.682572,0.3005,0.8771,0.4810,0.5101,0.2261,0.2197,0.9870,0.1917,-0.0756,
5.700513,0.3005,0.8771,0.4810,0.5101,0.2261,0.2197,0.9534,0.2120,-0.1364,
5.716466,0.2604,0.9936,0.4678,0.5101,0.2261,0.2197,0.9534,0.2120,-0.1364,
5.718578,0.2604,0.9936,0.4678,0.1484,1.2999,0.2027,0.9534,0.2120,-0.1364,
5.720236,0.2604,0.9936,0.4678,0.1484,1.2999,0.2027,0.7313,0.1848,-0.1587,
5.736682,0.2604,0.9936,0.4678,0.1484,1.2999,0.2027,0.4197,0.2264,-0.1017,
5.757425,0.3276,0.9645,0.5494,0.1484,1.2999,0.2027,0.4197,0.2264,-0.1017,
5.759442,0.3276,0.9645,0.5494,0.8855,0.9046,1.1774,0.4197,0.2264,-0.1017,
5.761088,0.3276,0.9645,0.5494,0.8855,0.9046,1.1774,0.3111,0.2972,-0.0485,
5.776991,0.3276,0.9645,0.5494,0.8855,0.9046,1.1774,0.2482,0.3020,-0.0320,
5.796681,0.2827,0.9826,0.4898,0.8855,0.9046,1.1774,0.2482,0.3020,-0.0320,
5.798538,0.2827,0.9826,0.4898,0.5086,1.0315,0.6615,0.2482,0.3020,-0.0320,
5.800148,0.2827,0.9826,0.4898,0.5086,1.0315,0.6615,0.1278,0.2306,-0.0080,
5.816247,0.2827,0.9826,0.4898,0.5086,1.0315,0.6615,0.0698,0.3238,0.0123,
5.836827,0.2516,0.8045,0.3875,0.5086,1.0315,0.6615,0.0698,0.3238,0.0123,
5.838963,0.2516,0.8045,0.3875,0.2397,-0.7254,-0.3368,0.0698,0.3238,0.0123,
5.840931,0.2516,0.8045,0.3875,0.2397,-0.7254,-0.3368,0.1172,0.3212,0.0479,
5.856058,0.2516,0.8045,0.3875,0.2397,-0.7254,-0.3368,0.1635,0.2658,0.0921,
5.876919,0.3152,0.6569,0.2597,0.2397,-0.7254,-0.3368,0.1635,0.2658,0.0921,
5.879221,0.3152,0.6569,0.2597,0.5758,-2.1292,-1.5120,0.1635,0.2658,0.0921,
5.881081,0.3152,0.6569,0.2597,0.5758,-2.1292,-1.5120,0.1039,0.1550,0.0889,
5.896645,0.3152,0.6569,0.2597,0.5758,-2.1292,-1.5120,-0.0218,0.0107,0.0293,
5.917715,0.2431,0.8275,0.3230,0.5758,-2.1292,-1.5120,-0.0218,0.0107,0.0293,
5.920063,0.2431,0.8275,0.3230,-0.1399,-0.4590,-0.8840,-0.0218,0.0107,0.0293,
5.921963,0.2431,0.8275,0.3230,-0.1399,-0.4590,-0.8840,-0.1475,-0.1273,0.0181,
5.936199,0.2431,0.8275,0.3230,-0.1399,-0.4590,-0.8840,-0.2658,-0.2908,0.0176,
5.956274,0.1564,1.0256,0.3931,-0.1399,-0.4590,-0.8840,-0.2658,-0.2908,0.0176,
5.959963,0.1564,1.0256,0.3931,-1.0152,1.5050,-0.2281,-0.2658,-0.2908,0.0176,
5.962378,0.1564,1.0256,0.3931,-1.0152,1.5050,-0.2281,-0.3686,-0.4767,0.0634,
5.975444,0.1564,1.0256,0.3931,-1.0152,1.5050,-0.2281,-0.5252,-0.7324,0.0708,
5.996119,0.2604,0.8685,0.4529,-1.0152,1.5050,-0.2281,-0.5252,-0.7324,0.0708,
5.997776,0.2604,0.8685,0.4529,-0.1044,0.0379,0.2779,-0.5252,-0.7324,0.0708,
5.999011,0.2604,0.8685,0.4529,-0.1044,0.0379,0.2779,-0.6610,-0.8304,0.1161,
6.015268,0.2604,0.8685,0.4529,-0.1044,0.0379,0.2779,-0.7404,-0.7478,0.1742,
6.036605,0.3386,0.8570,0.5253,-0.1044,0.0379,0.2779,-0.7404,-0.7478,0.1742,
6.038740,0.3386,0.8570,0.5253,0.4818,0.0596,0.8370,-0.7404,-0.7478,0.1742,
6.040422,0.3386,0.8570,0.5253,0.4818,0.0596,0.8370,-0.7388,-0.5577,0.1928,
6.056104,0.3386,0.8570,0.5253,0.4818,0.0596,0.8370,-0.7302,-0.4032,0.2035,
6.076762,0.3132,0.9760,0.4627,0.4818,0.0596,0.8370,-0.7302,-0.4032,0.2035,
6.080411,0.3132,0.9760,0.4627,0.0867,1.3745,0.0411,-0.7302,-0.4032,0.2035,
6.081933,0.3132,0.9760,0.4627,0.0867,1.3745,0.0411,-0.8288,-0.4357,0.2690,
6.097830,0.3132,0.9760,0.4627,0.0867,1.3745,0.0411,-0.9939,-0.4906,0.2471,
6.116095,0.4151,0.8216,0.3860,0.0867,1.3745,0.0411,-0.9939,-0.4906,0.2471,
6.118277,0.4151,0.8216,0.3860,0.9126,0.0520,-0.9310,-0.9939,-0.4906,0.2471,
6.119912,0.4151,0.8216,0.3860,0.9126,0.0520,-0.9310,-1.0551,-0.2786,0.1827,
6.135266,0.4151,0.8216,0.3860,0.9126,0.0520,-0.9310,-1.2895,-0.1939,0.1305,
6.155552,0.3516,0.7859,0.5485,0.9126,0.0520,-0.9310,-1.2895,-0.1939,0.1305,
6.157478,0.3516,0.7859,0.5485,0.1924,-0.0570,0.3366,-1.2895,-0.1939,0.1305,
6.158475,0.3516,0.7859,0.5485,0.1924,-0.0570,0.3366,-1.4552,-0.2956,0.1710,
6.176127,0.3516,0.7859,0.5485,0.1924,-0.0570,0.3366,-1.3577,-0.3004,0.1470,
6.196036,0.3877,0.7415,0.6064,0.1924,-0.0570,0.3366,-1.3577,-0.3004,0.1470,
6.198722,0.3877,0.7415,0.6064,0.4321,-0.1828,0.5258,-1.3577,-0.3004,0.1470,
6.200349,0.3877,0.7415,0.6064,0.4321,-0.1828,0.5258,-1.2362,-0.4932,0.0703,
6.215585,0.3877,0.7415,0.6064,0.4321,-0.1828,0.5258,-1.1697,-0.6115,0.0000,
6.235877,0.3987,0.6613,0.5795,0.4321,-0.1828,0.5258,-1.1697,-0.6115,0.0000,
6.237954,0.3987,0.6613,0.5795,0.3976,-0.6995,-0.0035,-1.1697,-0.6115,0.0000,
6.239845,0.3987,0.6613,0.5795,0.3976,-0.6995,-0.0035,-0.9721,-0.3137,-0.1150,
6.255954,0.3987,0.6613,0.5795,0.3976,-0.6995,-0.0035,-0.7121,-0.0458,-0.2898,
6.276644,0.3530,0.5976,0.5404,0.3976,-0.6995,-0.0035,-0.7121,-0.0458,-0.2898,
6.278992,0.3530,0.5976,0.5404,-0.0402,-1.1585,-0.5961,-0.7121,-0.0458,-0.2898,
6.281018,0.3530,0.5976,0.5404,-0.0402,-1.1585,-0.5961,-0.5374,-0.0112,-0.4485,
6.297494,0.3530,0.5976,0.5404,-0.0402,-1.1585,-0.5961,-0.3372,-0.0730,-0.4527,
6.316070,0.3188,0.6369,0.4837,-0.0402,-1.1585,-0.5961,-0.3372,-0.0730,-0.4527,
6.318417,0.3188,0.6369,0.4837,-0.2610,-0.7315,-1.2664,-0.3372,-0.0730,-0.4527,
6.320382,0.3188,0.6369,0.4837,-0.2610,-0.7315,-1.2664,-0.2258,-0.0293,-0.4181,
6.335332,0.3188,0.6369,0.4837,-0.2610,-0.7315,-1.2664,-0.2338,-0.0330,-0.4176,
6.355790,0.2553,0.6574,0.4073,-0.2610,-0.7315,-1.2664,-0.2338,-0.0330,-0.4176,
6.358134,0.2553,0.6574,0.4073,-0.7745,-0.5306,-2.0757,-0.2338,-0.0330,-0.4176,
6.360137,0.2553,0.6574,0.4073,-0.7745,-0.5306,-2.0757,-0.2615,-0.0549,-0.4847,
6.375763,0.2553,0.6574,0.4073,-0.7745,-0.5306,-2.0757,-0.2722,-0.0650,-0.4304,
6.395570,0.1915,0.7305,0.4634,-0.7745,-0.5306,-2.0757,-0.2722,-0.0650,-0.4304,
6.397797,0.1915,0.7305,0.4634,-1.2866,0.1914,-1.5917,-0.2722,-0.0650,-0.4304,
6.399732,0.1915,0.7305,0.4634,-1.2866,0.1914,-1.5917,-0.1949,-0.1119,-0.3617,
6.415486,0.1915,0.7305,0.4634,-1.2866,0.1914,-1.5917,-0.1044,-0.1284,-0.3228,
6.435462,0.2597,0.7701,0.5018,-1.2866,0.1914,-1.5917,-0.1044,-0.1284,-0.3228,
6.437602,0.2597,0.7701,0.5018,-0.5118,0.4416,-1.1111,-0.1044,-0.1284,-0.3228,
6.439392,0.2597,0.7701,0.5018,-0.5118,0.4416,-1.1111,-0.0943,-0.0980,-0.2754,
6.455397,0.2597,0.7701,0.5018,-0.5118,0.4416,-1.1111,-0.0559,-0.1390,-0.2392,
6.475976,0.3520,0.7774,0.6704,-0.5118,0.4416,-1.1111,-0.0559,-0.1390,-0.2392,
6.478364,0.3520,0.7774,0.6704,0.4672,0.1591,0.9454,-0.0559,-0.1390,-0.2392,
6.480004,0.3520,0.7774,0.6704,0.4672,0.1591,0.9454,0.0895,-0.1364,-0.2589,
6.497825,0.3520,0.7774,0.6704,0.4672,0.1591,0.9454,0.3340,-0.0181,-0.3206,
6.515927,0.3174,0.6198,0.6367,0.4672,0.1591,0.9454,0.3340,-0.0181,-0.3206,
6.517994,0.3174,0.6198,0.6367,0.1912,-1.4549,0.6747,0.3340,-0.0181,-0.3206,
6.520190,0.3174,0.6198,0.6367,0.1912,-1.4549,0.6747,0.6370,0.1433,-0.3782,
6.535595,0.3174,0.6198,0.6367,0.1912,-1.4549,0.6747,0.8874,0.2855,-0.3782,
6.555871,0.2553,0.7669,0.5150,0.1912,-1.4549,0.6747,0.8874,0.2855,-0.3782,
6.558015,0.2553,0.7669,0.5150,-0.2587,-0.2153,-0.3183,0.8874,0.2855,-0.3782,
6.560001,0.2553,0.7669,0.5150,-0.2587,-0.2153,-0.3183,1.0157,0.4400,-0.3728,
6.575946,0.2553,0.7669,0.5150,-0.2587,-0.2153,-0.3183,1.0205,0.5736,-0.3601,
6.595523,0.2485,0.9394,0.5607,-0.2587,-0.2153,-0.3183,1.0205,0.5736,-0.3601,
6.597783,0.2485,0.9394,0.5607,-0.1058,1.2282,0.3884,1.0205,0.5736,-0.3601,
6.599334,0.2485,0.9394,0.5607,-0.1058,1.2282,0.3884,0.8282,0.3941,-0.3755,
6.614595,0.2485,0.9394,0.5607,-0.1058,1.2282,0.3884,0.6642,0.1523,-0.3388,
6.635288,0.2360,0.8944,0.6401,-0.1058,1.2282,0.3884,0.6642,0.1523,-0.3388,
6.637523,0.2360,0.8944,0.6401,-0.0577,0.6080,1.3726,0.6642,0.1523,-0.3388,
6.639138,0.2360,0.8944,0.6401,-0.0577,0.6080,1.3726,0.7324,-0.0021,-0.2264,
6.654674,0.2360,0.8944,0.6401,-0.0577,0.6080,1.3726,0.9742,-0.1672,-0.1609,
6.675386,0.2722,0.7718,0.4547,-0.0577,0.6080,1.3726,0.9742,-0.1672,-0.1609,
6.677793,0.2722,0.7718,0.4547,0.3362,-0.7600,-0.1770,0.9742,-0.1672,-0.1609,
6.679503,0.2722,0.7718,0.4547,0.3362,-0.7600,-0.1770,1.1036,-0.2194,-0.1933,
6.697824,0.2722,0.7718,0.4547,0.3362,-0.7600,-0.1770,1.0301,-0.1284,-0.2381,
6.714884,0.2665,0.8067,0.3401,0.3362,-0.7600,-0.1770,1.0301,-0.1284,-0.2381,
6.717852,0.2665,0.8067,0.3401,0.3125,-0.6199,-0.9331,1.0301,-0.1284,-0.2381,
6.720086,0.2665,0.8067,0.3401,0.3125,-0.6199,-0.9331,0.8655,0.1033,-0.2280,
6.735330,0.2665,0.8067,0.3401,0.3125,-0.6199,-0.9331,0.7116,0.2935,-0.2471,
6.755219,0.2350,0.9249,0.4466,0.3125,-0.6199,-0.9331,0.7116,0.2935,-0.2471,
6.758137,0.2350,0.9249,0.4466,0.1069,0.3970,0.3489,0.7116,0.2935,-0.2471,
6.759843,0.2350,0.9249,0.4466,0.1069,0.3970,0.3489,0.5731,0.3542,-0.2477,
6.774805,0.2350,0.9249,0.4466,0.1069,0.3970,0.3489,0.3675,0.1965,-0.1353,
6.795238,0.1456,1.0261,0.5025,0.1069,0.3970,0.3489,0.3675,0.1965,-0.1353,
6.798325,0.1456,1.0261,0.5025,-0.6566,1.2999,1.0305,0.3675,0.1965,-0.1353,
6.800207,0.1456,1.0261,0.5025,-0.6566,1.2999,1.0305,0.1800,0.1923,0.0602,
6.815347,0.1456,1.0261,0.5025,-0.6566,1.2999,1.0305,0.2338,0.2850,0.1891,
6.834654,0.3110,0.9423,0.4515,-0.6566,1.2999,1.0305,0.2338,0.2850,0.1891,
6.836884,0.3110,0.9423,0.4515,0.9554,0.4594,0.5786,0.2338,0.2850,0.1891,
6.838372,0.3110,0.9423,0.4515,0.9554,0.4594,0.5786,0.3159,0.1076,0.3505,
6.855177,0.3110,0.9423,0.4515,0.9554,0.4594,0.5786,0.2258,-0.0154,0.2844,
6.875481,0.2712,0.8438,0.5389,0.9554,0.4594,0.5786,0.2258,-0.0154,0.2844,
6.877506,0.2712,0.8438,0.5389,0.4569,-0.5119,1.5117,0.2258,-0.0154,0.2844,
6.879048,0.2712,0.8438,0.5389,0.4569,-0.5119,1.5117,0.1454,-0.2040,0.1870,
6.896117,0.2712,0.8438,0.5389,0.4569,-0.5119,1.5117,0.2525,-0.4123,0.2562,
6.915349,0.1517,0.9372,0.3423,0.4569,-0.5119,1.5117,0.2525,-0.4123,0.2562,
6.917506,0.1517,0.9372,0.3423,-0.8294,0.3957,-0.3293,0.2525,-0.4123,0.2562,
6.919233,0.1517,0.9372,0.3423,-0.8294,0.3957,-0.3293,0.1651,-0.4985,0.2365,
6.934768,0.1517,0.9372,0.3423,-0.8294,0.3957,-0.3293,-0.0160,-0.5241,0.1577,
6.954903,0.1915,0.7718,0.3687,-0.8294,0.3957,-0.3293,-0.0160,-0.5241,0.1577,
6.957060,0.1915,0.7718,0.3687,-0.5727,-1.2148,-0.0086,-0.0160,-0.5241,0.1577,
6.958898,0.1915,0.7718,0.3687,-0.5727,-1.2148,-0.0086,-0.1598,-0.5369,0.2157,
6.974199,0.1915,0.7718,0.3687,-0.5727,-1.2148,-0.0086,-0.3414,-0.6120,0.3132,
6.994776,0.2446,0.9064,0.3906,-0.5727,-1.2148,-0.0086,-0.3414,-0.6120,0.3132,
6.997285,0.2446,0.9064,0.3906,-0.2142,0.1677,0.1669,-0.3414,-0.6120,0.3132,
6.998920,0.2446,0.9064,0.3906,-0.2142,0.1677,0.1669,-0.5593,-0.7111,0.3489,
7.014899,0.2446,0.9064,0.3906,-0.2142,0.1677,0.1669,-0.5358,-0.5779,0.3318,
7.035066,0.2827,0.8917,0.4332,-0.2142,0.1677,0.1669,-0.5358,-0.5779,0.3318,
7.037157,0.2827,0.8917,0.4332,-0.0387,0.1416,0.4544,-0.5358,-0.5779,0.3318,
7.038793,0.2827,0.8917,0.4332,-0.0387,0.1416,0.4544,-0.4250,-0.5081,0.3712,
7.054720,0.2827,0.8917,0.4332,-0.0387,0.1416,0.4544,-0.6477,-0.5635,0.3041,
7.074457,0.3650,0.8446,0.4246,-0.0387,0.1416,0.4544,-0.6477,-0.5635,0.3041,
7.077783,0.3650,0.8446,0.4246,0.5729,-0.1982,0.2468,-0.6477,-0.5635,0.3041,
7.080040,0.3650,0.8446,0.4246,0.5729,-0.1982,0.2468,-0.7739,-0.2812,0.2519,
7.097161,0.3650,0.8446,0.4246,0.5729,-0.1982,0.2468,-0.8453,-0.1039,0.2322,
7.113778,0.3921,0.8854,0.4683,0.5729,-0.1982,0.2468,-0.8453,-0.1039,0.2322,
7.116836,0.3921,0.8854,0.4683,0.7261,0.3620,0.4273,-0.8453,-0.1039,0.2322,
7.118679,0.3921,0.8854,0.4683,0.7261,0.3620,0.4273,-1.0562,-0.1779,0.2951,
7.133569,0.3921,0.8854,0.4683,0.7261,0.3620,0.4273,-1.2155,-0.1097,0.2477,
7.153447,0.4219,0.7813,0.5729,0.7261,0.3620,0.4273,-1.2155,-0.1097,0.2477,
7.154295,0.4219,0.7813,0.5729,0.8973,-0.4217,1.0945,-1.2155,-0.1097,0.2477,
7.154905,0.4219,0.7813,0.5729,0.8973,-0.4217,1.0945,-1.2181,-0.1923,0.1316,
7.174266,0.4219,0.7813,0.5729,0.8973,-0.4217,1.0945,-1.2022,-0.4810,0.0751,
7.194222,0.3349,0.7080,0.5839,0.8973,-0.4217,1.0945,-1.2022,-0.4810,0.0751,
7.196808,0.3349,0.7080,0.5839,-0.0564,-0.8900,0.8500,-1.2022,-0.4810,0.0751,
7.198633,0.3349,0.7080,0.5839,-0.0564,-0.8900,0.8500,-1.1739,-0.5246,0.0431,
7.214447,0.3349,0.7080,0.5839,-0.0564,-0.8900,0.8500,-0.8639,-0.4948,-0.0261,
7.234644,0.3870,0.6704,0.5294,-0.0564,-0.8900,0.8500,-0.8639,-0.4948,-0.0261,
7.236798,0.3870,0.6704,0.5294,0.3405,-1.0458,0.0638,-0.8639,-0.4948,-0.0261,
7.238473,0.3870,0.6704,0.5294,0.3405,-1.0458,0.0638,-0.6141,-0.3276,-0.1156,
7.254031,0.3870,0.6704,0.5294,0.3405,-1.0458,0.0638,-0.3894,-0.0820,-0.1987,
7.274122,0.3606,0.5416,0.4525,0.3405,-1.0458,0.0638,-0.3894,-0.0820,-0.1987,
7.276184,0.3606,0.5416,0.4525,0.0871,-2.2253,-0.8138,-0.3894,-0.0820,-0.1987,
7.278004,0.3606,0.5416,0.4525,0.0871,-2.2253,-0.8138,-0.2610,-0.0607,-0.1848,
7.295301,0.3606,0.5416,0.4525,0.0871,-2.2253,-0.8138,-0.1182,-0.0522,-0.1800,
7.314063,0.2524,0.7075,0.3677,0.0871,-2.2253,-0.8138,-0.1182,-0.0522,-0.1800,
7.316213,0.2524,0.7075,0.3677,-0.9306,-0.5847,-1.6938,-0.1182,-0.0522,-0.1800,
7.318078,0.2524,0.7075,0.3677,-0.9306,-0.5847,-1.6938,-0.1518,-0.0863,-0.2067,
7.333726,0.2524,0.7075,0.3677,-0.9306,-0.5847,-1.6938,-0.2466,-0.0027,-0.2109,
7.353998,0.1989,0.7029,0.4808,-0.9306,-0.5847,-1.6938,-0.2466,-0.0027,-0.2109,
7.357247,0.1989,0.7029,0.4808,-1.4017,-0.6160,-0.6391,-0.2466,-0.0027,-0.2109,
7.359400,0.1989,0.7029,0.4808,-1.4017,-0.6160,-0.6391,-0.2093,0.2008,-0.1790,
7.373899,0.1989,0.7029,0.4808,-1.4017,-0.6160,-0.6391,-0.0192,0.3238,-0.1278,
7.394315,0.3242,0.7075,0.4896,-1.4017,-0.6160,-0.6391,-0.0192,0.3238,-0.1278,
7.396690,0.3242,0.7075,0.4896,-0.0710,-0.5663,-0.6216,-0.0192,0.3238,-0.1278,
7.398997,0.3242,0.7075,0.4896,-0.0710,-0.5663,-0.6216,0.1944,0.3254,-0.1294,
7.414362,0.3242,0.7075,0.4896,-0.0710,-0.5663,-0.6216,0.2796,0.2466,-0.1672,
7.433992,0.3823,0.7363,0.4889,-0.0710,-0.5663,-0.6216,0.2796,0.2466,-0.1672,
7.436327,0.3823,0.7363,0.4889,0.6022,-0.3541,-0.5919,0.2796,0.2466,-0.1672,
7.438089,0.3823,0.7363,0.4889,0.6022,-0.3541,-0.5919,0.2642,0.2360,-0.2045,
7.453789,0.3823,0.7363,0.4889,0.6022,-0.3541,-0.5919,0.2892,0.3377,-0.3100,
7.473852,0.3433,0.7327,0.6567,0.6022,-0.3541,-0.5919,0.2892,0.3377,-0.3100,
7.476006,0.3433,0.7327,0.6567,0.3477,-0.4708,1.0938,0.2892,0.3377,-0.3100,
7.477670,0.3433,0.7327,0.6567,0.3477,-0.4708,1.0938,0.4501,0.4581,-0.4059,
7.495292,0.3433,0.7327,0.6567,0.3477,-0.4708,1.0938,0.7441,0.5188,-0.4485,
7.514318,0.2384,0.8385,0.6736,0.3477,-0.4708,1.0938,0.7441,0.5188,-0.4485,
7.516369,0.2384,0.8385,0.6736,-0.4455,0.4032,1.3687,0.7441,0.5188,-0.4485,
7.518387,0.2384,0.8385,0.6736,-0.4455,0.4032,1.3687,1.0360,0.6115,-0.4421,
7.533617,0.2384,0.8385,0.6736,-0.4455,0.4032,1.3687,1.1340,0.4474,-0.4181,
7.553736,0.2282,0.8881,0.5331,-0.4455,0.4032,1.3687,1.1340,0.4474,-0.4181,
7.556736,0.2282,0.8881,0.5331,-0.3011,0.6304,0.2676,1.1340,0.4474,-0.4181,
7.558464,0.2282,0.8881,0.5331,-0.3011,0.6304,0.2676,1.0583,0.1433,-0.3910,
7.573810,0.2282,0.8881,0.5331,-0.3011,0.6304,0.2676,1.0461,0.0953,-0.3808,
7.593286,0.2599,0.9088,0.4336,-0.3011,0.6304,0.2676,1.0461,0.0953,-0.3808,
7.595158,0.2599,0.9088,0.4336,0.1567,0.5989,-0.3805,1.0461,0.0953,-0.3808,
7.596888,0.2599,0.9088,0.4336,0.1567,0.5989,-0.3805,0.9928,-0.0005,-0.3542,
7.613822,0.2599,0.9088,0.4336,0.1567,0.5989,-0.3805,0.8847,-0.0937,-0.2908,
7.634249,0.2812,0.9464,0.3865,0.1567,0.5989,-0.3805,0.8847,-0.0937,-0.2908,
7.636362,0.2812,0.9464,0.3865,0.4604,0.7711,-0.5231,0.8847,-0.0937,-0.2908,
7.637997,0.2812,0.9464,0.3865,0.4604,0.7711,-0.5231,0.6551,-0.1246,-0.2439,
7.653625,0.2812,0.9464,0.3865,0.4604,0.7711,-0.5231,0.4011,-0.0501,-0.2035,
7.673974,0.2257,0.8890,0.4974,0.4604,0.7711,-0.5231,0.4011,-0.0501,-0.2035,
7.677739,0.2257,0.8890,0.4974,-0.0244,0.1039,0.7442,0.4011,-0.0501,-0.2035,
7.679888,0.2257,0.8890,0.4974,-0.0244,0.1039,0.7442,0.2658,0.0250,-0.1587,
7.695379,0.2257,0.8890,0.4974,-0.0244,0.1039,0.7442,0.3366,0.0996,-0.1454,
7.713918,0.2055,0.8473,0.4845,-0.0244,0.1039,0.7442,0.3366,0.0996,-0.1454,
7.715947,0.2055,0.8473,0.4845,-0.1621,-0.3593,0.6980,0.3366,0.0996,-0.1454,
7.717757,0.2055,0.8473,0.4845,-0.1621,-0.3593,0.6980,0.4155,0.1470,-0.1577,
7.733678,0.2055,0.8473,0.4845,-0.1621,-0.3593,0.6980,0.2860,0.1065,-0.0554,
7.753651,0.1901,0.9078,0.4522,-0.1621,-0.3593,0.6980,0.2860,0.1065,-0.0554,
7.757166,0.1901,0.9078,0.4522,-0.1805,0.4102,-0.0373,0.2860,0.1065,-0.0554,
7.759083,0.1901,0.9078,0.4522,-0.1805,0.4102,-0.0373,0.0735,0.1193,0.1135,
7.773347,0.1901,0.9078,0.4522,-0.1805,0.4102,-0.0373,0.0176,0.1470,0.2051,
7.794492,0.3626,0.8084,0.3938,-0.1805,0.4102,-0.0373,0.0176,0.1470,0.2051,
7.796669,0.3626,0.8084,0.3938,1.4539,-0.5565,-0.5984,0.0176,0.1470,0.2051,
7.798509,0.3626,0.8084,0.3938,1.4539,-0.5565,-0.5984,0.1406,0.0884,0.2445,
7.812881,0.3626,0.8084,0.3938,1.4539,-0.5565,-0.5984,0.1278,-0.0202,0.1747,
7.833436,0.1810,0.8617,0.3616,1.4539,-0.5565,-0.5984,0.1278,-0.0202,0.1747,
7.835756,0.1810,0.8617,0.3616,-0.3963,-0.0445,-0.8611,0.1278,-0.0202,0.1747,
7.837757,0.1810,0.8617,0.3616,-0.3963,-0.0445,-0.8611,0.0794,-0.1779,0.0932,
7.853188,0.1810,0.8617,0.3616,-0.3963,-0.0445,-0.8611,-0.0069,-0.3878,0.1150,
7.873377,0.1351,0.9093,0.3469,-0.3963,-0.0445,-0.8611,-0.0069,-0.3878,0.1150,
7.875812,0.1351,0.9093,0.3469,-0.9216,0.4141,-0.9507,-0.0069,-0.3878,0.1150,
7.877621,0.1351,0.9093,0.3469,-0.9216,0.4141,-0.9507,-0.1635,-0.5230,0.2147,
7.895834,0.1351,0.9093,0.3469,-0.9216,0.4141,-0.9507,-0.3419,-0.7063,0.2162,
7.913781,0.2748,0.8678,0.4923,-0.9216,0.4141,-0.9507,-0.3419,-0.7063,0.2162,
7.915926,0.2748,0.8678,0.4923,0.2745,0.0661,0.4521,-0.3419,-0.7063,0.2162,
7.917402,0.2748,0.8678,0.4923,0.2745,0.0661,0.4521,-0.4080,-0.8011,0.2333,
7.933236,0.2748,0.8678,0.4923,0.2745,0.0661,0.4521,-0.4357,-0.8000,0.3324,
7.953161,0.3415,0.8629,0.5612,0.2745,0.0661,0.4521,-0.4357,-0.8000,0.3324,
7.955108,0.3415,0.8629,0.5612,0.6932,0.1223,1.0643,-0.4357,-0.8000,0.3324,
7.956759,0.3415,0.8629,0.5612,0.6932,0.1223,1.0643,-0.5412,-0.6993,0.3627,
7.973506,0.3415,0.8629,0.5612,0.6932,0.1223,1.0643,-0.6088,-0.5342,0.3366,
7.993350,0.2937,0.9110,0.4737,0.6932,0.1223,1.0643,-0.6088,-0.5342,0.3366,
7.995304,0.2937,0.9110,0.4737,0.1725,0.6492,0.1353,-0.6088,-0.5342,0.3366,
7.996971,0.2937,0.9110,0.4737,0.1725,0.6492,0.1353,-0.7047,-0.4607,0.3057,
8.012980,0.2937,0.9110,0.4737,0.1725,0.6492,0.1353,-0.8554,-0.4969,0.3451,
8.033745,0.3733,0.9193,0.3726,0.1725,0.6492,0.1353,-0.8554,-0.4969,0.3451,
8.035736,0.3733,0.9193,0.3726,0.7562,0.9040,-1.0446,-0.8554,-0.4969,0.3451,
8.037404,0.3733,0.9193,0.3726,0.7562,0.9040,-1.0446,-0.9630,-0.2184,0.3222,
8.053004,0.3733,0.9193,0.3726,0.7562,0.9040,-1.0446,-1.2123,-0.0410,0.2535,
8.072666,0.4156,0.7522,0.5094,0.7562,0.9040,-1.0446,-1.2123,-0.0410,0.2535,
8.073727,0.4156,0.7522,0.5094,1.0397,-0.4940,-0.0184,-1.2123,-0.0410,0.2535,
8.074542,0.4156,0.7522,0.5094,1.0397,-0.4940,-0.0184,-1.3167,-0.0192,0.1656,
8.092270,0.4156,0.7522,0.5094,1.0397,-0.4940,-0.0184,-1.3124,-0.3047,0.0533,
8.113512,0.2863,0.7161,0.5570,1.0397,-0.4940,-0.0184,-1.3124,-0.3047,0.0533,
8.117359,0.2863,0.7161,0.5570,-0.3010,-0.5688,0.0767,-1.3124,-0.3047,0.0533,
8.118920,0.2863,0.7161,0.5570,-0.3010,-0.5688,0.0767,-1.2570,-0.4421,-0.0085,
8.133650,0.2863,0.7161,0.5570,-0.3010,-0.5688,0.0767,-1.0754,-0.4336,0.0362,
8.153045,0.4046,0.6384,0.5790,-0.3010,-0.5688,0.0767,-1.0754,-0.4336,0.0362,
8.155123,0.4046,0.6384,0.5790,0.7443,-1.0703,0.0065,-1.0754,-0.4336,0.0362,
8.156895,0.4046,0.6384,0.5790,0.7443,-1.0703,0.0065,-0.8650,-0.2631,0.0218,
8.172812,0.4046,0.6384,0.5790,0.7443,-1.0703,0.0065,-0.5598,-0.0975,-0.0692,
8.193268,0.4014,0.6953,0.5817,0.7443,-1.0703,0.0065,-0.5598,-0.0975,-0.0692,
8.195767,0.4014,0.6953,0.5817,0.6616,-0.3508,-0.1415,-0.5598,-0.0975,-0.0692,
8.197358,0.4014,0.6953,0.5817,0.6616,-0.3508,-0.1415,-0.2578,-0.0288,-0.1039,
8.213207,0.4014,0.6953,0.5817,0.6616,-0.3508,-0.1415,-0.0607,0.0948,-0.1870,
8.232732,0.2761,0.6362,0.4481,0.6616,-0.3508,-0.1415,-0.0607,0.0948,-0.1870,
8.234960,0.2761,0.6362,0.4481,-0.5191,-0.9126,-1.4990,-0.0607,0.0948,-0.1870,
8.236982,0.2761,0.6362,0.4481,-0.5191,-0.9126,-1.4990,-0.0165,0.1017,-0.2296,
8.252671,0.2761,0.6362,0.4481,-0.5191,-0.9126,-1.4990,-0.0320,0.1166,-0.2115,
8.273067,0.2211,0.6137,0.3811,-0.5191,-0.9126,-1.4990,-0.0320,0.1166,-0.2115,
8.275699,0.2211,0.6137,0.3811,-0.9691,-1.1551,-2.1758,-0.0320,0.1166,-0.2115,
8.277564,0.2211,0.6137,0.3811,-0.9691,-1.1551,-2.1758,-0.0469,0.1539,-0.1422,
8.292559,0.2211,0.6137,0.3811,-0.9691,-1.1551,-2.1758,0.0186,0.1774,-0.1236,
8.312626,0.2788,0.6618,0.4857,-0.9691,-1.1551,-2.1758,0.0186,0.1774,-0.1236,
8.314888,0.2788,0.6618,0.4857,-0.3268,-0.6966,-1.1756,0.0186,0.1774,-0.1236,
8.316896,0.2788,0.6618,0.4857,-0.3268,-0.6966,-1.1756,0.1603,0.1443,-0.1454,
8.332765,0.2788,0.6618,0.4857,-0.3268,-0.6966,-1.1756,0.3356,0.1454,-0.1763,
8.352884,0.3594,0.6924,0.5389,-0.3268,-0.6966,-1.1756,0.3356,0.1454,-0.1763,
8.355548,0.3594,0.6924,0.5389,0.5439,-0.4752,-0.5996,0.3356,0.1454,-0.1763,
8.357475,0.3594,0.6924,0.5389,0.5439,-0.4752,-0.5996,0.4804,0.2525,-0.2471,
8.372103,0.3594,0.6924,0.5389,0.5439,-0.4752,-0.5996,0.6583,0.3579,-0.3270,
8.392196,0.3142,0.7183,0.6244,0.5439,-0.4752,-0.5996,0.6583,0.3579,-0.3270,
8.394590,0.3142,0.7183,0.6244,0.2487,-0.3838,0.3695,0.6583,0.3579,-0.3270,
8.396372,0.3142,0.7183,0.6244,0.2487,-0.3838,0.3695,0.8767,0.4368,-0.3696,
8.412770,0.3142,0.7183,0.6244,0.2487,-0.3838,0.3695,1.0296,0.5523,-0.3606,
8.432473,0.2553,0.8893,0.6323,0.2487,-0.3838,0.3695,1.0296,0.5523,-0.3606,
8.434335,0.2553,0.8893,0.6323,-0.1128,1.0433,0.6753,1.0296,0.5523,-0.3606,
8.436106,0.2553,0.8893,0.6323,-0.1128,1.0433,0.6753,1.1217,0.5491,-0.3563,
8.452543,0.2553,0.8893,0.6323,-0.1128,1.0433,0.6753,1.0472,0.2642,-0.3137,
8.472515,0.2323,0.9828,0.5751,-0.1128,1.0433,0.6753,1.0472,0.2642,-0.3137,
8.474647,0.2323,0.9828,0.5751,-0.1456,1.6939,0.4119,1.0472,0.2642,-0.3137,
8.476365,0.2323,0.9828,0.5751,-0.1456,1.6939,0.4119,1.0642,0.2194,-0.2631,
8.492935,0.2323,0.9828,0.5751,-0.1456,1.6939,0.4119,1.0711,0.0975,-0.2248,
8.511606,0.2731,0.9259,0.4703,-0.1456,1.6939,0.4119,1.0711,0.0975,-0.2248,
8.513287,0.2731,0.9259,0.4703,0.3642,0.8974,-0.2867,1.0711,0.0975,-0.2248,
8.514778,0.2731,0.9259,0.4703,0.3642,0.8974,-0.2867,1.0935,-0.1150,-0.1880,
8.532241,0.2731,0.9259,0.4703,0.3642,0.8974,-0.2867,1.0035,-0.1917,-0.1704,
8.552462,0.3125,0.8839,0.4073,0.3642,0.8974,-0.2867,1.0035,-0.1917,-0.1704,
8.554405,0.3125,0.8839,0.4073,0.7719,0.2734,-0.5423,1.0035,-0.1917,-0.1704,
8.556143,0.3125,0.8839,0.4073,0.7719,0.2734,-0.5423,0.7792,-0.0916,-0.1779,
8.572532,0.3125,0.8839,0.4073,0.7719,0.2734,-0.5423,0.5854,0.0735,-0.2258,
8.592902,0.2736,0.8771,0.4253,0.7719,0.2734,-0.5423,0.5854,0.0735,-0.2258,
8.595494,0.2736,0.8771,0.4253,0.4456,0.0713,-0.1346,0.5854,0.0735,-0.2258,
8.597695,0.2736,0.8771,0.4253,0.4456,0.0713,-0.1346,0.4682,0.3132,-0.2455,
8.612550,0.2736,0.8771,0.4253,0.4456,0.0713,-0.1346,0.3105,0.3595,-0.1667,
8.632108,0.1898,0.8233,0.4097,0.4456,0.0713,-0.1346,0.3105,0.3595,-0.1667,
8.634088,0.1898,0.8233,0.4097,-0.2583,-0.5349,-0.1879,0.3105,0.3595,-0.1667,
8.636165,0.1898,0.8233,0.4097,-0.2583,-0.5349,-0.1879,0.1182,0.2296,-0.0399,
8.652172,0.1898,0.8233,0.4097,-0.2583,-0.5349,-0.1879,0.0314,0.2605,0.0937,
8.672984,0.2665,0.8065,0.4082,-0.2583,-0.5349,-0.1879,0.0314,0.2605,0.0937,
8.675351,0.2665,0.8065,0.4082,0.5122,-0.7059,-0.1996,0.0314,0.2605,0.0937,
8.677217,0.2665,0.8065,0.4082,0.5122,-0.7059,-0.1996,0.0426,0.2477,0.1907,
8.694539,0.2665,0.8065,0.4082,0.5122,-0.7059,-0.1996,0.0634,0.2083,0.1864,
8.712080,0.2467,0.9474,0.4774,0.5122,-0.7059,-0.1996,0.0634,0.2083,0.1864,
8.714303,0.2467,0.9474,0.4774,0.2838,0.6858,0.4742,0.0634,0.2083,0.1864,
8.715904,0.2467,0.9474,0.4774,0.2838,0.6858,0.4742,0.0778,-0.0181,0.1513,
8.732247,0.2467,0.9474,0.4774,0.2838,0.6858,0.4742,0.1060,-0.1944,0.1832,
8.751318,0.2140,0.8590,0.3941,0.2838,0.6858,0.4742,0.1060,-0.1944,0.1832,
8.753636,0.2140,0.8590,0.3941,-0.1133,-0.1814,-0.3014,0.1060,-0.1944,0.1832,
8.755921,0.2140,0.8590,0.3941,-0.1133,-0.1814,-0.3014,0.0442,-0.2834,0.1901,
8.772010,0.2140,0.8590,0.3941,-0.1133,-0.1814,-0.3014,-0.0948,-0.3728,0.1321,
8.792228,0.1717,0.8839,0.3667,-0.1133,-0.1814,-0.3014,-0.0948,-0.3728,0.1321,
8.794553,0.1717,0.8839,0.3667,-0.6285,0.0764,-0.5428,-0.0948,-0.3728,0.1321,
8.796378,0.1717,0.8839,0.3667,-0.6285,0.0764,-0.5428,-0.2722,-0.4719,0.1225,
8.811735,0.1717,0.8839,0.3667,-0.6285,0.0764,-0.5428,-0.3995,-0.5193,0.2306,
8.832190,0.2380,0.9406,0.4683,-0.6285,0.0764,-0.5428,-0.3995,-0.5193,0.2306,
8.835318,0.2380,0.9406,0.4683,-0.1121,0.7002,0.3885,-0.3995,-0.5193,0.2306,
8.837157,0.2380,0.9406,0.4683,-0.1121,0.7002,0.3885,-0.5545,-0.6056,0.3766,
8.851541,0.2380,0.9406,0.4683,-0.1121,0.7002,0.3885,-0.6919,-0.5550,0.4320,
8.871604,0.3511,0.8761,0.5602,-0.1121,0.7002,0.3885,-0.6919,-0.5550,0.4320,
8.873866,0.3511,0.8761,0.5602,0.7622,0.2167,1.1358,-0.6919,-0.5550,0.4320,
8.875338,0.3511,0.8761,0.5602,0.7622,0.2167,1.1358,-0.7654,-0.4735,0.4325,
8.891534,0.3511,0.8761,0.5602,0.7622,0.2167,1.1358,-0.8458,-0.5864,0.3973,
8.911999,0.4038,0.8512,0.4896,0.7622,0.2167,1.1358,-0.8458,-0.5864,0.3973,
8.913756,0.4038,0.8512,0.4896,1.0460,0.1626,0.2372,-0.8458,-0.5864,0.3973,
8.915275,0.4038,0.8512,0.4896,1.0460,0.1626,0.2372,-0.9502,-0.4969,0.3510,
8.931876,0.4038,0.8512,0.4896,1.0460,0.1626,0.2372,-1.1595,-0.2631,0.3601,
8.952332,0.4219,0.8101,0.4810,1.0460,0.1626,0.2372,-1.1595,-0.2631,0.3601,
8.955932,0.4219,0.8101,0.4810,1.0291,0.0005,-0.1337,-1.1595,-0.2631,0.3601,
8.957430,0.4219,0.8101,0.4810,1.0291,0.0005,-0.1337,-1.3204,-0.0378,0.3478,
8.970987,0.4219,0.8101,0.4810,1.0291,0.0005,-0.1337,-1.2900,-0.0884,0.2594,
8.992108,0.3777,0.7639,0.5663,1.0291,0.0005,-0.1337,-1.2900,-0.0884,0.2594,
8.994144,0.3777,0.7639,0.5663,0.4793,-0.1524,0.3121,-1.2900,-0.0884,0.2594,
8.995872,0.3777,0.7639,0.5663,0.4793,-0.1524,0.3121,-1.2480,-0.4559,0.1800,
9.011975,0.3777,0.7639,0.5663,0.4793,-0.1524,0.3121,-1.0179,-0.3617,0.0623,
9.031361,0.3767,0.5734,0.5343,0.4793,-0.1524,0.3121,-1.0179,-0.3617,0.0623,
9.033500,0.3767,0.5734,0.5343,0.3339,-1.7576,-0.2845,-1.0179,-0.3617,0.0623,
9.035287,0.3767,0.5734,0.5343,0.3339,-1.7576,-0.2845,-0.7952,-0.1944,-0.0309,
9.051201,0.3767,0.5734,0.5343,0.3339,-1.7576,-0.2845,-0.5752,-0.0895,-0.0682,
9.071457,0.3621,0.6303,0.5199,0.3339,-1.7576,-0.2845,-0.5752,-0.0895,-0.0682,
9.073698,0.3621,0.6303,0.5199,0.1666,-1.0518,-0.6042,-0.5752,-0.0895,-0.0682,
9.075465,0.3621,0.6303,0.5199,0.1666,-1.0518,-0.6042,-0.3489,-0.0533,-0.1001,
9.091232,0.3621,0.6303,0.5199,0.1666,-1.0518,-0.6042,-0.1752,0.0479,-0.1427,
9.111746,0.3083,0.6232,0.4441,0.1666,-1.0518,-0.6042,-0.1752,0.0479,-0.1427,
9.113872,0.3083,0.6232,0.4441,-0.3257,-1.0775,-1.4215,-0.1752,0.0479,-0.1427,
9.115808,0.3083,0.6232,0.4441,-0.3257,-1.0775,-1.4215,-0.0197,0.0378,-0.2184,
9.131466,0.3083,0.6232,0.4441,-0.3257,-1.0775,-1.4215,-0.0160,0.0240,-0.2562,
9.151186,0.2265,0.7007,0.4131,-0.3257,-1.0775,-1.4215,-0.0160,0.0240,-0.2562,
9.153966,0.2265,0.7007,0.4131,-1.0525,-0.3457,-1.7348,-0.0160,0.0240,-0.2562,
9.156032,0.2265,0.7007,0.4131,-1.0525,-0.3457,-1.7348,-0.0549,0.0469,-0.2210,
9.170881,0.2265,0.7007,0.4131,-1.0525,-0.3457,-1.7348,0.0149,0.0911,-0.2162,
9.191241,0.3066,0.6657,0.5448,-1.0525,-0.3457,-1.7348,0.0149,0.0911,-0.2162,
9.193404,0.3066,0.6657,0.5448,-0.1882,-0.7117,-0.4590,0.0149,0.0911,-0.2162,
9.194590,0.3066,0.6657,0.5448,-0.1882,-0.7117,-0.4590,0.1321,0.1438,-0.2237,
9.210429,0.3066,0.6657,0.5448,-0.1882,-0.7117,-0.4590,0.3047,0.2525,-0.2365,
9.230632,0.3657,0.6406,0.6674,-0.1882,-0.7117,-0.4590,0.3047,0.2525,-0.2365,
9.233280,0.3657,0.6406,0.6674,0.4994,-1.0335,0.7787,0.3047,0.2525,-0.2365,
9.235048,0.3657,0.6406,0.6674,0.4994,-1.0335,0.7787,0.5832,0.3302,-0.3068,
9.251226,0.3657,0.6406,0.6674,0.4994,-1.0335,0.7787,0.9172,0.3036,-0.3601,
9.270907,0.3025,0.7361,0.5788,0.4994,-1.0335,0.7787,0.9172,0.3036,-0.3601,
9.272981,0.3025,0.7361,0.5788,0.0427,-0.2993,0.0870,0.9172,0.3036,-0.3601,
9.274581,0.3025,0.7361,0.5788,0.0427,-0.2993,0.0870,1.0999,0.4101,-0.3595,
9.290939,0.3025,0.7361,0.5788,0.0427,-0.2993,0.0870,1.1382,0.5129,-0.3318,
9.310649,0.2504,0.8868,0.5001,0.0427,-0.2993,0.0870,1.1382,0.5129,-0.3318,
9.312600,0.2504,0.8868,0.5001,-0.2645,0.8981,-0.3954,1.1382,0.5129,-0.3318,
9.314345,0.2504,0.8868,0.5001,-0.2645,0.8981,-0.3954,1.0424,0.4634,-0.2913,
9.330196,0.2504,0.8868,0.5001,-0.2645,0.8981,-0.3954,0.8666,0.2530,-0.2557,
9.350794,0.2773,0.9406,0.5814,-0.2645,0.8981,-0.3954,0.8666,0.2530,-0.2557,
9.352922,0.2773,0.9406,0.5814,0.1583,1.2008,0.6632,0.8666,0.2530,-0.2557,
9.354388,0.2773,0.9406,0.5814,0.1583,1.2008,0.6632,0.8922,0.2589,-0.2807,
9.370461,0.2773,0.9406,0.5814,0.1583,1.2008,0.6632,1.0232,0.1901,-0.3041,
9.390924,0.2074,0.9025,0.4617,0.1583,1.2008,0.6632,1.0232,0.1901,-0.3041,
9.392941,0.2074,0.9025,0.4617,-0.3871,0.6117,-0.2228,1.0232,0.1901,-0.3041,
9.394586,0.2074,0.9025,0.4617,-0.3871,0.6117,-0.2228,1.0456,0.1342,-0.2173,
9.410169,0.2074,0.9025,0.4617,-0.3871,0.6117,-0.2228,0.8815,0.0538,-0.1273,
9.431365,0.2450,0.9205,0.3794,-0.3871,0.6117,-0.2228,0.8815,0.0538,-0.1273,
9.433674,0.2450,0.9205,0.3794,0.0512,0.5793,-0.6839,0.8815,0.0538,-0.1273,
9.435357,0.2450,0.9205,0.3794,0.0512,0.5793,-0.6839,0.6541,-0.0053,-0.0911,
9.450588,0.2450,0.9205,0.3794,0.0512,0.5793,-0.6839,0.5236,-0.0389,-0.0794,
9.472062,0.3249,0.9438,0.4547,0.0512,0.5793,-0.6839,0.5236,-0.0389,-0.0794,
9.474334,0.3249,0.9438,0.4547,0.8554,0.6988,0.2551,0.5236,-0.0389,-0.0794,
9.476168,0.3249,0.9438,0.4547,0.8554,0.6988,0.2551,0.4613,-0.0383,-0.1033,
9.492418,0.3249,0.9438,0.4547,0.8554,0.6988,0.2551,0.3356,0.0485,-0.1049,
9.511075,0.2915,0.8942,0.4842,0.8554,0.6988,0.2551,0.3356,0.0485,-0.1049,
9.513103,0.2915,0.8942,0.4842,0.5579,0.1413,0.6762,0.3356,0.0485,-0.1049,
9.514859,0.2915,0.8942,0.4842,0.5579,0.1413,0.6762,0.1380,0.2141,-0.0245,
9.530113,0.2915,0.8942,0.4842,0.5579,0.1413,0.6762,0.0469,0.3068,0.0565,
9.550435,0.2546,0.7608,0.4312,0.5579,0.1413,0.6762,0.0469,0.3068,0.0565,
9.552464,0.2546,0.7608,0.4312,0.2170,-1.1680,0.1495,0.0469,0.3068,0.0565,
9.554205,0.2546,0.7608,0.4312,0.2170,-1.1680,0.1495,0.0708,0.3670,0.0975,
9.570510,0.2546,0.7608,0.4312,0.2170,-1.1680,0.1495,0.1614,0.2855,0.1294,
9.590887,0.1783,0.8243,0.3545,0.2170,-1.1680,0.1495,0.1614,0.2855,0.1294,
9.593945,0.1783,0.8243,0.3545,-0.5174,-0.5530,-0.5936,0.1614,0.2855,0.1294,
9.596101,0.1783,0.8243,0.3545,-0.5174,-0.5530,-0.5936,0.1795,0.1087,0.0964,
9.610188,0.1783,0.8243,0.3545,-0.5174,-0.5530,-0.5936,0.1704,-0.0368,0.1364,
9.630929,0.1857,0.8971,0.3254,-0.5174,-0.5530,-0.5936,0.1704,-0.0368,0.1364,
9.633279,0.1857,0.8971,0.3254,-0.4771,0.1402,-0.8173,0.1704,-0.0368,0.1364,
9.635106,0.1857,0.8971,0.3254,-0.4771,0.1402,-0.8173,0.0964,-0.1390,0.1859,
9.650077,0.1857,0.8971,0.3254,-0.4771,0.1402,-0.8173,-0.0293,-0.2392,0.1566,
9.670753,0.2458,0.9181,0.4151,-0.4771,0.1402,-0.8173,-0.0293,-0.2392,0.1566,
9.672973,0.2458,0.9181,0.4151,0.0263,0.3545,0.0934,-0.0293,-0.2392,0.1566,
9.674405,0.2458,0.9181,0.4151,0.0263,0.3545,0.0934,-0.1742,-0.3590,0.1704,
9.690165,0.2458,0.9181,0.4151,0.0263,0.3545,0.0934,-0.3276,-0.4927,0.2083,
9.710046,0.3125,0.9726,0.5348,0.0263,0.3545,0.0934,-0.3276,-0.4927,0.2083,
9.712697,0.3125,0.9726,0.5348,0.5476,0.9474,1.2204,-0.3276,-0.4927,0.2083,
9.714441,0.3125,0.9726,0.5348,0.5476,0.9474,1.2204,-0.5161,-0.6056,0.2892,
9.729601,0.3125,0.9726,0.5348,0.5476,0.9474,1.2204,-0.6977,-0.5273,0.3558,
9.750665,0.3784,0.8722,0.5526,0.5476,0.9474,1.2204,-0.6977,-0.5273,0.3558,
9.752722,0.3784,0.8722,0.5526,0.9907,0.0985,1.2442,-0.6977,-0.5273,0.3558,
9.754235,0.3784,0.8722,0.5526,0.9907,0.0985,1.2442,-0.7984,-0.3451,0.3542,
9.770139,0.3784,0.8722,0.5526,0.9907,0.0985,1.2442,-0.8677,-0.4229,0.3079,
9.790026,0.3545,0.7862,0.3931,0.9907,0.0985,1.2442,-0.8677,-0.4229,0.3079,
9.792113,0.3545,0.7862,0.3931,0.5714,-0.5625,-0.5524,-0.8677,-0.4229,0.3079,
9.793535,0.3545,0.7862,0.3931,0.5714,-0.5625,-0.5524,-0.9231,-0.5342,0.3276,
9.810219,0.3545,0.7862,0.3931,0.5714,-0.5625,-0.5524,-1.0967,-0.2759,0.3244,
9.830257,0.3494,0.8670,0.3684,0.5714,-0.5625,-0.5524,-1.0967,-0.2759,0.3244,
9.832498,0.3494,0.8670,0.3684,0.3346,0.4416,-1.0520,-1.0967,-0.2759,0.3244,
9.834065,0.3494,0.8670,0.3684,0.3346,0.4416,-1.0520,-1.4472,0.0330,0.2637,
9.849939,0.3494,0.8670,0.3684,0.3346,0.4416,-1.0520,-1.6586,0.2999,0.2562,
9.870396,0.4033,0.7368,0.6034,0.3346,0.4416,-1.0520,-1.6586,0.2999,0.2562,
9.872641,0.4033,0.7368,0.6034,0.8012,-0.5002,0.7540,-1.6586,0.2999,0.2562,
9.874313,0.4033,0.7368,0.6034,0.8012,-0.5002,0.7540,-1.7673,0.0431,0.2333,
9.893047,0.4033,0.7368,0.6034,0.8012,-0.5002,0.7540,-1.5654,-0.1529,0.1156,
9.909510,0.3894,0.6091,0.6122,0.8012,-0.5002,0.7540,-1.5654,-0.1529,0.1156,
9.912221,0.3894,0.6091,0.6122,0.5822,-1.3669,0.3520,-1.5654,-0.1529,0.1156,
9.914308,0.3894,0.6091,0.6122,0.5822,-1.3669,0.3520,-1.2267,-0.1225,-0.0149,
9.930016,0.3894,0.6091,0.6122,0.5822,-1.3669,0.3520,-0.9657,-0.1017,-0.0586,
9.950141,0.3476,0.6100,0.6122,0.5822,-1.3669,0.3520,-0.9657,-0.1017,-0.0586,
9.952368,0.3476,0.6100,0.6122,0.1464,-1.1044,0.0523,-0.9657,-0.1017,-0.0586,
9.954003,0.3476,0.6100,0.6122,0.1464,-1.1044,0.0523,-0.6605,0.0309,-0.0575,
9.970166,0.3476,0.6100,0.6122,0.1464,-1.1044,0.0523,-0.2855,0.0831,-0.1065,
9.989889,0.3122,0.5851,0.4857,0.1464,-1.1044,0.0523,-0.2855,0.0831,-0.1065,
9.993222,0.3122,0.5851,0.4857,-0.1641,-1.2455,-1.3282,-0.2855,0.0831,-0.1065,
9.995350,0.3122,0.5851,0.4857,-0.1641,-1.2455,-1.3282,-0.0309,0.1811,-0.2019,
10.009594,0.3122,0.5851,0.4857,-0.1641,-1.2455,-1.3282,0.0826,0.2439,-0.3169,
10.029921,0.1126,0.6396,0.3645,-0.1641,-1.2455,-1.3282,0.0826,0.2439,-0.3169,
10.032510,0.1126,0.6396,0.3645,-1.9959,-0.7507,-2.5353,0.0826,0.2439,-0.3169,
10.034459,0.1126,0.6396,0.3645,-1.9959,-0.7507,-2.5353,0.0538,0.3302,-0.3025,
10.050517,0.1126,0.6396,0.3645,-1.9959,-0.7507,-2.5353,0.0522,0.3425,-0.2290,
10.069643,0.1903,0.7415,0.5336,-1.9959,-0.7507,-2.5353,0.0522,0.3425,-0.2290,
10.072728,0.1903,0.7415,0.5336,-1.0775,0.2027,-0.9042,0.0522,0.3425,-0.2290,
10.074329,0.1903,0.7415,0.5336,-1.0775,0.2027,-0.9042,0.1699,0.2514,-0.1683,
10.089998,0.1903,0.7415,0.5336,-1.0775,0.2027,-0.9042,0.2940,0.1747,-0.1491,
10.110620,0.3794,0.7380,0.7173,-1.0775,0.2027,-0.9042,0.2940,0.1747,-0.1491,
10.112991,0.3794,0.7380,0.7173,0.8247,0.0710,0.9875,0.2940,0.1747,-0.1491,
10.114516,0.3794,0.7380,0.7173,0.8247,0.0710,0.9875,0.4762,0.1321,-0.2008,
10.130258,0.3794,0.7380,0.7173,0.8247,0.0710,0.9875,0.7830,0.1577,-0.2908,
10.149638,0.4495,0.7429,0.7644,0.8247,0.0710,0.9875,0.7830,0.1577,-0.2908,
10.153001,0.4495,0.7429,0.7644,1.6044,-0.0469,1.6067,0.7830,0.1577,-0.2908,
10.154783,0.4495,0.7429,0.7644,1.6044,-0.0469,1.6067,1.0733,0.2668,-0.3957,
10.169425,0.4495,0.7429,0.7644,1.6044,-0.0469,1.6067,1.2863,0.4314,-0.4559,
10.189061,0.2824,0.7571,0.6105,1.6044,-0.0469,1.6067,1.2863,0.4314,-0.4559,
10.191992,0.2824,0.7571,0.6105,0.1590,-0.2070,0.3974,1.2863,0.4314,-0.4559,
10.194237,0.2824,0.7571,0.6105,0.1590,-0.2070,0.3974,1.3231,0.4778,-0.4581,
10.209103,0.2824,0.7571,0.6105,0.1590,-0.2070,0.3974,1.3012,0.3260,-0.4639,
10.229117,0.1371,0.8995,0.4984,0.1590,-0.2070,0.3974,1.3012,0.3260,-0.4639,
10.231117,0.1371,0.8995,0.4984,-1.0340,0.8664,-0.3439,1.3012,0.3260,-0.4639,
10.232932,0.1371,0.8995,0.4984,-1.0340,0.8664,-0.3439,1.2938,0.1294,-0.3963,
10.248823,0.1371,0.8995,0.4984,-1.0340,0.8664,-0.3439,1.3097,0.1619,-0.2919,
10.269353,0.1859,0.9223,0.3701,-1.0340,0.8664,-0.3439,1.3097,0.1619,-0.2919,
10.272107,0.1859,0.9223,0.3701,-0.4133,0.7952,-1.1924,1.3097,0.1619,-0.2919,
10.274074,0.1859,0.9223,0.3701,-0.4133,0.7952,-1.1924,1.2149,0.2035,-0.2381,
10.289071,0.1859,0.9223,0.3701,-0.4133,0.7952,-1.1924,1.0530,0.1486,-0.2322,
10.309005,0.2695,0.9267,0.4302,-0.4133,0.7952,-1.1924,1.0530,0.1486,-0.2322,
10.311166,0.2695,0.9267,0.4302,0.3914,0.6273,-0.2157,1.0530,0.1486,-0.2322,
10.312883,0.2695,0.9267,0.4302,0.3914,0.6273,-0.2157,0.9433,0.0895,-0.2099,
10.329515,0.2695,0.9267,0.4302,0.3914,0.6273,-0.2157,0.9113,0.0405,-0.1656,
10.348705,0.3396,0.8915,0.4361,0.3914,0.6273,-0.2157,0.9113,0.0405,-0.1656,
10.350858,0.3396,0.8915,0.4361,1.1407,0.1128,0.1482,0.9113,0.0405,-0.1656,
10.352401,0.3396,0.8915,0.4361,1.1407,0.1128,0.1482,0.7766,0.0687,-0.1635,
10.368737,0.3396,0.8915,0.4361,1.1407,0.1128,0.1482,0.4272,0.1593,-0.1374,
10.389513,0.3012,0.9276,0.4622,1.1407,0.1128,0.1482,0.4272,0.1593,-0.1374,
10.392910,0.3012,0.9276,0.4622,0.8243,0.3628,0.5972,0.4272,0.1593,-0.1374,
10.394462,0.3012,0.9276,0.4622,0.8243,0.3628,0.5972,0.1081,0.1880,-0.0879,
10.409093,0.3012,0.9276,0.4622,0.8243,0.3628,0.5972,0.0170,0.0858,-0.0272,
10.429637,0.2416,0.9083,0.4307,0.8243,0.3628,0.5972,0.0170,0.0858,-0.0272,
10.431844,0.2416,0.9083,0.4307,0.2718,0.1640,0.2929,0.0170,0.0858,-0.0272,
10.433511,0.2416,0.9083,0.4307,0.2718,0.1640,0.2929,0.0133,0.0810,0.0005,
10.449433,0.2416,0.9083,0.4307,0.2718,0.1640,0.2929,-0.0176,0.1582,-0.0154,
10.468801,0.2123,0.7674,0.3242,0.2718,0.1640,0.2929,-0.0176,0.1582,-0.0154,
10.471614,0.2123,0.7674,0.3242,-0.0050,-1.2145,-0.7632,-0.0176,0.1582,-0.0154,
10.473811,0.2123,0.7674,0.3242,-0.0050,-1.2145,-0.7632,0.0053,0.1534,0.0053,
10.489496,0.2123,0.7674,0.3242,-0.0050,-1.2145,-0.7632,-0.0101,0.0756,-0.0378,
10.509622,0.1722,0.8277,0.3203,-0.0050,-1.2145,-0.7632,-0.0101,0.0756,-0.0378,
10.512190,0.1722,0.8277,0.3203,-0.4658,-0.6412,-0.7239,-0.0101,0.0756,-0.0378,
10.514367,0.1722,0.8277,0.3203,-0.4658,-0.6412,-0.7239,-0.0234,-0.1119,-0.0884,
10.529035,0.1722,0.8277,0.3203,-0.4658,-0.6412,-0.7239,-0.0394,-0.2072,-0.0320,
10.549187,0.2150,0.8663,0.3530,-0.4658,-0.6412,-0.7239,-0.0394,-0.2072,-0.0320,
10.551704,0.2150,0.8663,0.3530,-0.0510,-0.2637,-0.3990,-0.0394,-0.2072,-0.0320,
10.553582,0.2150,0.8663,0.3530,-0.0510,-0.2637,-0.3990,-0.1124,-0.1172,-0.0133,
10.568991,0.2150,0.8663,0.3530,-0.0510,-0.2637,-0.3990,-0.1076,-0.0629,-0.0559,
10.589710,0.2309,0.9447,0.4708,-0.0510,-0.2637,-0.3990,-0.1076,-0.0629,-0.0559,
10.593690,0.2309,0.9447,0.4708,0.1013,0.5374,0.6837,-0.1076,-0.0629,-0.0559,
10.595432,0.2309,0.9447,0.4708,0.1013,0.5374,0.6837,-0.0847,-0.0389,-0.0538,
10.610864,0.2309,0.9447,0.4708,0.1013,0.5374,0.6837,-0.0618,-0.0091,-0.0117,
10.629063,0.3188,0.8570,0.4400,0.1013,0.5374,0.6837,-0.0618,-0.0091,-0.0117,
10.630828,0.3188,0.8570,0.4400,0.5614,-0.1340,0.2141,-0.0618,-0.0091,-0.0117,
10.632585,0.3188,0.8570,0.4400,0.5614,-0.1340,0.2141,-0.0474,0.0703,-0.0389,
10.648223,0.3188,0.8570,0.4400,0.5614,-0.1340,0.2141,-0.0394,0.0485,-0.0794,
10.668982,0.2382,0.9201,0.4798,0.5614,-0.1340,0.2141,-0.0394,0.0485,-0.0794,
10.672700,0.2382,0.9201,0.4798,-0.1010,0.5007,0.4928,-0.0394,0.0485,-0.0794,
10.674476,0.2382,0.9201,0.4798,-0.1010,0.5007,0.4928,-0.0005,-0.0144,-0.1044,
10.688791,0.2382,0.9201,0.4798,-0.1010,0.5007,0.4928,0.0463,-0.0096,-0.1358,
10.708477,0.1840,0.8492,0.3095,-0.1010,0.5007,0.4928,0.0463,-0.0096,-0.1358,
10.710446,0.1840,0.8492,0.3095,-0.5659,-0.2434,-1.1126,0.0463,-0.0096,-0.1358,
10.712386,0.1840,0.8492,0.3095,-0.5659,-0.2434,-1.1126,0.0170,-0.0043,-0.1294,
10.728709,0.1840,0.8492,0.3095,-0.5659,-0.2434,-1.1126,-0.0581,-0.0373,-0.1039,
10.748213,0.1703,0.8517,0.3494,-0.5659,-0.2434,-1.1126,-0.0581,-0.0373,-0.1039,
10.750543,0.1703,0.8517,0.3494,-0.6279,-0.2582,-0.6823,-0.0581,-0.0373,-0.1039,
10.752416,0.1703,0.8517,0.3494,-0.6279,-0.2582,-0.6823,-0.0916,-0.1566,-0.0501,
10.767935,0.1703,0.8517,0.3494,-0.6279,-0.2582,-0.6823,-0.0660,-0.1694,-0.0288,
10.788333,0.2758,0.8727,0.4459,-0.6279,-0.2582,-0.6823,-0.0660,-0.1694,-0.0288,
10.790581,0.2758,0.8727,0.4459,0.3928,-0.0458,0.2573,-0.0660,-0.1694,-0.0288,
10.792152,0.2758,0.8727,0.4459,0.3928,-0.0458,0.2573,-0.0368,-0.1166,-0.0607,
10.808722,0.2758,0.8727,0.4459,0.3928,-0.0458,0.2573,-0.0053,-0.0927,-0.0826,
10.828206,0.2326,0.9091,0.3919,0.3928,-0.0458,0.2573,-0.0053,-0.0927,-0.0826,
10.830297,0.2326,0.9091,0.3919,-0.0213,0.2953,-0.2444,-0.0053,-0.0927,-0.0826,
10.832125,0.2326,0.9091,0.3919,-0.0213,0.2953,-0.2444,-0.0336,-0.1028,-0.0863,
10.848247,0.2326,0.9091,0.3919,-0.0213,0.2953,-0.2444,-0.0921,-0.1534,-0.0618,
10.868152,0.2106,0.9252,0.4466,-0.0213,0.2953,-0.2444,-0.0921,-0.1534,-0.0618,
10.870403,0.2106,0.9252,0.4466,-0.2197,0.4509,0.2875,-0.0921,-0.1534,-0.0618,
10.872159,0.2106,0.9252,0.4466,-0.2197,0.4509,0.2875,-0.0884,-0.1587,-0.0431,
10.887782,0.2106,0.9252,0.4466,-0.2197,0.4509,0.2875,-0.0181,-0.1539,-0.0597,
10.908215,0.2384,0.8844,0.4143,-0.2197,0.4509,0.2875,-0.0181,-0.1539,-0.0597,
10.910637,0.2384,0.8844,0.4143,0.0489,0.0527,-0.0296,-0.0181,-0.1539,-0.0597,
10.912975,0.2384,0.8844,0.4143,0.0489,0.0527,-0.0296,0.0453,-0.1795,-0.0815,
10.928748,0.2384,0.8844,0.4143,0.0489,0.0527,-0.0296,0.0250,-0.1662,-0.0703,
10.948916,0.1888,0.8624,0.3542,0.0489,0.0527,-0.0296,0.0250,-0.1662,-0.0703,
10.950967,0.1888,0.8624,0.3542,-0.4131,-0.1948,-0.5641,0.0250,-0.1662,-0.0703,
10.952907,0.1888,0.8624,0.3542,-0.4131,-0.1948,-0.5641,-0.0170,-0.1699,-0.0447,
10.968064,0.1888,0.8624,0.3542,-0.4131,-0.1948,-0.5641,-0.0506,-0.1875,-0.0043,
10.988292,0.2040,0.7823,0.3950,-0.4131,-0.1948,-0.5641,-0.0506,-0.1875,-0.0043,
10.990447,0.2040,0.7823,0.3950,-0.2803,-0.9777,-0.1606,-0.0506,-0.1875,-0.0043,
10.992520,0.2040,0.7823,0.3950,-0.2803,-0.9777,-0.1606,-0.0325,-0.2184,-0.0064,
11.008184,0.2040,0.7823,0.3950,-0.2803,-0.9777,-0.1606,0.0085,-0.1364,-0.0288,
11.028387,0.1710,0.8805,0.3474,-0.2803,-0.9777,-0.1606,0.0085,-0.1364,-0.0288,
11.030682,0.1710,0.8805,0.3474,-0.5918,-0.0329,-0.5959,0.0085,-0.1364,-0.0288,
11.032766,0.1710,0.8805,0.3474,-0.5918,-0.0329,-0.5959,0.0027,-0.0314,-0.0389,
11.047957,0.1710,0.8805,0.3474,-0.5918,-0.0329,-0.5959,-0.0383,-0.0240,-0.0288,
11.068347,0.1444,0.9540,0.4346,-0.5918,-0.0329,-0.5959,-0.0383,-0.0240,-0.0288,
11.071147,0.1444,0.9540,0.4346,-0.7347,0.6528,0.2694,-0.0383,-0.0240,-0.0288,
11.072920,0.1444,0.9540,0.4346,-0.7347,0.6528,0.2694,-0.0495,-0.1039,0.0304,
11.087735,0.1444,0.9540,0.4346,-0.7347,0.6528,0.2694,-0.0266,-0.1230,0.0549,
11.107461,0.2682,0.9313,0.4659,-0.7347,0.6528,0.2694,-0.0266,-0.1230,0.0549,
11.109745,0.2682,0.9313,0.4659,0.4571,0.4398,0.5667,-0.0266,-0.1230,0.0549,
11.111300,0.2682,0.9313,0.4659,0.4571,0.4398,0.5667,0.0043,-0.1135,0.0181,
11.128129,0.2682,0.9313,0.4659,0.4571,0.4398,0.5667,0.0288,-0.0778,0.0245,
11.147837,0.2316,0.8903,0.4065,0.4571,0.4398,0.5667,0.0288,-0.0778,0.0245,
11.149728,0.2316,0.8903,0.4065,0.0779,0.0369,-0.0026,0.0288,-0.0778,0.0245,
11.151338,0.2316,0.8903,0.4065,0.0779,0.0369,-0.0026,0.0154,-0.0314,0.0304,
11.167364,0.2316,0.8903,0.4065,0.0779,0.0369,-0.0026,-0.0027,-0.0506,0.0176,
11.188369,0.2140,0.8253,0.4102,0.0779,0.0369,-0.0026,-0.0027,-0.0506,0.0176,
11.192382,0.2140,0.8253,0.4102,-0.1061,-0.5946,0.0280,-0.0027,-0.0506,0.0176,
11.194477,0.2140,0.8253,0.4102,-0.1061,-0.5946,0.0280,-0.0085,-0.0575,0.0144,
11.208522,0.2140,0.8253,0.4102,-0.1061,-0.5946,0.0280,0.0059,-0.0261,0.0043,
11.227965,0.1796,0.8025,0.3711,-0.1061,-0.5946,0.0280,0.0059,-0.0261,0.0043,
11.230345,0.1796,0.8025,0.3711,-0.4469,-0.8157,-0.3566,0.0059,-0.0261,0.0043,
11.232383,0.1796,0.8025,0.3711,-0.4469,-0.8157,-0.3566,0.0346,-0.0485,-0.0277,
11.247500,0.1796,0.8025,0.3711,-0.4469,-0.8157,-0.3566,0.0138,-0.0208,-0.0208,
11.267256,0.1749,0.9039,0.3833,-0.4469,-0.8157,-0.3566,0.0138,-0.0208,-0.0208,
11.269458,0.1749,0.9039,0.3833,-0.4554,0.1615,-0.2214,0.0138,-0.0208,-0.0208,
11.271219,0.1749,0.9039,0.3833,-0.4554,0.1615,-0.2214,-0.0368,-0.0133,0.0016,
11.287505,0.1749,0.9039,0.3833,-0.4554,0.1615,-0.2214,-0.0549,-0.0714,0.0272,
11.308297,0.2560,0.9137,0.5030,-0.4554,0.1615,-0.2214,-0.0549,-0.0714,0.0272,
11.310430,0.2560,0.9137,0.5030,0.3375,0.2803,0.9027,-0.0549,-0.0714,0.0272,
11.311509,0.2560,0.9137,0.5030,0.3375,0.2803,0.9027,0.0043,-0.0868,0.0352,
11.327543,0.2560,0.9137,0.5030,0.3375,0.2803,0.9027,0.0889,-0.0463,-0.0256,
11.347030,0.2155,0.8863,0.3677,0.3375,0.2803,0.9027,0.0889,-0.0463,-0.0256,
11.348921,0.2155,0.8863,0.3677,-0.0704,0.0046,-0.4017,0.0889,-0.0463,-0.0256,
11.350728,0.2155,0.8863,0.3677,-0.0704,0.0046,-0.4017,0.0639,-0.0170,-0.0490,
11.367081,0.2155,0.8863,0.3677,-0.0704,0.0046,-0.4017,0.0053,0.0101,-0.0277,
11.387325,0.2069,0.9291,0.4637,-0.0704,0.0046,-0.4017,0.0053,0.0101,-0.0277,
11.391252,0.2069,0.9291,0.4637,-0.1299,0.4175,0.5393,0.0053,0.0101,-0.0277,
11.393207,0.2069,0.9291,0.4637,-0.1299,0.4175,0.5393,0.0240,-0.0383,-0.0005,
11.407389,0.2069,0.9291,0.4637,-0.1299,0.4175,0.5393,0.0831,-0.0501,-0.0160,
11.426973,0.1976,0.8272,0.3721,-0.1299,0.4175,0.5393,0.0831,-0.0501,-0.0160,
11.429062,0.1976,0.8272,0.3721,-0.2187,-0.5898,-0.3403,0.0831,-0.0501,-0.0160,
11.430912,0.1976,0.8272,0.3721,-0.2187,-0.5898,-0.3403,0.0842,0.0165,-0.0538,
11.447846,0.1976,0.8272,0.3721,-0.2187,-0.5898,-0.3403,0.0501,0.0000,-0.0538,
11.467010,0.1761,0.8834,0.3782,-0.2187,-0.5898,-0.3403,0.0501,0.0000,-0.0538,
11.470125,0.1761,0.8834,0.3782,-0.3896,-0.0601,-0.2558,0.0501,0.0000,-0.0538,
11.471937,0.1761,0.8834,0.3782,-0.3896,-0.0601,-0.2558,0.0463,-0.0421,-0.0234,
11.487792,0.1761,0.8834,0.3782,-0.3896,-0.0601,-0.2558,-0.0005,-0.0277,0.0138,
11.507460,0.2375,0.8480,0.4307,-0.3896,-0.0601,-0.2558,-0.0005,-0.0277,0.0138,
11.510286,0.2375,0.8480,0.4307,0.2072,-0.4059,0.2582,-0.0005,-0.0277,0.0138,
11.512940,0.2375,0.8480,0.4307,0.2072,-0.4059,0.2582,0.0181,-0.0692,0.0053,
11.528219,0.2375,0.8480,0.4307,0.2072,-0.4059,0.2582,0.0437,-0.0527,-0.0218,
11.547546,0.2042,0.8570,0.3623,0.2072,-0.4059,0.2582,0.0437,-0.0527,-0.0218,
11.550695,0.2042,0.8570,0.3623,-0.1252,-0.3229,-0.3963,0.0437,-0.0527,-0.0218,
11.552618,0.2042,0.8570,0.3623,-0.1252,-0.3229,-0.3963,0.0362,-0.0154,-0.0399,
11.567076,0.2042,0.8570,0.3623,-0.1252,-0.3229,-0.3963,-0.0181,0.0149,-0.0538,
11.586746,0.1678,0.9479,0.4224,-0.1252,-0.3229,-0.3963,-0.0181,0.0149,-0.0538,
11.588953,0.1678,0.9479,0.4224,-0.4317,0.5543,0.1956,-0.0181,0.0149,-0.0538,
11.590588,0.1678,0.9479,0.4224,-0.4317,0.5543,0.1956,-0.0346,0.0117,-0.0229,
11.607030,0.1678,0.9479,0.4224,-0.4317,0.5543,0.1956,-0.0176,-0.0527,0.0229,
11.627763,0.2370,0.8448,0.3840,-0.4317,0.5543,0.1956,-0.0176,-0.0527,0.0229,
11.629867,0.2370,0.8448,0.3840,0.2423,-0.4519,-0.1876,-0.0176,-0.0527,0.0229,
11.631709,0.2370,0.8448,0.3840,0.2423,-0.4519,-0.1876,-0.0261,-0.0708,0.0650,
11.646764,0.2370,0.8448,0.3840,0.2423,-0.4519,-0.1876,-0.0586,-0.0288,0.0107,
11.666905,0.2011,0.8968,0.4336,0.2423,-0.4519,-0.1876,-0.0586,-0.0288,0.0107,
11.669332,0.2011,0.8968,0.4336,-0.1263,0.0694,0.2823,-0.0586,-0.0288,0.0107,
11.670818,0.2011,0.8968,0.4336,-0.1263,0.0694,0.2823,-0.0666,-0.0549,0.0357,
11.687064,0.2011,0.8968,0.4336,-0.1263,0.0694,0.2823,-0.0346,-0.0011,0.0522,
11.707034,0.2147,0.8578,0.3958,-0.1263,0.0694,0.2823,-0.0346,-0.0011,0.0522,
11.709897,0.2147,0.8578,0.3958,-0.0113,-0.3015,-0.1054,-0.0346,-0.0011,0.0522,
11.712080,0.2147,0.8578,0.3958,-0.0113,-0.3015,-0.1054,-0.0304,0.0053,0.0495,
11.726646,0.2147,0.8578,0.3958,-0.0113,-0.3015,-0.1054,-0.0320,-0.0053,0.0341,
11.747383,0.1928,0.8683,0.3946,-0.0113,-0.3015,-0.1054,-0.0320,-0.0053,0.0341,
11.749711,0.1928,0.8683,0.3946,-0.2364,-0.1910,-0.1288,-0.0320,-0.0053,0.0341,
11.751566,0.1928,0.8683,0.3946,-0.2364,-0.1910,-0.1288,-0.0202,0.0154,0.0469,
11.767100,0.1928,0.8683,0.3946,-0.2364,-0.1910,-0.1288,-0.0208,0.0511,0.0527,
11.786955,0.2001,0.8871,0.4295,-0.2364,-0.1910,-0.1288,-0.0208,0.0511,0.0527,
11.789446,0.2001,0.8871,0.4295,-0.1642,0.0011,0.1966,-0.0208,0.0511,0.0527,
11.791075,0.2001,0.8871,0.4295,-0.1642,0.0011,0.1966,-0.0128,0.0591,0.0501,
11.807513,0.2001,0.8871,0.4295,-0.1642,0.0011,0.1966,0.0213,0.0559,0.0549,
11.826993,0.2226,0.8707,0.4163,-0.1642,0.0011,0.1966,0.0213,0.0559,0.0549,
11.829320,0.2226,0.8707,0.4163,0.0497,-0.1540,0.0592,0.0213,0.0559,0.0549,
11.831050,0.2226,0.8707,0.4163,0.0497,-0.1540,0.0592,0.0362,0.0836,0.0383,
11.846407,0.2226,0.8707,0.4163,0.0497,-0.1540,0.0592,0.0389,0.0815,0.0096,
11.866322,0.2057,0.8556,0.3916,0.0497,-0.1540,0.0592,0.0389,0.0815,0.0096,
11.868916,0.2057,0.8556,0.3916,-0.1096,-0.3062,-0.1776,0.0389,0.0815,0.0096,
11.870968,0.2057,0.8556,0.3916,-0.1096,-0.3062,-0.1776,0.0240,0.0591,0.0330,
11.886733,0.2057,0.8556,0.3916,-0.1096,-0.3062,-0.1776,0.0133,0.0474,0.0314,
11.906493,0.2060,0.8597,0.4153,-0.1096,-0.3062,-0.1776,0.0133,0.0474,0.0314,
11.909179,0.2060,0.8597,0.4153,-0.1075,-0.2643,0.0522,0.0133,0.0474,0.0314,
11.910919,0.2060,0.8597,0.4153,-0.1075,-0.2643,0.0522,0.0293,0.0698,-0.0160,
11.927159,0.2060,0.8597,0.4153,-0.1075,-0.2643,0.0522,0.0261,0.0740,-0.0176,
11.947155,0.2035,0.8988,0.4129,-0.1075,-0.2643,0.0522,0.0261,0.0740,-0.0176,
11.949439,0.2035,0.8988,0.4129,-0.1107,0.1131,0.0295,0.0261,0.0740,-0.0176,
11.951100,0.2035,0.8988,0.4129,-0.1107,0.1131,0.0295,-0.0107,0.0772,0.0016,
11.966829,0.2035,0.8988,0.4129,-0.1107,0.1131,0.0295,-0.0352,0.0543,0.0064,
11.988281,0.2509,0.8839,0.4744,-0.1107,0.1131,0.0295,-0.0352,0.0543,0.0064,
11.991510,0.2509,0.8839,0.4744,0.3493,-0.0099,0.5856,-0.0352,0.0543,0.0064,
11.993270,0.2509,0.8839,0.4744,0.3493,-0.0099,0.5856,-0.0256,0.0474,0.0021,
12.007848,0.2509,0.8839,0.4744,0.3493,-0.0099,0.5856,-0.0080,0.0730,-0.0517,
12.026605,0.2135,0.8939,0.4463,0.3493,-0.0099,0.5856,-0.0080,0.0730,-0.0517,
12.028795,0.2135,0.8939,0.4463,-0.0028,0.1002,0.2776,-0.0080,0.0730,-0.0517,
12.030454,0.2135,0.8939,0.4463,-0.0028,0.1002,0.2776,0.0053,0.0751,-0.0602,
12.046175,0.2135,0.8939,0.4463,-0.0028,0.1002,0.2776,-0.0016,0.0325,-0.0208,
12.066813,0.2248,0.8695,0.4288,-0.0028,0.1002,0.2776,-0.0016,0.0325,-0.0208,
12.068976,0.2248,0.8695,0.4288,0.1199,-0.1325,0.0848,-0.0016,0.0325,-0.0208,
12.070588,0.2248,0.8695,0.4288,0.1199,-0.1325,0.0848,-0.0117,0.0234,-0.0144,
12.086638,0.2248,0.8695,0.4288,0.1199,-0.1325,0.0848,-0.0352,0.0117,-0.0197,
12.106916,0.2157,0.8470,0.4339,0.1199,-0.1325,0.0848,-0.0352,0.0117,-0.0197,
12.109925,0.2157,0.8470,0.4339,0.0291,-0.3379,0.1051,-0.0352,0.0117,-0.0197,
12.111549,0.2157,0.8470,0.4339,0.0291,-0.3379,0.1051,-0.0474,0.0117,-0.0229,
12.125874,0.2157,0.8470,0.4339,0.0291,-0.3379,0.1051,-0.0165,0.0011,-0.0245,
12.146726,0.2094,0.8228,0.3982,0.0291,-0.3379,0.1051,-0.0165,0.0011,-0.0245,
12.148878,0.2094,0.8228,0.3982,-0.0298,-0.5678,-0.2609,-0.0165,0.0011,-0.0245,
12.150806,0.2094,0.8228,0.3982,-0.0298,-0.5678,-0.2609,-0.0016,0.0096,-0.0421,
12.166585,0.2094,0.8228,0.3982,-0.0298,-0.5678,-0.2609,-0.0192,0.0197,-0.0490,
12.186435,0.1847,0.8541,0.4099,-0.0298,-0.5678,-0.2609,-0.0192,0.0197,-0.0490,
12.188977,0.1847,0.8541,0.4099,-0.2532,-0.2631,-0.1515,-0.0192,0.0197,-0.0490,
12.190853,0.1847,0.8541,0.4099,-0.2532,-0.2631,-0.1515,-0.0458,-0.0170,-0.0186,
12.206065,0.1847,0.8541,0.4099,-0.2532,-0.2631,-0.1515,-0.0320,-0.0325,-0.0064,
12.226177,0.2770,0.8851,0.4766,-0.2532,-0.2631,-0.1515,-0.0320,-0.0325,-0.0064,
12.228420,0.2770,0.8851,0.4766,0.6094,0.0703,0.4627,-0.0320,-0.0325,-0.0064,
12.229889,0.2770,0.8851,0.4766,0.6094,0.0703,0.4627,0.0234,0.0011,-0.0730,
12.245859,0.2770,0.8851,0.4766,0.6094,0.0703,0.4627,0.0325,0.0320,-0.1001,
12.265863,0.1779,0.9074,0.3987,0.6094,0.0703,0.4627,0.0325,0.0320,-0.1001,
12.267824,0.1779,0.9074,0.3987,-0.3295,0.2751,-0.2906,0.0325,0.0320,-0.1001,
12.269699,0.1779,0.9074,0.3987,-0.3295,0.2751,-0.2906,-0.0021,0.0224,-0.0762,
12.285517,0.1779,0.9074,0.3987,-0.3295,0.2751,-0.2906,-0.0383,0.0218,-0.0362,
12.306385,0.2348,0.9225,0.4656,-0.3295,0.2751,-0.2906,-0.0383,0.0218,-0.0362,
12.311044,0.2348,0.9225,0.4656,0.2498,0.4228,0.3563,-0.0383,0.0218,-0.0362,
12.312523,0.2348,0.9225,0.4656,0.2498,0.4228,0.3563,-0.0533,-0.0075,-0.0394,
12.326471,0.2348,0.9225,0.4656,0.2498,0.4228,0.3563,0.0011,-0.0373,-0.0527,
12.345878,0.2226,0.8815,0.4229,0.2498,0.4228,0.3563,0.0011,-0.0373,-0.0527,
12.347788,0.2226,0.8815,0.4229,0.1372,0.0216,-0.0682,0.0011,-0.0373,-0.0527,
12.349433,0.2226,0.8815,0.4229,0.1372,0.0216,-0.0682,0.0463,0.0037,-0.0735,
12.365688,0.2226,0.8815,0.4229,0.1372,0.0216,-0.0682,0.0160,0.0325,-0.0735,
12.385873,0.1730,0.8563,0.3611,0.1372,0.0216,-0.0682,0.0160,0.0325,-0.0735,
12.387940,0.1730,0.8563,0.3611,-0.3185,-0.2472,-0.6430,0.0160,0.0325,-0.0735,
12.389987,0.1730,0.8563,0.3611,-0.3185,-0.2472,-0.6430,-0.0421,0.0096,-0.0378,
12.406118,0.1730,0.8563,0.3611,-0.3185,-0.2472,-0.6430,-0.0698,-0.0218,-0.0250,
12.425693,0.2380,0.8407,0.4441,-0.3185,-0.2472,-0.6430,-0.0698,-0.0218,-0.0250,
12.427940,0.2380,0.8407,0.4441,0.3159,-0.3909,0.1526,-0.0698,-0.0218,-0.0250,
12.429592,0.2380,0.8407,0.4441,0.3159,-0.3909,0.1526,-0.0437,-0.0117,-0.0415,
12.445688,0.2380,0.8407,0.4441,0.3159,-0.3909,0.1526,-0.0256,-0.0112,-0.0629,
12.466550,0.1945,0.8465,0.3941,0.3159,-0.3909,0.1526,-0.0256,-0.0112,-0.0629,
12.469645,0.1945,0.8465,0.3941,-0.0989,-0.3325,-0.3455,-0.0256,-0.0112,-0.0629,
12.471712,0.1945,0.8465,0.3941,-0.0989,-0.3325,-0.3455,-0.0261,-0.0027,-0.0794,
12.485962,0.1945,0.8465,0.3941,-0.0989,-0.3325,-0.3455,-0.0495,-0.0197,-0.0730,
12.506201,0.2001,0.8910,0.4165,-0.0989,-0.3325,-0.3455,-0.0495,-0.0197,-0.0730,
12.510516,0.2001,0.8910,0.4165,-0.0228,0.1007,-0.1301,-0.0495,-0.0197,-0.0730,
12.512677,0.2001,0.8910,0.4165,-0.0228,0.1007,-0.1301,-0.0842,-0.0218,-0.0437,
12.525755,0.2001,0.8910,0.4165,-0.0228,0.1007,-0.1301,-0.0937,-0.0197,-0.0224,
12.545957,0.2487,0.8907,0.4757,-0.0228,0.1007,-0.1301,-0.0937,-0.0197,-0.0224,
12.548187,0.2487,0.8907,0.4757,0.4391,0.1179,0.4162,-0.0937,-0.0197,-0.0224,
12.549741,0.2487,0.8907,0.4757,0.4391,0.1179,0.4162,-0.0671,-0.0431,-0.0304,
12.565773,0.2487,0.8907,0.4757,0.4391,0.1179,0.4162,-0.0288,-0.0405,-0.0565,
12.586971,0.2003,0.8807,0.4053,0.4391,0.1179,0.4162,-0.0288,-0.0405,-0.0565,
12.589738,0.2003,0.8807,0.4053,-0.0354,0.0227,-0.2790,-0.0288,-0.0405,-0.0565,
12.591994,0.2003,0.8807,0.4053,-0.0354,0.0227,-0.2790,-0.0005,-0.0170,-0.0687,
12.605918,0.2003,0.8807,0.4053,-0.0354,0.0227,-0.2790,-0.0240,-0.0192,-0.0394,
12.625297,0.1727,0.8387,0.3941,-0.0354,0.0227,-0.2790,-0.0240,-0.0192,-0.0394,
12.626647,0.1727,0.8387,0.3941,-0.2897,-0.3947,-0.3855,-0.0240,-0.0192,-0.0394,
12.627892,0.1727,0.8387,0.3941,-0.2897,-0.3947,-0.3855,-0.0921,-0.0474,0.0282,
12.644850,0.1727,0.8387,0.3941,-0.2897,-0.3947,-0.3855,-0.1076,-0.0964,0.0282,
12.666065,0.2414,0.8475,0.4317,-0.2897,-0.3947,-0.3855,-0.1076,-0.0964,0.0282,
12.668482,0.2414,0.8475,0.4317,0.3493,-0.2887,-0.0408,-0.1076,-0.0964,0.0282,
12.670120,0.2414,0.8475,0.4317,0.3493,-0.2887,-0.0408,-0.0698,-0.0575,-0.0064,
12.685089,0.2414,0.8475,0.4317,0.3493,-0.2887,-0.0408,-0.0389,-0.0533,-0.0618,
12.705561,0.1972,0.8284,0.3701,0.3493,-0.2887,-0.0408,-0.0389,-0.0533,-0.0618,
12.709063,0.1972,0.8284,0.3701,-0.0907,-0.4744,-0.6432,-0.0389,-0.0533,-0.0618,
12.710855,0.1972,0.8284,0.3701,-0.0907,-0.4744,-0.6432,-0.0447,-0.0714,-0.0431,
12.724728,0.1972,0.8284,0.3701,-0.0907,-0.4744,-0.6432,-0.0858,-0.0756,-0.0522,
12.745398,0.2323,0.8810,0.4576,-0.0907,-0.4744,-0.6432,-0.0858,-0.0756,-0.0522,
12.748766,0.2323,0.8810,0.4576,0.2451,0.0483,0.2021,-0.0858,-0.0756,-0.0522,
12.750488,0.2323,0.8810,0.4576,0.2451,0.0483,0.2021,-0.0889,-0.0943,-0.0719,
12.764537,0.2323,0.8810,0.4576,0.2451,0.0483,0.2021,-0.0479,-0.0959,-0.0884,
12.785431,0.2023,0.8920,0.4366,0.2451,0.0483,0.2021,-0.0479,-0.0959,-0.0884,
12.788715,0.2023,0.8920,0.4366,-0.0414,0.1602,-0.0158,-0.0479,-0.0959,-0.0884,
12.790684,0.2023,0.8920,0.4366,-0.0414,0.1602,-0.0158,-0.0123,-0.1017,-0.1071,
12.805436,0.2023,0.8920,0.4366,-0.0414,0.1602,-0.0158,-0.0261,-0.0969,-0.0810,
12.824957,0.2006,0.9056,0.4270,-0.0414,0.1602,-0.0158,-0.0261,-0.0969,-0.0810,
12.827266,0.2006,0.9056,0.4270,-0.0434,0.2857,-0.0990,-0.0261,-0.0969,-0.0810,
12.829133,0.2006,0.9056,0.4270,-0.0434,0.2857,-0.0990,-0.0543,-0.0836,-0.1033,
12.844980,0.2006,0.9056,0.4270,-0.0434,0.2857,-0.0990,-0.0511,-0.1358,-0.0724,
12.864907,0.2240,0.8668,0.4346,-0.0434,0.2857,-0.0990,-0.0511,-0.1358,-0.0724,
12.867012,0.2240,0.8668,0.4346,0.1908,-0.0939,-0.0289,-0.0511,-0.1358,-0.0724,
12.868825,0.2240,0.8668,0.4346,0.1908,-0.0939,-0.0289,-0.0240,-0.1316,-0.0591,
12.883915,0.2240,0.8668,0.4346,0.1908,-0.0939,-0.0289,-0.0138,-0.1497,-0.0490,
12.904030,0.2145,0.8595,0.3975,0.1908,-0.0939,-0.0289,-0.0138,-0.1497,-0.0490,
12.905484,0.2145,0.8595,0.3975,0.0803,-0.1715,-0.3731,-0.0138,-0.1497,-0.0490,
12.906650,0.2145,0.8595,0.3975,0.0803,-0.1715,-0.3731,-0.0463,-0.1289,-0.0517,
12.924209,0.2145,0.8595,0.3975,0.0803,-0.1715,-0.3731,-0.0655,-0.1230,-0.0607,
12.944813,0.1986,0.8404,0.4129,0.0803,-0.1715,-0.3731,-0.0655,-0.1230,-0.0607,
12.946871,0.1986,0.8404,0.4129,-0.0811,-0.3552,-0.2257,-0.0655,-0.1230,-0.0607,
12.948849,0.1986,0.8404,0.4129,-0.0811,-0.3552,-0.2257,-0.0549,-0.1438,-0.0346,
12.964829,0.1986,0.8404,0.4129,-0.0811,-0.3552,-0.2257,-0.1028,-0.1188,-0.0064,
12.986053,0.2643,0.9120,0.5025,-0.0811,-0.3552,-0.2257,-0.1028,-0.1188,-0.0064,
12.989707,0.2643,0.9120,0.5025,0.5264,0.3673,0.6283,-0.1028,-0.1188,-0.0064,
12.991450,0.2643,0.9120,0.5025,0.5264,0.3673,0.6283,-0.0905,-0.1662,-0.0740,
13.007092,0.2643,0.9120,0.5025,0.5264,0.3673,0.6283,0.0133,-0.1928,-0.0581,
13.025251,0.1976,0.9027,0.3836,0.5264,0.3673,0.6283,0.0133,-0.1928,-0.0581,
13.027022,0.1976,0.9027,0.3836,-0.1397,0.2684,-0.5159,0.0133,-0.1928,-0.0581,
13.028948,0.1976,0.9027,0.3836,-0.1397,0.2684,-0.5159,0.0256,-0.1055,-0.0602,
13.044538,0.1976,0.9027,0.3836,-0.1397,0.2684,-0.5159,-0.0405,-0.1662,-0.0826,
13.064557,0.2125,0.8670,0.4310,-0.1397,0.2684,-0.5159,-0.0405,-0.1662,-0.0826,
13.067829,0.2125,0.8670,0.4310,0.0057,-0.0880,-0.0373,-0.0405,-0.1662,-0.0826,
13.069785,0.2125,0.8670,0.4310,0.0057,-0.0880,-0.0373,-0.0815,-0.1742,-0.0069,
13.083877,0.2125,0.8670,0.4310,0.0057,-0.0880,-0.0373,-0.0021,-0.1433,-0.0309,
13.104261,0.2172,0.8324,0.3933,0.0057,-0.0880,-0.0373,-0.0021,-0.1433,-0.0309,
13.106525,0.2172,0.8324,0.3933,0.0260,-0.4255,-0.3985,-0.0021,-0.1433,-0.0309,
13.108389,0.2172,0.8324,0.3933,0.0260,-0.4255,-0.3985,0.0181,-0.1465,-0.0703,
13.125048,0.2172,0.8324,0.3933,0.0260,-0.4255,-0.3985,-0.0533,-0.1433,-0.0410,
13.144718,0.2089,0.8382,0.4102,0.0260,-0.4255,-0.3985,-0.0533,-0.1433,-0.0410,
13.146871,0.2089,0.8382,0.4102,-0.0628,-0.3709,-0.2240,-0.0533,-0.1433,-0.0410,
13.148943,0.2089,0.8382,0.4102,-0.0628,-0.3709,-0.2240,-0.0767,-0.1566,-0.0032,
13.164140,0.2089,0.8382,0.4102,-0.0628,-0.3709,-0.2240,-0.0660,-0.1763,-0.0043,
13.184246,0.2617,0.8211,0.4420,-0.0628,-0.3709,-0.2240,-0.0660,-0.1763,-0.0043,
13.186408,0.2617,0.8211,0.4420,0.4043,-0.5186,0.0722,-0.0660,-0.1763,-0.0043,
13.188140,0.2617,0.8211,0.4420,0.4043,-0.5186,0.0722,-0.0597,-0.1523,-0.0357,
13.205465,0.2617,0.8211,0.4420,0.4043,-0.5186,0.0722,-0.0165,-0.1731,-0.0751,
13.224238,0.2055,0.8861,0.3946,0.4043,-0.5186,0.0722,-0.0165,-0.1731,-0.0751,
13.226144,0.2055,0.8861,0.3946,-0.1588,0.1167,-0.3827,-0.0165,-0.1731,-0.0751,
13.228123,0.2055,0.8861,0.3946,-0.1588,0.1167,-0.3827,0.0314,-0.1289,-0.1017,
13.244127,0.2055,0.8861,0.3946,-0.1588,0.1167,-0.3827,0.0165,-0.1491,-0.0842,
13.264571,0.1867,0.9210,0.4080,-0.1588,0.1167,-0.3827,0.0165,-0.1491,-0.0842,
13.266717,0.1867,0.9210,0.4080,-0.3149,0.4274,-0.2011,0.0165,-0.1491,-0.0842,
13.268604,0.1867,0.9210,0.4080,-0.3149,0.4274,-0.2011,-0.0234,-0.1715,-0.0538,
13.283895,0.1867,0.9210,0.4080,-0.3149,0.4274,-0.2011,-0.0373,-0.1699,-0.0213,
13.304439,0.2377,0.9584,0.4862,-0.3149,0.4274,-0.2011,-0.0373,-0.1699,-0.0213,
13.306644,0.2377,0.9584,0.4862,0.1728,0.7944,0.5702,-0.0373,-0.1699,-0.0213,
13.308316,0.2377,0.9584,0.4862,0.1728,0.7944,0.5702,-0.0282,-0.1635,-0.0091,
13.323940,0.2377,0.9584,0.4862,0.1728,0.7944,0.5702,0.0091,-0.1545,-0.0123,
13.343609,0.2370,0.8780,0.4459,0.1728,0.7944,0.5702,0.0091,-0.1545,-0.0123,
13.345568,0.2370,0.8780,0.4459,0.1430,0.0078,0.1846,0.0091,-0.1545,-0.0123,
13.347101,0.2370,0.8780,0.4459,0.1430,0.0078,0.1846,0.0655,-0.1491,-0.0266,
13.364468,0.2370,0.8780,0.4459,0.1430,0.0078,0.1846,0.0266,-0.1518,-0.0112,
13.383987,0.2111,0.8226,0.3972,0.1430,0.0078,0.1846,0.0266,-0.1518,-0.0112,
13.386068,0.2111,0.8226,0.3972,-0.1289,-0.5445,-0.2641,0.0266,-0.1518,-0.0112,
13.388022,0.2111,0.8226,0.3972,-0.1289,-0.5445,-0.2641,-0.0405,-0.1481,-0.0144,
13.408380,0.2111,0.8226,0.3972,-0.1289,-0.5445,-0.2641,-0.0352,-0.1646,-0.0059,
13.423310,0.1928,0.7771,0.3985,-0.1289,-0.5445,-0.2641,-0.0352,-0.1646,-0.0059,
13.425885,0.1928,0.7771,0.3985,-0.3285,-0.9830,-0.2556,-0.0352,-0.1646,-0.0059,
13.428068,0.1928,0.7771,0.3985,-0.3285,-0.9830,-0.2556,0.0053,-0.1651,-0.0043,
13.443955,0.1928,0.7771,0.3985,-0.3285,-0.9830,-0.2556,0.0075,-0.1289,-0.0005,
13.463583,0.2101,0.8556,0.3684,-0.3285,-0.9830,-0.2556,0.0075,-0.1289,-0.0005,
13.466010,0.2101,0.8556,0.3684,-0.1787,-0.2182,-0.5316,0.0075,-0.1289,-0.0005,
13.468083,0.2101,0.8556,0.3684,-0.1787,-0.2182,-0.5316,-0.0293,-0.1193,-0.0053,
13.483429,0.2101,0.8556,0.3684,-0.1787,-0.2182,-0.5316,-0.0320,-0.0932,-0.0288,
13.503772,0.2189,0.9183,0.4461,-0.1787,-0.2182,-0.5316,-0.0320,-0.0932,-0.0288,
13.506019,0.2189,0.9183,0.4461,-0.0935,0.3970,0.2306,-0.0320,-0.0932,-0.0288,
13.507878,0.2189,0.9183,0.4461,-0.0935,0.3970,0.2306,-0.0107,-0.0911,-0.0186,
13.524534,0.2189,0.9183,0.4461,-0.0935,0.3970,0.2306,0.0032,-0.0932,0.0186,
13.544330,0.2541,0.8883,0.4595,-0.0935,0.3970,0.2306,0.0032,-0.0932,0.0186,
13.547012,0.2541,0.8883,0.4595,0.2365,0.1056,0.3638,0.0032,-0.0932,0.0186,
13.548535,0.2541,0.8883,0.4595,0.2365,0.1056,0.3638,-0.0091,-0.0959,0.0224,
13.563548,0.2541,0.8883,0.4595,0.2365,0.1056,0.3638,0.0415,-0.1209,-0.0011,
13.583706,0.2130,0.9093,0.4016,0.2365,0.1056,0.3638,0.0415,-0.1209,-0.0011,
13.585780,0.2130,0.9093,0.4016,-0.1797,0.3062,-0.1850,0.0415,-0.1209,-0.0011,
13.587584,0.2130,0.9093,0.4016,-0.1797,0.3062,-0.1850,0.0405,-0.0272,-0.0091,
13.606095,0.2130,0.9093,0.4016,-0.1797,0.3062,-0.1850,0.0069,-0.0437,-0.0032,
13.623197,0.2052,0.8407,0.4200,-0.1797,0.3062,-0.1850,0.0069,-0.0437,-0.0032,
13.625468,0.2052,0.8407,0.4200,-0.2495,-0.3718,0.0018,0.0069,-0.0437,-0.0032,
13.627280,0.2052,0.8407,0.4200,-0.2495,-0.3718,0.0018,-0.0154,-0.0453,0.0463,
13.643014,0.2052,0.8407,0.4200,-0.2495,-0.3718,0.0018,-0.0080,-0.0415,0.0575,
13.662889,0.2404,0.8421,0.4205,-0.2495,-0.3718,0.0018,-0.0080,-0.0415,0.0575,
13.665533,0.2404,0.8421,0.4205,0.0715,-0.3493,0.0027,-0.0080,-0.0415,0.0575,
13.666986,0.2404,0.8421,0.4205,0.0715,-0.3493,0.0027,-0.0048,-0.0378,0.0277,
13.683298,0.2404,0.8421,0.4205,0.0715,-0.3493,0.0027,-0.0256,-0.0298,0.0298,
13.703318,0.2020,0.8641,0.4234,0.0715,-0.3493,0.0027,-0.0256,-0.0298,0.0298,
13.705569,0.2020,0.8641,0.4234,-0.3080,-0.1284,0.0220,-0.0256,-0.0298,0.0298,
13.707213,0.2020,0.8641,0.4234,-0.3080,-0.1284,0.0220,0.0154,-0.0107,-0.0016,
13.723195,0.2020,0.8641,0.4234,-0.3080,-0.1284,0.0220,0.0043,0.0085,0.0107,
13.743025,0.2091,0.8470,0.4258,-0.3080,-0.1284,0.0220,0.0043,0.0085,0.0107,
13.745304,0.2091,0.8470,0.4258,-0.2267,-0.2954,0.0383,0.0043,0.0085,0.0107,
13.747069,0.2091,0.8470,0.4258,-0.2267,-0.2954,0.0383,-0.0192,-0.0112,0.0133,
13.763937,0.2091,0.8470,0.4258,-0.2267,-0.2954,0.0383,-0.0133,-0.0027,0.0101,
13.783829,0.2709,0.9164,0.4898,-0.2267,-0.2954,0.0383,-0.0133,-0.0027,0.0101,
13.786807,0.2709,0.9164,0.4898,0.3728,0.4003,0.6364,-0.0133,-0.0027,0.0101,
13.788990,0.2709,0.9164,0.4898,0.3728,0.4003,0.6364,0.0117,0.0021,-0.0224,
13.808868,0.2709,0.9164,0.4898,0.3728,0.4003,0.6364,0.0682,-0.0266,-0.0458,
13.823149,0.1932,0.8592,0.3855,0.3728,0.4003,0.6364,0.0682,-0.0266,-0.0458,
13.825121,0.1932,0.8592,0.3855,-0.3715,-0.1707,-0.3731,0.0682,-0.0266,-0.0458,
13.826971,0.1932,0.8592,0.3855,-0.3715,-0.1707,-0.3731,0.0975,-0.0021,-0.0565,
13.843285,0.1932,0.8592,0.3855,-0.3715,-0.1707,-0.3731,0.0639,0.0112,-0.0298,
13.863592,0.1659,0.8218,0.3753,-0.3715,-0.1707,-0.3731,0.0639,0.0112,-0.0298,
13.866137,0.1659,0.8218,0.3753,-0.6013,-0.5607,-0.4451,0.0639,0.0112,-0.0298,
13.868024,0.1659,0.8218,0.3753,-0.6013,-0.5607,-0.4451,-0.0213,-0.0213,0.0240,
13.883546,0.1659,0.8218,0.3753,-0.6013,-0.5607,-0.4451,-0.0724,-0.0602,0.0724,
13.903427,0.2651,0.8521,0.4830,-0.6013,-0.5607,-0.4451,-0.0724,-0.0602,0.0724,
13.905901,0.2651,0.8521,0.4830,0.3473,-0.2384,0.5707,-0.0724,-0.0602,0.0724,
13.907605,0.2651,0.8521,0.4830,0.3473,-0.2384,0.5707,-0.0405,-0.0703,0.0676,
13.922994,0.2651,0.8521,0.4830,0.3473,-0.2384,0.5707,0.0149,-0.0314,0.0261,
13.942627,0.2216,0.8560,0.4043,0.3473,-0.2384,0.5707,0.0149,-0.0314,0.0261,
13.944632,0.2216,0.8560,0.4043,-0.1022,-0.1925,-0.2033,0.0149,-0.0314,0.0261,
13.946583,0.2216,0.8560,0.4043,-0.1022,-0.1925,-0.2033,0.0069,-0.0117,0.0128,
13.962855,0.2216,0.8560,0.4043,-0.1022,-0.1925,-0.2033,-0.0213,-0.0272,0.0165,
13.982745,0.2409,0.8959,0.4710,-0.1022,-0.1925,-0.2033,-0.0213,-0.0272,0.0165,
13.985324,0.2409,0.8959,0.4710,0.0812,0.2076,0.4331,-0.0213,-0.0272,0.0165,
13.986906,0.2409,0.8959,0.4710,0.0812,0.2076,0.4331,0.0048,-0.0330,0.0059,
14.004777,0.2409,0.8959,0.4710,0.0812,0.2076,0.4331,0.0458,-0.0224,-0.0027,
14.023090,0.2160,0.8861,0.4102,0.0812,0.2076,0.4331,0.0458,-0.0224,-0.0027,
14.025236,0.2160,0.8861,0.4102,-0.1636,0.1073,-0.1533,0.0458,-0.0224,-0.0027,
14.027066,0.2160,0.8861,0.4102,-0.1636,0.1073,-0.1533,0.0447,-0.0128,0.0037,
14.042639,0.2160,0.8861,0.4102,-0.1636,0.1073,-0.1533,0.0112,-0.0293,0.0192,
14.062680,0.2409,0.8817,0.4566,-0.1636,0.1073,-0.1533,0.0112,-0.0293,0.0192,
14.065034,0.2409,0.8817,0.4566,0.0760,0.0638,0.3049,0.0112,-0.0293,0.0192,
14.066535,0.2409,0.8817,0.4566,0.0760,0.0638,0.3049,0.0442,-0.0304,-0.0043,
14.082607,0.2409,0.8817,0.4566,0.0760,0.0638,0.3049,0.0676,-0.0016,-0.0181,
14.102807,0.1954,0.8732,0.3936,0.0760,0.0638,0.3049,0.0676,-0.0016,-0.0181,
14.105382,0.1954,0.8732,0.3936,-0.3540,-0.0344,-0.2915,0.0676,-0.0016,-0.0181,
14.107086,0.1954,0.8732,0.3936,-0.3540,-0.0344,-0.2915,0.0490,0.0330,-0.0128,
14.123419,0.1954,0.8732,0.3936,-0.3540,-0.0344,-0.2915,-0.0096,0.0027,0.0218,
14.143399,0.2565,0.8612,0.4476,-0.3540,-0.0344,-0.2915,-0.0096,0.0027,0.0218,
14.146832,0.2565,0.8612,0.4476,0.2444,-0.1510,0.2362,-0.0096,0.0027,0.0218,
14.148776,0.2565,0.8612,0.4476,0.2444,-0.1510,0.2362,-0.0138,-0.0453,0.0517,
14.161879,0.2565,0.8612,0.4476,0.2444,-0.1510,0.2362,-0.0016,-0.0415,0.0463,
14.182424,0.2521,0.8060,0.4478,0.2444,-0.1510,0.2362,-0.0016,-0.0415,0.0463,
14.184954,0.2521,0.8060,0.4478,0.1594,-0.6643,0.2044,-0.0016,-0.0415,0.0463,
14.186536,0.2521,0.8060,0.4478,0.1594,-0.6643,0.2044,0.0304,-0.0133,-0.0197,
14.202244,0.2521,0.8060,0.4478,0.1594,-0.6643,0.2044,0.0676,0.0138,-0.0602,
14.222505,0.1827,0.8851,0.3733,0.1594,-0.6643,0.2044,0.0676,0.0138,-0.0602,
14.224540,0.1827,0.8851,0.3733,-0.4981,0.0957,-0.5058,0.0676,0.0138,-0.0602,
14.226371,0.1827,0.8851,0.3733,-0.4981,0.0957,-0.5058,0.0325,0.0304,-0.0415,
14.242271,0.1827,0.8851,0.3733,-0.4981,0.0957,-0.5058,0.0149,0.0245,-0.0245,
14.262763,0.2485,0.9284,0.4722,-0.4981,0.0957,-0.5058,0.0149,0.0245,-0.0245,
14.265642,0.2485,0.9284,0.4722,0.1639,0.5129,0.4675,0.0149,0.0245,-0.0245,
14.267109,0.2485,0.9284,0.4722,0.1639,0.5129,0.4675,0.0272,0.0277,-0.0298,
14.282830,0.2485,0.9284,0.4722,0.1639,0.5129,0.4675,0.0644,0.0016,-0.0341,
14.302606,0.2013,0.8756,0.4131,0.1639,0.5129,0.4675,0.0644,0.0016,-0.0341,
14.305775,0.2013,0.8756,0.4131,-0.2746,-0.0167,-0.0989,0.0644,0.0016,-0.0341,
14.308001,0.2013,0.8756,0.4131,-0.2746,-0.0167,-0.0989,0.0921,0.0197,-0.0368,
14.321498,0.2013,0.8756,0.4131,-0.2746,-0.0167,-0.0989,0.0767,0.0314,-0.0043,
14.342903,0.2187,0.8636,0.3909,-0.2746,-0.0167,-0.0989,0.0767,0.0314,-0.0043,
14.345482,0.2187,0.8636,0.3909,-0.0891,-0.1522,-0.2873,0.0767,0.0314,-0.0043,
14.347439,0.2187,0.8636,0.3909,-0.0891,-0.1522,-0.2873,0.0341,0.0245,0.0005,
14.362183,0.2187,0.8636,0.3909,-0.0891,-0.1522,-0.2873,-0.0032,0.0149,0.0101,
14.381998,0.2199,0.8761,0.4209,-0.0891,-0.1522,-0.2873,-0.0032,0.0149,0.0101,
14.384436,0.2199,0.8761,0.4209,-0.0729,-0.0332,0.0112,-0.0032,0.0149,0.0101,
14.386172,0.2199,0.8761,0.4209,-0.0729,-0.0332,0.0112,-0.0085,0.0261,0.0282,
14.403620,0.2199,0.8761,0.4209,-0.0729,-0.0332,0.0112,-0.0245,0.0272,0.0330,
14.422043,0.2318,0.8702,0.4415,-0.0729,-0.0332,0.0112,-0.0245,0.0272,0.0330,
14.424422,0.2318,0.8702,0.4415,0.0395,-0.0839,0.2009,-0.0245,0.0272,0.0330,
14.426190,0.2318,0.8702,0.4415,0.0395,-0.0839,0.2009,-0.0581,0.0016,0.0623,
14.442425,0.2318,0.8702,0.4415,0.0395,-0.0839,0.2009,-0.0474,0.0043,0.0655,
14.462330,0.2751,0.8690,0.4735,0.0395,-0.0839,0.2009,-0.0474,0.0043,0.0655,
14.464423,0.2751,0.8690,0.4735,0.4218,-0.0623,0.4676,-0.0474,0.0043,0.0655,
14.465927,0.2751,0.8690,0.4735,0.4218,-0.0623,0.4676,-0.0277,0.0011,0.0250,
14.482357,0.2751,0.8690,0.4735,0.4218,-0.0623,0.4676,0.0149,0.0415,-0.0053,
14.501648,0.1632,0.8414,0.3745,0.4218,-0.0623,0.4676,0.0149,0.0415,-0.0053,
14.503792,0.1632,0.8414,0.3745,-0.6628,-0.3341,-0.5060,0.0149,0.0415,-0.0053,
14.505969,0.1632,0.8414,0.3745,-0.6628,-0.3341,-0.5060,0.0192,0.0650,-0.0133,
14.522185,0.1632,0.8414,0.3745,-0.6628,-0.3341,-0.5060,0.0154,0.0309,0.0053,
14.542088,0.2502,0.8595,0.4178,-0.6628,-0.3341,-0.5060,0.0154,0.0309,0.0053,
14.545544,0.2502,0.8595,0.4178,0.1987,-0.1602,-0.0804,0.0154,0.0309,0.0053,
14.547399,0.2502,0.8595,0.4178,0.1987,-0.1602,-0.0804,-0.0261,0.0192,0.0399,
14.561704,0.2502,0.8595,0.4178,0.1987,-0.1602,-0.0804,-0.0170,0.0346,-0.0075,
14.581687,0.2568,0.8934,0.4696,0.1987,-0.1602,-0.0804,-0.0170,0.0346,-0.0075,
14.585655,0.2568,0.8934,0.4696,0.2556,0.1830,0.4099,-0.0170,0.0346,-0.0075,
14.587566,0.2568,0.8934,0.4696,0.2556,0.1830,0.4099,0.0000,0.0320,-0.0357,
14.606201,0.2568,0.8934,0.4696,0.2556,0.1830,0.4099,0.0261,0.0037,-0.0266,
14.622403,0.2052,0.8104,0.3797,0.2556,0.1830,0.4099,0.0261,0.0037,-0.0266,
14.624409,0.2052,0.8104,0.3797,-0.2363,-0.6359,-0.4683,0.0261,0.0037,-0.0266,
14.626364,0.2052,0.8104,0.3797,-0.2363,-0.6359,-0.4683,0.0032,0.0149,0.0064,
14.641220,0.2052,0.8104,0.3797,-0.2363,-0.6359,-0.4683,-0.0554,0.0208,0.0005,
14.661843,0.2245,0.8091,0.4178,-0.2363,-0.6359,-0.4683,-0.0554,0.0208,0.0005,
14.664613,0.2245,0.8091,0.4178,-0.0474,-0.6416,-0.1075,-0.0554,0.0208,0.0005,
14.666490,0.2245,0.8091,0.4178,-0.0474,-0.6416,-0.1075,-0.0597,0.0000,0.0075,
14.680933,0.2245,0.8091,0.4178,-0.0474,-0.6416,-0.1075,-0.0474,0.0123,-0.0016,
14.701808,0.2443,0.8468,0.4219,-0.0474,-0.6416,-0.1075,-0.0474,0.0123,-0.0016,
14.703100,0.2443,0.8468,0.4219,0.1403,-0.2612,-0.0872,-0.0474,0.0123,-0.0016,
14.704069,0.2443,0.8468,0.4219,0.1403,-0.2612,-0.0872,-0.0586,0.0123,-0.0277,
14.721974,0.2443,0.8468,0.4219,0.1403,-0.2612,-0.0872,-0.0431,-0.0032,-0.0463,
14.742481,0.2289,0.8722,0.4429,0.1403,-0.2612,-0.0872,-0.0431,-0.0032,-0.0463,
14.744977,0.2289,0.8722,0.4429,-0.0002,-0.0052,0.0990,-0.0431,-0.0032,-0.0463,
14.746823,0.2289,0.8722,0.4429,-0.0002,-0.0052,0.0990,-0.0405,-0.0197,-0.0698,
14.761474,0.2289,0.8722,0.4429,-0.0002,-0.0052,0.0990,-0.0229,-0.0112,-0.0772,
14.781588,0.1979,0.9213,0.4002,-0.0002,-0.0052,0.0990,-0.0229,-0.0112,-0.0772,
14.783814,0.1979,0.9213,0.4002,-0.2706,0.4622,-0.3096,-0.0229,-0.0112,-0.0772,
14.785462,0.1979,0.9213,0.4002,-0.2706,0.4622,-0.3096,-0.0362,-0.0005,-0.0639,
14.803758,0.1979,0.9213,0.4002,-0.2706,0.4622,-0.3096,-0.0826,-0.0133,-0.0522,
14.821707,0.2494,0.9311,0.4994,-0.2706,0.4622,-0.3096,-0.0826,-0.0133,-0.0522,
14.825611,0.2494,0.9311,0.4994,0.2533,0.5630,0.6424,-0.0826,-0.0133,-0.0522,
14.827505,0.2494,0.9311,0.4994,0.2533,0.5630,0.6424,-0.1076,-0.0202,-0.0415,
14.841532,0.2494,0.9311,0.4994,0.2533,0.5630,0.6424,-0.0629,-0.0399,-0.0383,
14.861604,0.2218,0.8165,0.4195,0.2533,0.5630,0.6424,-0.0629,-0.0399,-0.0383,
14.865362,0.2218,0.8165,0.4195,-0.0107,-0.5477,-0.1682,-0.0629,-0.0399,-0.0383,
14.867141,0.2218,0.8165,0.4195,-0.0107,-0.5477,-0.1682,0.0224,-0.0421,-0.0575,
14.881195,0.2218,0.8165,0.4195,-0.0107,-0.5477,-0.1682,0.0043,-0.0261,-0.0447,
14.901781,0.1981,0.8426,0.3755,-0.0107,-0.5477,-0.1682,0.0043,-0.0261,-0.0447,
14.904246,0.1981,0.8426,0.3755,-0.2306,-0.3024,-0.5837,0.0043,-0.0261,-0.0447,
14.906095,0.1981,0.8426,0.3755,-0.2306,-0.3024,-0.5837,-0.0826,-0.0650,-0.0320,
14.921626,0.1981,0.8426,0.3755,-0.2306,-0.3024,-0.5837,-0.1129,-0.0613,-0.0245,
14.942080,0.2204,0.8788,0.4547,-0.2306,-0.3024,-0.5837,-0.1129,-0.0613,-0.0245,
14.944480,0.2204,0.8788,0.4547,-0.0132,0.0656,0.1650,-0.1129,-0.0613,-0.0245,
14.946145,0.2204,0.8788,0.4547,-0.0132,0.0656,0.1650,-0.0815,-0.0916,-0.0245,
14.960770,0.2204,0.8788,0.4547,-0.0132,0.0656,0.1650,-0.0708,-0.1028,0.0112,
14.981347,0.2453,0.8939,0.4591,-0.0132,0.0656,0.1650,-0.0708,-0.1028,0.0112,
14.983501,0.2453,0.8939,0.4591,0.2157,0.2266,0.1908,-0.0708,-0.1028,0.0112,
14.985012,0.2453,0.8939,0.4591,0.2157,0.2266,0.1908,-0.0852,-0.1007,0.0341,
15.003557,0.2453,0.8939,0.4591,0.2157,0.2266,0.1908,-0.0618,-0.0991,-0.0123,
15.021461,0.2011,0.7896,0.4033,0.2157,0.2266,0.1908,-0.0618,-0.0991,-0.0123,
15.023446,0.2011,0.7896,0.4033,-0.2386,-0.7821,-0.3713,-0.0618,-0.0991,-0.0123,
15.025580,0.2011,0.7896,0.4033,-0.2386,-0.7821,-0.3713,-0.0240,-0.0900,-0.0186,
15.041539,0.2011,0.7896,0.4033,-0.2386,-0.7821,-0.3713,-0.0043,-0.0666,-0.0261,
15.060793,0.1986,0.8673,0.3958,-0.2386,-0.7821,-0.3713,-0.0043,-0.0666,-0.0261,
15.063136,0.1986,0.8673,0.3958,-0.2605,-0.0282,-0.4318,-0.0043,-0.0666,-0.0261,
15.065046,0.1986,0.8673,0.3958,-0.2605,-0.0282,-0.4318,0.0021,-0.0804,-0.0272,
15.081435,0.1986,0.8673,0.3958,-0.2605,-0.0282,-0.4318,0.0027,-0.0868,0.0032,
15.101743,0.2206,0.8983,0.4339,-0.2605,-0.0282,-0.4318,0.0027,-0.0868,0.0032,
15.103884,0.2206,0.8983,0.4339,-0.0453,0.2652,-0.0370,0.0027,-0.0868,0.0032,
15.105633,0.2206,0.8983,0.4339,-0.0453,0.2652,-0.0370,-0.0250,-0.0501,-0.0053,
15.120989,0.2206,0.8983,0.4339,-0.0453,0.2652,-0.0370,-0.0293,-0.1039,0.0075,
15.141244,0.2624,0.8463,0.4441,-0.0453,0.2652,-0.0370,-0.0293,-0.1039,0.0075,
15.143327,0.2624,0.8463,0.4441,0.3447,-0.2391,0.0623,-0.0293,-0.1039,0.0075,
15.144978,0.2624,0.8463,0.4441,0.3447,-0.2391,0.0623,-0.0048,-0.1065,0.0016,
15.160837,0.2624,0.8463,0.4441,0.3447,-0.2391,0.0623,-0.0016,-0.1177,-0.0250,
15.181466,0.2414,0.8644,0.4165,0.3447,-0.2391,0.0623,-0.0016,-0.1177,-0.0250,
15.183910,0.2414,0.8644,0.4165,0.1159,-0.0629,-0.1943,-0.0016,-0.1177,-0.0250,
15.185791,0.2414,0.8644,0.4165,0.1159,-0.0629,-0.1943,-0.0346,-0.0905,-0.0415,
15.202981,0.2414,0.8644,0.4165,0.1159,-0.0629,-0.1943,-0.0655,-0.0794,-0.0368,
15.221545,0.2455,0.8758,0.4691,0.1159,-0.0629,-0.1943,-0.0655,-0.0794,-0.0368,
15.223834,0.2455,0.8758,0.4691,0.1482,0.0583,0.3076,-0.0655,-0.0794,-0.0368,
15.225423,0.2455,0.8758,0.4691,0.1482,0.0583,0.3076,-0.0538,-0.1166,-0.0314,
15.240710,0.2455,0.8758,0.4691,0.1482,0.0583,0.3076,-0.0208,-0.1230,-0.0410,
15.261046,0.2106,0.8475,0.3938,0.1482,0.0583,0.3076,-0.0208,-0.1230,-0.0410,
15.263944,0.2106,0.8475,0.3938,-0.2026,-0.2181,-0.4280,-0.0208,-0.1230,-0.0410,
15.266129,0.2106,0.8475,0.3938,-0.2026,-0.2181,-0.4280,0.0053,-0.0969,-0.0506,
15.280403,0.2106,0.8475,0.3938,-0.2026,-0.2181,-0.4280,-0.0197,-0.0788,-0.0357,
15.301073,0.1695,0.8411,0.4151,-0.2026,-0.2181,-0.4280,-0.0197,-0.0788,-0.0357,
15.305117,0.1695,0.8411,0.4151,-0.5845,-0.2906,-0.2100,-0.0197,-0.0788,-0.0357,
15.306834,0.1695,0.8411,0.4151,-0.5845,-0.2906,-0.2100,0.0059,-0.1135,-0.0149,
15.321456,0.1695,0.8411,0.4151,-0.5845,-0.2906,-0.2100,0.0708,-0.0868,-0.0059,
15.341305,0.1168,0.7808,0.3117,-0.5845,-0.2906,-0.2100,0.0708,-0.0868,-0.0059,
15.343770,0.1168,0.7808,0.3117,-1.0994,-0.8978,-1.1921,0.0708,-0.0868,-0.0059,
15.345683,0.1168,0.7808,0.3117,-1.0994,-0.8978,-1.1921,0.0778,-0.0437,0.0692,
15.360611,0.1168,0.7808,0.3117,-1.0994,-0.8978,-1.1921,-0.0629,-0.0362,0.0927,
15.381113,0.2138,0.9159,0.4305,-1.0994,-0.8978,-1.1921,-0.0629,-0.0362,0.0927,
15.385435,0.2138,0.9159,0.4305,-0.1320,0.4053,0.0048,-0.0629,-0.0362,0.0927,
15.387213,0.2138,0.9159,0.4305,-0.1320,0.4053,0.0048,-0.1497,-0.1033,0.1507,
15.404312,0.2138,0.9159,0.4305,-0.1320,0.4053,0.0048,-0.2088,-0.0698,0.2019,
15.420011,0.3374,0.9269,0.5536,-0.1320,0.4053,0.0048,-0.2088,-0.0698,0.2019,
15.422440,0.3374,0.9269,0.5536,1.0035,0.5606,1.1561,-0.2088,-0.0698,0.2019,
15.424337,0.3374,0.9269,0.5536,1.0035,0.5606,1.1561,-0.2280,-0.1103,0.1683,
15.440380,0.3374,0.9269,0.5536,1.0035,0.5606,1.1561,-0.2056,-0.1886,0.1348,
15.460929,0.4192,0.9164,0.6254,1.0035,0.5606,1.1561,-0.2056,-0.1886,0.1348,
15.462959,0.4192,0.9164,0.6254,1.6810,0.5441,1.7586,-0.2056,-0.1886,0.1348,
15.464570,0.4192,0.9164,0.6254,1.6810,0.5441,1.7586,-0.1465,-0.2162,0.0629,
15.480200,0.4192,0.9164,0.6254,1.6810,0.5441,1.7586,0.0186,-0.1486,-0.0634,
15.500885,0.2536,0.8109,0.4283,1.6810,0.5441,1.7586,0.0186,-0.1486,-0.0634,
15.503120,0.2536,0.8109,0.4283,-0.2987,-0.2357,-0.4369,0.0186,-0.1486,-0.0634,
15.505398,0.2536,0.8109,0.4283,-0.2987,-0.2357,-0.4369,0.1001,-0.0639,-0.1257,
15.520832,0.2536,0.8109,0.4283,-0.2987,-0.2357,-0.4369,0.0751,-0.0506,-0.1289,
15.540341,0.1656,0.8106,0.3640,-0.2987,-0.2357,-0.4369,0.0751,-0.0506,-0.1289,
15.542834,0.1656,0.8106,0.3640,-1.1189,-0.2756,-1.0250,0.0751,-0.0506,-0.1289,
15.544844,0.1656,0.8106,0.3640,-1.1189,-0.2756,-1.0250,0.0565,-0.0932,-0.1241,
15.560978,0.1656,0.8106,0.3640,-1.1189,-0.2756,-1.0250,0.0469,-0.0719,-0.1044,
15.580667,0.1192,0.7500,0.3489,-1.1189,-0.2756,-1.0250,0.0469,-0.0719,-0.1044,
15.583104,0.1192,0.7500,0.3489,-1.3600,-0.9941,-1.0700,0.0469,-0.0719,-0.1044,
15.585097,0.1192,0.7500,0.3489,-1.3600,-0.9941,-1.0700,0.0272,-0.0240,-0.0879,
15.600469,0.1192,0.7500,0.3489,-1.3600,-0.9941,-1.0700,0.0298,-0.0714,-0.0399,
15.620282,0.1502,0.8668,0.3530,-1.3600,-0.9941,-1.0700,0.0298,-0.0714,-0.0399,
15.622393,0.1502,0.8668,0.3530,-0.6630,-0.0947,-0.7633,0.0298,-0.0714,-0.0399,
