
time,gFx,gFy,gFz,ax,ay,az,wx,wy,wz,
0.023049,-0.0589,0.4087,0.9604,0.0000,0.0000,0.0000,0.0000,0.0000,0.0000,
0.024630,-0.0589,0.4087,0.9604,0.0000,0.0000,0.0000,0.0154,0.5204,0.1939,
0.036624,-0.0589,0.4087,0.9604,0.0000,0.0000,0.0000,0.0154,0.5204,0.1939,
0.056419,0.0630,0.3992,1.0144,0.0000,0.0000,0.0000,0.0154,0.5204,0.1939,
0.058047,0.0630,0.3992,1.0144,0.0516,0.3269,0.8305,0.0154,0.5204,0.1939,
0.059579,0.0630,0.3992,1.0144,0.0516,0.3269,0.8305,0.0154,0.5204,0.1939,
0.076133,0.0630,0.3992,1.0144,0.0516,0.3269,0.8305,0.0154,0.5204,0.1939,
0.096364,0.0963,0.3960,0.8582,0.0516,0.3269,0.8305,0.0154,0.5204,0.1939,
0.098130,0.0963,0.3960,0.8582,0.2076,0.0945,-0.6054,0.0154,0.5204,0.1939,
0.099811,0.0963,0.3960,0.8582,0.2076,0.0945,-0.6054,1.9633,0.4975,-0.0932,
0.116644,0.0963,0.3960,0.8582,0.2076,0.0945,-0.6054,1.5707,-0.0937,-0.3968,
0.136971,-0.0178,0.4187,0.5927,0.2076,0.0945,-0.6054,1.5707,-0.0937,-0.3968,
0.139203,-0.0178,0.4187,0.5927,-0.5745,-0.3600,-2.9144,1.5707,-0.0937,-0.3968,
0.141187,-0.0178,0.4187,0.5927,-0.5745,-0.3600,-2.9144,1.1526,-0.5156,-0.6679,
0.156374,-0.0178,0.4187,0.5927,-0.5745,-0.3600,-2.9144,0.6274,-0.6844,-0.8645,
0.176593,-0.1439,0.4727,0.6122,-0.5745,-0.3600,-2.9144,0.6274,-0.6844,-0.8645,
0.178756,-0.1439,0.4727,0.6122,-0.9308,-0.4516,-2.3721,0.6274,-0.6844,-0.8645,
0.180782,-0.1439,0.4727,0.6122,-0.9308,-0.4516,-2.3721,0.0533,-0.5507,-0.9982,
0.196375,-0.1439,0.4727,0.6122,-0.9308,-0.4516,-2.3721,-0.3702,-0.1795,-0.6930,
0.216269,-0.2123,0.4867,0.8250,-0.9308,-0.4516,-2.3721,-0.3702,-0.1795,-0.6930,
0.218514,-0.2123,0.4867,0.8250,-0.8277,-0.2301,-0.2579,-0.3702,-0.1795,-0.6930,
0.220295,-0.2123,0.4867,0.8250,-0.8277,-0.2301,-0.2579,-0.5832,0.2439,-0.2093,
0.236142,-0.2123,0.4867,0.8250,-0.8277,-0.2301,-0.2579,-0.5811,0.4677,0.1140,
0.255922,-0.0672,0.4742,0.8636,-0.8277,-0.2301,-0.2579,-0.5811,0.4677,0.1140,
0.258540,-0.0672,0.4742,0.8636,0.3296,-0.2236,0.0095,-0.5811,0.4677,0.1140,
0.260419,-0.0672,0.4742,0.8636,0.3296,-0.2236,0.0095,-0.4692,0.3169,0.1715,
0.275601,-0.0672,0.4742,0.8636,0.3296,-0.2236,0.0095,-0.2386,-0.0724,0.2301,
0.297269,0.0831,0.5380,0.9921,0.3296,-0.2236,0.0095,-0.2386,-0.0724,0.2301,
0.299822,0.0831,0.5380,0.9921,0.9885,0.4823,1.1672,-0.2386,-0.0724,0.2301,
0.301633,0.0831,0.5380,0.9921,0.9885,0.4823,1.1672,0.0336,-0.2599,0.1949,
0.316518,0.0831,0.5380,0.9921,0.9885,0.4823,1.1672,0.1992,-0.4517,-0.0804,
0.335729,0.1153,0.5558,0.9159,0.9885,0.4823,1.1672,0.1992,-0.4517,-0.0804,
0.337278,0.1153,0.5558,0.9159,1.1622,0.6147,0.4424,0.1992,-0.4517,-0.0804,
0.338465,0.1153,0.5558,0.9159,1.1622,0.6147,0.4424,0.2503,-0.4826,-0.3169,
0.355698,0.1153,0.5558,0.9159,1.1622,0.6147,0.4424,0.2956,-0.4735,-0.4778,
0.375577,-0.0665,0.5712,0.9166,1.1622,0.6147,0.4424,0.2956,-0.4735,-0.4778,
0.376973,-0.0665,0.5712,0.9166,-0.7032,0.6713,0.5037,0.2956,-0.4735,-0.4778,
0.378175,-0.0665,0.5712,0.9166,-0.7032,0.6713,0.5037,0.3649,-0.2344,-0.5012,
0.396379,-0.0665,0.5712,0.9166,-0.7032,0.6713,0.5037,0.4181,0.0320,-0.1779,
0.415696,0.0086,0.5358,0.7354,-0.7032,0.6713,0.5037,0.4181,0.0320,-0.1779,
0.417524,0.0086,0.5358,0.7354,0.0657,0.1820,-1.1887,0.4181,0.0320,-0.1779,
0.418905,0.0086,0.5358,0.7354,0.0657,0.1820,-1.1887,0.3286,0.5449,0.0330,
0.435733,0.0086,0.5358,0.7354,0.0657,0.1820,-1.1887,0.2828,0.3920,0.0330,
0.455719,0.1092,0.5287,0.7534,0.0657,0.1820,-1.1887,0.2828,0.3920,0.0330,
0.457464,0.1092,0.5287,0.7534,1.1868,0.0031,-0.9437,0.2828,0.3920,0.0330,
0.459014,0.1092,0.5287,0.7534,1.1868,0.0031,-0.9437,0.3009,-0.4197,-0.1752,
0.475542,0.1092,0.5287,0.7534,1.1868,0.0031,-0.9437,0.3526,-1.2171,-0.3670,
0.496095,0.0523,0.4358,0.8321,1.1868,0.0031,-0.9437,0.3526,-1.2171,-0.3670,
0.497998,0.0523,0.4358,0.8321,0.4062,-1.0106,-0.1074,0.3526,-1.2171,-0.3670,
0.499812,0.0523,0.4358,0.8321,0.4062,-1.0106,-0.1074,0.6658,-1.1473,-0.2280,
0.515433,0.0523,0.4358,0.8321,0.4062,-1.0106,-0.1074,0.6461,-0.4852,-0.1694,
0.536322,0.1390,0.4974,0.5929,0.4062,-1.0106,-0.1074,0.6461,-0.4852,-0.1694,
0.538217,0.1390,0.4974,0.5929,1.0315,-0.6237,-2.3028,0.6461,-0.4852,-0.1694,
0.539893,0.1390,0.4974,0.5929,1.0315,-0.6237,-2.3028,0.0804,-0.0751,0.0314,
0.555568,0.1390,0.4974,0.5929,1.0315,-0.6237,-2.3028,-0.5332,0.0570,-0.1182,
0.575663,0.0567,0.4569,0.6831,1.0315,-0.6237,-2.3028,-0.5332,0.0570,-0.1182,
0.577889,0.0567,0.4569,0.6831,0.2312,-0.9480,-1.4687,-0.5332,0.0570,-0.1182,
0.579662,0.0567,0.4569,0.6831,0.2312,-0.9480,-1.4687,-0.7574,0.0288,-0.0858,
0.595766,0.0567,0.4569,0.6831,0.2312,-0.9480,-1.4687,-0.6855,0.0186,0.5087,
0.615427,0.1571,0.4305,0.6210,0.2312,-0.9480,-1.4687,-0.6855,0.0186,0.5087,
0.618187,0.1571,0.4305,0.6210,1.1789,-0.9663,-2.2300,-0.6855,0.0186,0.5087,
0.620602,0.1571,0.4305,0.6210,1.1789,-0.9663,-2.2300,-1.0674,0.5593,0.4708,
0.635281,0.1571,0.4305,0.6210,1.1789,-0.9663,-2.2300,-1.3161,1.0978,0.4139,
0.656381,-0.1974,0.3489,1.0256,1.1789,-0.9663,-2.2300,-1.3161,1.0978,0.4139,
0.658984,-0.1974,0.3489,1.0256,-2.1006,-1.3561,1.4869,-1.3161,1.0978,0.4139,
0.661285,-0.1974,0.3489,1.0256,-2.1006,-1.3561,1.4869,-1.2181,0.3377,0.9215,
0.676387,-0.1974,0.3489,1.0256,-2.1006,-1.3561,1.4869,-0.8080,0.2162,1.2011,
0.696618,0.0347,0.2651,1.0048,-2.1006,-1.3561,1.4869,-0.8080,0.2162,1.2011,
0.698633,0.0347,0.2651,1.0048,0.0822,-1.7960,1.0838,-0.8080,0.2162,1.2011,
0.700361,0.0347,0.2651,1.0048,0.0822,-1.7960,1.0838,-0.0698,0.4687,1.1990,
0.715717,0.0347,0.2651,1.0048,0.0822,-1.7960,1.0838,0.7084,-0.0570,1.1697,
0.736832,0.1319,0.3452,1.0422,0.0822,-1.7960,1.0838,0.7084,-0.0570,1.1697,
0.739119,0.1319,0.3452,1.0422,0.8935,-1.0731,1.4870,0.7084,-0.0570,1.1697,
0.741736,0.1319,0.3452,1.0422,0.8935,-1.0731,1.4870,1.4786,-0.9784,1.0370,
0.755865,0.1319,0.3452,1.0422,0.8935,-1.0731,1.4870,1.9223,-1.0834,1.1159,
0.775608,-0.2086,0.2116,0.3987,0.8935,-1.0731,1.4870,1.9223,-1.0834,1.1159,
0.778005,-0.2086,0.2116,0.3987,-2.9996,-2.9348,-4.4698,1.9223,-1.0834,1.1159,
0.779817,-0.2086,0.2116,0.3987,-2.9996,-2.9348,-4.4698,-0.1401,0.6141,1.7438,
0.795604,-0.2086,0.2116,0.3987,-2.9996,-2.9348,-4.4698,-1.4109,1.6096,1.4093,
0.815782,0.2138,0.4322,1.2213,-2.9996,-2.9348,-4.4698,-1.4109,1.6096,1.4093,
0.817991,0.2138,0.4322,1.2213,1.2184,-0.4010,3.3717,-1.4109,1.6096,1.4093,
0.819674,0.2138,0.4322,1.2213,1.2184,-0.4010,3.3717,-1.1745,1.6442,1.0844,
0.835535,0.2138,0.4322,1.2213,1.2184,-0.4010,3.3717,-0.3563,0.7867,0.7265,
0.855430,0.2309,0.3911,1.0916,1.2184,-0.4010,3.3717,-0.3563,0.7867,0.7265,
0.857950,0.2309,0.3911,1.0916,1.6405,-0.5017,1.9227,-0.3563,0.7867,0.7265,
0.859573,0.2309,0.3911,1.0916,1.6405,-0.5017,1.9227,0.3680,0.5758,0.1662,
0.875324,0.2309,0.3911,1.0916,1.6405,-0.5017,1.9227,0.6743,0.4852,-0.5065,
0.895427,0.2101,0.5807,0.7967,1.6405,-0.5017,1.9227,0.6743,0.4852,-0.5065,
0.897717,0.2101,0.5807,0.7967,1.6227,1.1752,-0.8866,0.6743,0.4852,-0.5065,
0.899589,0.2101,0.5807,0.7967,1.6227,1.1752,-0.8866,0.5587,-0.2296,-0.8575,
0.915335,0.2101,0.5807,0.7967,1.6227,1.1752,-0.8866,0.1071,-1.1505,-0.9092,
0.935788,0.1163,0.5265,0.5025,1.6227,1.1752,-0.8866,0.1071,-1.1505,-0.9092,
0.937621,0.1163,0.5265,0.5025,0.6278,0.5130,-3.6960,0.1071,-1.1505,-0.9092,
0.939187,0.1163,0.5265,0.5025,0.6278,0.5130,-3.6960,-0.4671,-2.0677,-0.5976,
0.956065,0.1163,0.5265,0.5025,0.6278,0.5130,-3.6960,-1.3928,-3.0392,0.2402,
0.975331,0.2868,0.2856,0.8143,0.6278,0.5130,-3.6960,-1.3928,-3.0392,0.2402,
0.977232,0.2868,0.2856,0.8143,1.4496,-1.5285,-0.7145,-1.3928,-3.0392,0.2402,
0.979016,0.2868,0.2856,0.8143,1.4496,-1.5285,-0.7145,-1.6160,-2.2264,0.3968,
0.996021,0.2868,0.2856,0.8143,1.4496,-1.5285,-0.7145,-1.2788,-1.3891,0.3542,
1.015634,0.1532,0.3723,1.0762,1.4496,-1.5285,-0.7145,-1.2788,-1.3891,0.3542,
1.017936,0.1532,0.3723,1.0762,-0.5449,-0.1473,1.7388,-1.2788,-1.3891,0.3542,
1.019757,0.1532,0.3723,1.0762,-0.5449,-0.1473,1.7388,-0.8826,-1.1297,0.4762,
1.036098,0.1532,0.3723,1.0762,-0.5449,-0.1473,1.7388,-0.5401,-1.0621,1.0045,
1.055952,0.2682,0.4371,0.9633,-0.5449,-0.1473,1.7388,-0.5401,-1.0621,1.0045,
1.058014,0.2682,0.4371,0.9633,0.1018,0.7966,0.6297,-0.5401,-1.0621,1.0045,
1.059604,0.2682,0.4371,0.9633,0.1018,0.7966,0.6297,-0.2093,-0.6205,1.1590,
1.074744,0.2682,0.4371,0.9633,0.1018,0.7966,0.6297,0.0165,0.3281,1.0578,
1.095073,0.1165,0.4019,0.9736,0.1018,0.7966,0.6297,0.0165,0.3281,1.0578,
1.096906,0.1165,0.4019,0.9736,-1.5635,0.5930,0.7285,0.0165,0.3281,1.0578,
1.098350,0.1165,0.4019,0.9736,-1.5635,0.5930,0.7285,0.2754,-0.2280,1.0898,
1.114677,0.1165,0.4019,0.9736,-1.5635,0.5930,0.7285,0.6583,-1.8456,0.8591,
1.135433,0.0667,0.6853,0.7268,-1.5635,0.5930,0.7285,0.6583,-1.8456,0.8591,
1.138209,0.0667,0.6853,0.7268,-2.4821,3.2581,-1.5018,0.6583,-1.8456,0.8591,
1.140061,0.0667,0.6853,0.7268,-2.4821,3.2581,-1.5018,0.2621,-2.5566,0.3771,
1.155616,0.0667,0.6853,0.7268,-2.4821,3.2581,-1.5018,-0.9417,-0.9752,0.0501,
1.175249,0.3313,0.5118,0.7683,-2.4821,3.2581,-1.5018,-0.9417,-0.9752,0.0501,
1.178572,0.3313,0.5118,0.7683,-0.4644,1.6328,-0.8937,-0.9417,-0.9752,0.0501,
1.180328,0.3313,0.5118,0.7683,-0.4644,1.6328,-0.8937,-1.8280,-0.4607,-0.1811,
1.195913,0.3313,0.5118,0.7683,-0.4644,1.6328,-0.8937,-1.8264,-0.7212,-0.3696,
1.214640,0.3462,0.5668,1.0039,-0.4644,1.6328,-0.8937,-1.8264,-0.7212,-0.3696,
1.216539,0.3462,0.5668,1.0039,-0.4766,2.7344,1.2794,-1.8264,-0.7212,-0.3696,
1.218214,0.3462,0.5668,1.0039,-0.4766,2.7344,1.2794,-1.3928,-0.6695,-0.7686,
1.235707,0.3462,0.5668,1.0039,-0.4766,2.7344,1.2794,-0.6280,-0.4447,-1.2155,
1.254928,0.3176,0.3560,0.9311,-0.4766,2.7344,1.2794,-0.6280,-0.4447,-1.2155,
1.257571,0.3176,0.3560,0.9311,-0.8234,0.8323,0.5438,-0.6280,-0.4447,-1.2155,
1.259325,0.3176,0.3560,0.9311,-0.8234,0.8323,0.5438,-0.3702,0.3201,-1.5084,
1.275107,0.3176,0.3560,0.9311,-0.8234,0.8323,0.5438,-0.2439,0.3808,-1.6101,
1.295695,0.2064,0.4437,0.9240,-0.8234,0.8323,0.5438,-0.2439,0.3808,-1.6101,
1.297633,0.2064,0.4437,0.9240,-1.6002,1.5335,0.3876,-0.2439,0.3808,-1.6101,
1.299248,0.2064,0.4437,0.9240,-1.6002,1.5335,0.3876,-0.0346,0.5033,-1.3971,
1.314744,0.2064,0.4437,0.9240,-1.6002,1.5335,0.3876,0.2471,0.7782,-1.0754,
1.335586,0.3064,0.3757,0.8226,-1.6002,1.5335,0.3876,0.2471,0.7782,-1.0754,
1.339229,0.3064,0.3757,0.8226,-0.2349,0.6211,-0.6748,0.2471,0.7782,-1.0754,
1.341110,0.3064,0.3757,0.8226,-0.2349,0.6211,-0.6748,0.3968,0.4980,-1.1430,
1.355063,0.3064,0.3757,0.8226,-0.2349,0.6211,-0.6748,0.4565,0.0676,-1.3295,
1.375092,0.2538,0.3728,0.8717,-0.2349,0.6211,-0.6748,0.4565,0.0676,-1.3295,
1.377594,0.2538,0.3728,0.8717,-0.4788,0.2687,-0.1703,0.4565,0.0676,-1.3295,
1.379474,0.2538,0.3728,0.8717,-0.4788,0.2687,-0.1703,0.5529,0.0708,-1.3428,
1.395148,0.2538,0.3728,0.8717,-0.4788,0.2687,-0.1703,0.6919,0.1726,-1.2410,
1.414860,0.2030,0.6047,0.9022,-0.4788,0.2687,-0.1703,0.6919,0.1726,-1.2410,
1.416805,0.2030,0.6047,0.9022,-0.7396,2.1562,0.2097,0.6919,0.1726,-1.2410,
1.418516,0.2030,0.6047,0.9022,-0.7396,2.1562,0.2097,0.8554,0.4991,-1.2591,
1.435594,0.2030,0.6047,0.9022,-0.7396,2.1562,0.2097,1.2229,-0.0117,-1.4498,
1.454915,0.2995,0.3811,1.1553,-0.7396,2.1562,0.2097,1.2229,-0.0117,-1.4498,
1.457622,0.2995,0.3811,1.1553,0.5068,-0.5287,2.8313,1.2229,-0.0117,-1.4498,
1.459477,0.2995,0.3811,1.1553,0.5068,-0.5287,2.8313,1.4392,-0.5225,-1.9233,
1.474943,0.2995,0.3811,1.1553,0.5068,-0.5287,2.8313,1.4152,0.4868,-1.8109,
1.494948,0.0039,0.4781,1.0542,0.5068,-0.5287,2.8313,1.4152,0.4868,-1.8109,
1.497207,0.0039,0.4781,1.0542,-2.0551,-0.2262,2.1052,1.4152,0.4868,-1.8109,
1.499211,0.0039,0.4781,1.0542,-2.0551,-0.2262,2.1052,1.6645,0.7270,-0.8922,
1.514295,0.0039,0.4781,1.0542,-2.0551,-0.2262,2.1052,2.2552,0.4730,-0.4671,
1.535504,0.2658,0.4121,0.7180,-2.0551,-0.2262,2.1052,2.2552,0.4730,-0.4671,
1.538231,0.2658,0.4121,0.7180,0.8386,-1.5108,-0.8533,2.2552,0.4730,-0.4671,
1.540092,0.2658,0.4121,0.7180,0.8386,-1.5108,-0.8533,2.7564,0.6061,-0.3973,
1.554501,0.2658,0.4121,0.7180,0.8386,-1.5108,-0.8533,2.8714,1.1643,-0.0517,
1.574322,0.2551,0.3677,0.7065,0.8386,-1.5108,-0.8533,2.8714,1.1643,-0.0517,
1.575392,0.2551,0.3677,0.7065,1.0394,-2.7888,-0.3684,2.8714,1.1643,-0.0517,
1.576111,0.2551,0.3677,0.7065,1.0394,-2.7888,-0.3684,3.0515,1.3263,0.2519,
1.594702,0.2551,0.3677,0.7065,1.0394,-2.7888,-0.3684,2.9439,1.2629,0.5316,
1.614998,0.4146,0.3804,0.3701,1.0394,-2.7888,-0.3684,2.9439,1.2629,0.5316,
1.616856,0.4146,0.3804,0.3701,2.8534,-3.4734,-2.9188,2.9439,1.2629,0.5316,
1.618607,0.4146,0.3804,0.3701,2.8534,-3.4734,-2.9188,2.2365,1.5111,0.2402,
1.634948,0.4146,0.3804,0.3701,2.8534,-3.4734,-2.9188,1.3864,1.0163,0.0352,
1.654379,0.4493,0.6149,0.1749,2.8534,-3.4734,-2.9188,1.3864,1.0163,0.0352,
1.656667,0.4493,0.6149,0.1749,3.4709,-1.6251,-4.3487,1.3864,1.0163,0.0352,
1.658369,0.4493,0.6149,0.1749,3.4709,-1.6251,-4.3487,0.5609,-0.1225,-0.1475,
1.674616,0.4493,0.6149,0.1749,3.4709,-1.6251,-4.3487,-0.1454,-1.0807,-0.5060,
1.695341,0.1258,0.9806,0.7075,3.4709,-1.6251,-4.3487,-0.1454,-1.0807,-0.5060,
1.697414,0.1258,0.9806,0.7075,0.2373,1.8987,0.9579,-0.1454,-1.0807,-0.5060,
1.698915,0.1258,0.9806,0.7075,0.2373,1.8987,0.9579,-0.4314,-2.0437,-0.7659,
1.714926,0.1258,0.9806,0.7075,0.2373,1.8987,0.9579,-1.3593,-2.1241,-1.5739,
1.734814,-0.1581,1.2465,0.6682,0.2373,1.8987,0.9579,-1.3593,-2.1241,-1.5739,
1.737917,-0.1581,1.2465,0.6682,-2.6900,4.6685,0.3906,-1.3593,-2.1241,-1.5739,
1.739711,-0.1581,1.2465,0.6682,-2.6900,4.6685,0.3906,-1.5201,-1.8179,-2.1103,
1.755479,-0.1581,1.2465,0.6682,-2.6900,4.6685,0.3906,-0.7888,-1.0621,-1.1579,
1.775148,-0.1373,0.8793,0.8692,-2.6900,4.6685,0.3906,-0.7888,-1.0621,-1.1579,
1.778648,-0.1373,0.8793,0.8692,-2.3637,1.2903,2.0799,-0.7888,-1.0621,-1.1579,
1.780308,-0.1373,0.8793,0.8692,-2.3637,1.2903,2.0799,-0.1161,-0.2679,-0.4645,
1.794892,-0.1373,0.8793,0.8692,-2.3637,1.2903,2.0799,0.1933,-0.1513,-0.0458,
1.815354,0.0359,0.7852,0.6188,-2.3637,1.2903,2.0799,0.1933,-0.1513,-0.0458,
1.818793,0.0359,0.7852,0.6188,-0.6417,0.3467,-0.3531,0.1933,-0.1513,-0.0458,
1.821562,0.0359,0.7852,0.6188,-0.6417,0.3467,-0.3531,0.4336,-0.0368,0.1012,
1.834123,0.0359,0.7852,0.6188,-0.6417,0.3467,-0.3531,0.5518,-0.0655,-0.3121,
1.855154,0.0967,0.7916,0.6306,-0.6417,0.3467,-0.3531,0.5518,-0.0655,-0.3121,
1.857293,0.0967,0.7916,0.6306,-0.0177,0.2761,-0.0872,0.5518,-0.0655,-0.3121,
1.859098,0.0967,0.7916,0.6306,-0.0177,0.2761,-0.0872,0.6067,-0.2684,-0.6669,
1.874257,0.0967,0.7916,0.6306,-0.0177,0.2761,-0.0872,0.5795,-0.3494,-0.7681,
1.894458,0.0914,0.8644,0.6736,-0.0177,0.2761,-0.0872,0.5795,-0.3494,-0.7681,
1.897236,0.0914,0.8644,0.6736,0.0721,0.8174,0.5247,0.5795,-0.3494,-0.7681,
1.898888,0.0914,0.8644,0.6736,0.0721,0.8174,0.5247,0.4362,-0.5353,-0.9193,
1.914295,0.0914,0.8644,0.6736,0.0721,0.8174,0.5247,0.5273,-0.3366,-1.0408,
1.934082,0.1146,0.7354,0.4955,0.0721,0.8174,0.5247,0.5273,-0.3366,-1.0408,
1.935747,0.1146,0.7354,0.4955,0.4909,-0.5923,-1.0563,0.5273,-0.3366,-1.0408,
1.937734,0.1146,0.7354,0.4955,0.4909,-0.5923,-1.0563,0.5321,-0.0666,-1.0871,
1.954510,0.1146,0.7354,0.4955,0.4909,-0.5923,-1.0563,0.3606,-0.3361,-0.8394,
1.973943,0.1466,0.6254,0.4649,0.4909,-0.5923,-1.0563,0.3606,-0.3361,-0.8394,
1.976053,0.1466,0.6254,0.4649,1.0579,-1.7926,-1.2121,0.3606,-0.3361,-0.8394,
1.977978,0.1466,0.6254,0.4649,1.0579,-1.7926,-1.2121,0.2498,-0.2855,-0.6695,
1.994445,0.1466,0.6254,0.4649,1.0579,-1.7926,-1.2121,0.2402,-0.0916,-0.4336,
2.014541,0.0572,0.6543,0.6332,1.0579,-1.7926,-1.2121,0.2402,-0.0916,-0.4336,
2.016734,0.0572,0.6543,0.6332,0.3116,-1.5719,0.5162,0.2402,-0.0916,-0.4336,
2.018351,0.0572,0.6543,0.6332,0.3116,-1.5719,0.5162,0.3963,-0.0597,-0.1928,
2.034442,0.0572,0.6543,0.6332,0.3116,-1.5719,0.5162,0.6930,0.1843,-0.1055,
2.054286,0.1014,0.7510,0.5880,0.3116,-1.5719,0.5162,0.6930,0.1843,-0.1055,
2.056096,0.1014,0.7510,0.5880,0.7971,-0.7415,0.2401,0.6930,0.1843,-0.1055,
2.057807,0.1014,0.7510,0.5880,0.7971,-0.7415,0.2401,0.9550,0.4517,-0.0154,
2.074837,0.1014,0.7510,0.5880,0.7971,-0.7415,0.2401,0.9800,0.3649,0.0005,
2.094619,0.1471,0.8944,0.3232,0.7971,-0.7415,0.2401,0.9800,0.3649,0.0005,
2.098362,0.1471,0.8944,0.3232,1.3214,0.4551,-2.0381,0.9800,0.3649,0.0005,
2.100593,0.1471,0.8944,0.3232,1.3214,0.4551,-2.0381,0.0405,-0.4772,-0.3121,
2.113778,0.1471,0.8944,0.3232,1.3214,0.4551,-2.0381,-0.0181,0.5545,-0.5742,
2.134230,0.0938,0.9569,0.3110,1.3214,0.4551,-2.0381,-0.0181,0.5545,-0.5742,
2.136088,0.0938,0.9569,0.3110,0.9281,1.0495,-2.1296,-0.0181,0.5545,-0.5742,
2.137910,0.0938,0.9569,0.3110,0.9281,1.0495,-2.1296,-0.5875,0.4021,-0.7862,
2.154420,0.0938,0.9569,0.3110,0.9281,1.0495,-2.1296,-0.8767,0.4059,-0.8671,
2.174335,-0.2893,0.7947,0.9064,0.9281,1.0495,-2.1296,-0.8767,0.4059,-0.8671,
2.177416,-0.2893,0.7947,0.9064,-2.4626,-0.3721,3.4567,-0.8767,0.4059,-0.8671,
2.179133,-0.2893,0.7947,0.9064,-2.4626,-0.3721,3.4567,-0.6456,-0.0490,-0.7398,
2.194590,-0.2893,0.7947,0.9064,-2.4626,-0.3721,3.4567,-0.2317,0.0373,-0.4501,
2.214457,-0.2223,0.8739,0.7038,-2.4626,-0.3721,3.4567,-0.2317,0.0373,-0.4501,
2.216451,-0.2223,0.8739,0.7038,-1.6106,0.5134,1.3269,-0.2317,0.0373,-0.4501,
2.218138,-0.2223,0.8739,0.7038,-1.6106,0.5134,1.3269,0.1150,0.0107,-0.1289,
2.234163,-0.2223,0.8739,0.7038,-1.6106,0.5134,1.3269,0.2684,0.0399,0.1262,
2.254181,-0.1202,0.9008,0.3762,-1.6106,0.5134,1.3269,0.2684,0.0399,0.1262,
2.257302,-0.1202,0.9008,0.3762,-0.5863,0.7281,-1.8103,0.2684,0.0399,0.1262,
2.259456,-0.1202,0.9008,0.3762,-0.5863,0.7281,-1.8103,0.1539,0.2035,0.3329,
2.273844,-0.1202,0.9008,0.3762,-0.5863,0.7281,-1.8103,-0.0858,0.2573,0.3025,
2.294234,0.0977,0.8546,0.2968,-0.5863,0.7281,-1.8103,-0.0858,0.2573,0.3025,
2.296120,0.0977,0.8546,0.2968,1.4906,0.2416,-2.5441,-0.0858,0.2573,0.3025,
2.297813,0.0977,0.8546,0.2968,1.4906,0.2416,-2.5441,-0.3973,0.4623,0.1816,
2.314042,0.0977,0.8546,0.2968,1.4906,0.2416,-2.5441,-0.7521,0.6242,-0.0607,
2.334801,-0.0997,0.9367,0.6481,1.4906,0.2416,-2.5441,-0.7521,0.6242,-0.0607,
2.336948,-0.0997,0.9367,0.6481,-0.3450,1.1608,0.7417,-0.7521,0.6242,-0.0607,
2.338643,-0.0997,0.9367,0.6481,-0.3450,1.1608,0.7417,-0.8378,0.4831,-0.2498,
2.353958,-0.0997,0.9367,0.6481,-0.3450,1.1608,0.7417,-0.7425,0.5396,-0.5140,
2.373575,0.1305,0.8736,0.5976,-0.3450,1.1608,0.7417,-0.7425,0.5396,-0.5140,
2.375645,0.1305,0.8736,0.5976,2.1250,0.7236,0.0237,-0.7425,0.5396,-0.5140,
2.377132,0.1305,0.8736,0.5976,2.1250,0.7236,0.0237,-0.8005,0.6823,-1.2698,
2.393738,0.1305,0.8736,0.5976,2.1250,0.7236,0.0237,-0.9252,0.3249,-1.8509,
2.413470,-0.2253,0.6555,0.8453,2.1250,0.7236,0.0237,-0.9252,0.3249,-1.8509,
2.415680,-0.2253,0.6555,0.8453,-0.7768,-1.1335,2.2001,-0.9252,0.3249,-1.8509,
2.418549,-0.2253,0.6555,0.8453,-0.7768,-1.1335,2.2001,-0.8389,0.0495,-2.0911,
2.433613,-0.2253,0.6555,0.8453,-0.7768,-1.1335,2.2001,-0.5902,0.0272,-1.9137,
2.453016,-0.4749,0.5316,0.7280,-0.7768,-1.1335,2.2001,-0.5902,0.0272,-1.9137,
2.454830,-0.4749,0.5316,0.7280,-2.6062,-2.0090,0.8209,-0.5902,0.0272,-1.9137,
2.456692,-0.4749,0.5316,0.7280,-2.6062,-2.0090,0.8209,-0.3089,-0.2306,-1.1095,
2.473199,-0.4749,0.5316,0.7280,-2.6062,-2.0090,0.8209,-0.0053,-0.5358,-0.6924,
2.493456,-0.0799,0.5516,0.6665,-2.6062,-2.0090,0.8209,-0.0053,-0.5358,-0.6924,
2.495238,-0.0799,0.5516,0.6665,1.4193,-1.6855,0.1259,-0.0053,-0.5358,-0.6924,
2.496937,-0.0799,0.5516,0.6665,1.4193,-1.6855,0.1259,0.2871,-0.3894,-0.8165,
2.513385,-0.0799,0.5516,0.6665,1.4193,-1.6855,0.1259,0.3920,-0.1087,-0.8480,
2.533249,-0.2191,0.6222,0.6252,1.4193,-1.6855,0.1259,0.3920,-0.1087,-0.8480,
2.535505,-0.2191,0.6222,0.6252,0.2236,-0.9988,-0.2123,0.3920,-0.1087,-0.8480,
2.537454,-0.2191,0.6222,0.6252,0.2236,-0.9988,-0.2123,0.5550,0.1593,-0.5673,
2.553321,-0.2191,0.6222,0.6252,0.2236,-0.9988,-0.2123,0.8203,0.5262,-0.3419,
2.573677,-0.2020,0.6579,0.7647,0.2236,-0.9988,-0.2123,0.8203,0.5262,-0.3419,
2.576117,-0.2020,0.6579,0.7647,0.5901,-0.7554,1.3553,0.8203,0.5262,-0.3419,
2.577848,-0.2020,0.6579,0.7647,0.5901,-0.7554,1.3553,1.1643,0.8522,-0.1326,
2.593526,-0.2020,0.6579,0.7647,0.5901,-0.7554,1.3553,1.7705,0.7878,0.0059,
2.613455,-0.1520,0.5148,0.7275,0.5901,-0.7554,1.3553,1.7705,0.7878,0.0059,
2.615259,-0.1520,0.5148,0.7275,1.2800,-2.4776,1.4803,1.7705,0.7878,0.0059,
2.616957,-0.1520,0.5148,0.7275,1.2800,-2.4776,1.4803,2.3601,1.0504,0.1369,
2.633357,-0.1520,0.5148,0.7275,1.2800,-2.4776,1.4803,2.8176,1.3273,0.2706,
2.654336,-0.1131,0.6853,0.5595,1.2800,-2.4776,1.4803,2.8176,1.3273,0.2706,
2.656979,-0.1131,0.6853,0.5595,1.8370,-1.3613,0.7651,2.8176,1.3273,0.2706,
2.658804,-0.1131,0.6853,0.5595,1.8370,-1.3613,0.7651,3.3689,1.1276,0.4181,
2.673683,-0.1131,0.6853,0.5595,1.8370,-1.3613,0.7651,3.4967,0.9380,0.3989,
2.693436,-0.0166,1.0715,-0.0691,1.8370,-1.3613,0.7651,3.4967,0.9380,0.3989,
2.695617,-0.0166,1.0715,-0.0691,2.8158,1.8156,-4.1219,3.4967,0.9380,0.3989,
2.697383,-0.0166,1.0715,-0.0691,2.8158,1.8156,-4.1219,3.7545,1.6762,-0.1198,
2.713556,-0.0166,1.0715,-0.0691,2.8158,1.8156,-4.1219,3.3433,1.2416,-0.6935,
2.733148,-0.5350,1.0471,-0.2187,2.8158,1.8156,-4.1219,3.3433,1.2416,-0.6935,
2.735145,-0.5350,1.0471,-0.2187,-1.9687,1.2324,-4.1230,3.3433,1.2416,-0.6935,
2.737030,-0.5350,1.0471,-0.2187,-1.9687,1.2324,-4.1230,2.7260,0.5518,-0.6008,
2.754325,-0.5350,1.0471,-0.2187,-1.9687,1.2324,-4.1230,2.1758,0.8826,-0.3196,
2.773474,-0.4539,0.8597,-0.4229,-1.9687,1.2324,-4.1230,2.1758,0.8826,-0.3196,
2.775281,-0.4539,0.8597,-0.4229,-0.9608,-0.6927,-5.0774,2.1758,0.8826,-0.3196,
2.777294,-0.4539,0.8597,-0.4229,-0.9608,-0.6927,-5.0774,1.4892,1.1654,-0.2929,
2.793501,-0.4539,0.8597,-0.4229,-0.9608,-0.6927,-5.0774,1.0802,1.0434,-0.1182,
2.812690,-0.4095,0.6811,-0.0608,-0.9608,-0.6927,-5.0774,1.0802,1.0434,-0.1182,
2.814984,-0.4095,0.6811,-0.0608,-0.4233,-2.4459,-0.9048,1.0802,1.0434,-0.1182,
2.817430,-0.4095,0.6811,-0.0608,-0.4233,-2.4459,-0.9048,1.7007,0.3388,-0.0655,
2.832967,-0.4095,0.6811,-0.0608,-0.4233,-2.4459,-0.9048,1.6128,0.1454,-0.0447,
2.853709,-0.4395,0.9872,-0.1705,-0.4233,-2.4459,-0.9048,1.6128,0.1454,-0.0447,
2.856297,-0.4395,0.9872,-0.1705,-0.6826,0.5698,-1.3120,1.6128,0.1454,-0.0447,
2.858061,-0.4395,0.9872,-0.1705,-0.6826,0.5698,-1.3120,0.7148,-0.5715,0.1044,
2.873200,-0.4395,0.9872,-0.1705,-0.6826,0.5698,-1.3120,-0.0336,-1.8807,-0.0368,
2.893300,-0.1112,0.8797,0.1307,-0.6826,0.5698,-1.3120,-0.0336,-1.8807,-0.0368,
2.895353,-0.1112,0.8797,0.1307,2.5355,-0.4855,1.5857,-0.0336,-1.8807,-0.0368,
2.897139,-0.1112,0.8797,0.1307,2.5355,-0.4855,1.5857,-0.2716,-2.2898,-0.3068,
2.913056,-0.1112,0.8797,0.1307,2.5355,-0.4855,1.5857,0.1060,-1.5228,-0.1135,
2.932560,0.3672,0.6750,-0.1222,2.5355,-0.4855,1.5857,0.1060,-1.5228,-0.1135,
2.934519,0.3672,0.6750,-0.1222,7.3100,-2.4620,-1.2023,0.1060,-1.5228,-0.1135,
2.936494,0.3672,0.6750,-0.1222,7.3100,-2.4620,-1.2023,0.6045,-0.6791,0.2274,
2.952923,0.3672,0.6750,-0.1222,7.3100,-2.4620,-1.2023,0.8607,0.5183,-0.8538,
2.973232,-1.0850,0.7012,-0.1363,7.3100,-2.4620,-1.2023,0.8607,0.5183,-0.8538,
2.975237,-1.0850,0.7012,-0.1363,-6.8093,-2.1558,-1.0871,0.8607,0.5183,-0.8538,
2.977170,-1.0850,0.7012,-0.1363,-6.8093,-2.1558,-1.0871,1.4887,0.8389,0.1081,
2.993280,-1.0850,0.7012,-0.1363,-6.8093,-2.1558,-1.0871,1.4328,2.3990,1.6837,
3.013804,-0.3799,0.3552,-0.1766,-6.8093,-2.1558,-1.0871,1.4328,2.3990,1.6837,
3.017289,-0.3799,0.3552,-0.1766,-0.2692,-5.6409,-0.7167,1.4328,2.3990,1.6837,
3.019950,-0.3799,0.3552,-0.1766,-0.2692,-5.6409,-0.7167,1.0466,1.7976,2.6898,
3.032677,-0.3799,0.3552,-0.1766,-0.2692,-5.6409,-0.7167,0.5177,0.1353,2.9407,
3.053149,0.2646,1.2516,-0.3139,-0.2692,-5.6409,-0.7167,0.5177,0.1353,2.9407,
3.055819,0.2646,1.2516,-0.3139,4.9573,2.8556,-1.6506,0.5177,0.1353,2.9407,
3.057952,0.2646,1.2516,-0.3139,4.9573,2.8556,-1.6506,0.1001,-0.5587,2.4538,
3.073222,0.2646,1.2516,-0.3139,4.9573,2.8556,-1.6506,-0.0682,-0.1923,1.3231,
3.092993,0.3391,2.3905,-0.4033,4.9573,2.8556,-1.6506,-0.0682,-0.1923,1.3231,
3.094862,0.3391,2.3905,-0.4033,4.9930,13.8659,-2.5517,-0.0682,-0.1923,1.3231,
3.096749,0.3391,2.3905,-0.4033,4.9930,13.8659,-2.5517,0.0501,0.1641,-0.0458,
3.113029,0.3391,2.3905,-0.4033,4.9930,13.8659,-2.5517,0.0181,0.7468,-0.9705,
3.132826,-0.2944,0.5235,-0.0772,4.9930,13.8659,-2.5517,0.0181,0.7468,-0.9705,
3.135780,-0.2944,0.5235,-0.0772,-1.0476,-4.3931,0.6892,0.0181,0.7468,-0.9705,
3.137910,-0.2944,0.5235,-0.0772,-1.0476,-4.3931,0.6892,0.0831,0.2333,-0.8394,
3.154224,-0.2944,0.5235,-0.0772,-1.0476,-4.3931,0.6892,0.1550,-0.2434,-0.2940,
3.172644,-0.1722,0.9308,-0.2702,-1.0476,-4.3931,0.6892,0.1550,-0.2434,-0.2940,
3.175909,-0.1722,0.9308,-0.2702,0.3492,-0.3526,-1.1463,0.1550,-0.2434,-0.2940,
3.177894,-0.1722,0.9308,-0.2702,0.3492,-0.3526,-1.1463,-0.2360,0.0064,0.0650,
3.192569,-0.1722,0.9308,-0.2702,0.3492,-0.3526,-1.1463,-0.3004,0.1358,-0.0410,
3.212731,-0.1546,0.9313,-0.0972,0.3492,-0.3526,-1.1463,-0.3004,0.1358,-0.0410,
3.215703,-0.1546,0.9313,-0.0972,0.4873,-0.3682,0.4633,-0.3004,0.1358,-0.0410,
3.217704,-0.1546,0.9313,-0.0972,0.4873,-0.3682,0.4633,-0.1081,0.1166,-0.0458,
3.233508,-0.1546,0.9313,-0.0972,0.4873,-0.3682,0.4633,0.0160,0.0831,-0.0485,
3.252473,-0.2018,0.9118,-0.1314,0.4873,-0.3682,0.4633,0.0160,0.0831,-0.0485,
3.254564,-0.2018,0.9118,-0.1314,0.0260,-0.5603,0.1233,0.0160,0.0831,-0.0485,
3.256146,-0.2018,0.9118,-0.1314,0.0260,-0.5603,0.1233,0.0794,0.0650,0.0117,
3.272766,-0.2018,0.9118,-0.1314,0.0260,-0.5603,0.1233,0.2168,-0.1124,0.0921,
3.292965,-0.2365,0.9518,-0.1974,0.0260,-0.5603,0.1233,0.2168,-0.1124,0.0921,
3.295372,-0.2365,0.9518,-0.1974,-0.3334,-0.1625,-0.4621,0.2168,-0.1124,0.0921,
3.297415,-0.2365,0.9518,-0.1974,-0.3334,-0.1625,-0.4621,0.2631,-0.2429,0.2274,
3.312863,-0.2365,0.9518,-0.1974,-0.3334,-0.1625,-0.4621,0.1976,-0.2908,0.5103,
3.331970,-0.1261,0.8898,-0.2785,-0.3334,-0.1625,-0.4621,0.1976,-0.2908,0.5103,
3.334335,-0.1261,0.8898,-0.2785,0.6206,-0.7830,-1.1725,0.1976,-0.2908,0.5103,
3.336276,-0.1261,0.8898,-0.2785,0.6206,-0.7830,-1.1725,0.3547,-0.5832,0.8373,
3.352555,-0.1261,0.8898,-0.2785,0.6206,-0.7830,-1.1725,0.1795,-0.3995,0.6232,
3.372434,-0.0506,1.2491,-0.2919,0.6206,-0.7830,-1.1725,0.1795,-0.3995,0.6232,
3.375007,-0.0506,1.2491,-0.2919,1.1137,2.7053,-1.2364,0.1795,-0.3995,0.6232,
3.376590,-0.0506,1.2491,-0.2919,1.1137,2.7053,-1.2364,0.1443,-0.4597,0.5827,
3.392524,-0.0506,1.2491,-0.2919,1.1137,2.7053,-1.2364,-0.0852,-0.0458,0.6802,
3.413015,-0.1395,0.9648,-0.3870,1.1137,2.7053,-1.2364,-0.0852,-0.0458,0.6802,
3.415215,-0.1395,0.9648,-0.3870,0.0153,-0.1157,-2.1596,-0.0852,-0.0458,0.6802,
3.416407,-0.1395,0.9648,-0.3870,0.0153,-0.1157,-2.1596,-0.5374,0.3989,0.8980,
3.432467,-0.1395,0.9648,-0.3870,0.0153,-0.1157,-2.1596,-0.9651,0.7292,1.0184,
3.452391,-0.0445,0.9088,-0.1104,0.0153,-0.1157,-2.1596,-0.9651,0.7292,1.0184,
3.454450,-0.0445,0.9088,-0.1104,0.5413,-0.7501,0.3202,-0.9651,0.7292,1.0184,
3.455972,-0.0445,0.9088,-0.1104,0.5413,-0.7501,0.3202,-0.9124,0.7478,0.8037,
3.471872,-0.0445,0.9088,-0.1104,0.5413,-0.7501,0.3202,-0.6189,0.2541,0.6418,
3.491956,-0.3811,1.0021,-0.0472,0.5413,-0.7501,0.3202,-0.6189,0.2541,0.6418,
3.494597,-0.3811,1.0021,-0.0472,-3.0174,0.1065,0.6713,-0.6189,0.2541,0.6418,
3.496100,-0.3811,1.0021,-0.0472,-3.0174,0.1065,0.6713,-0.4938,-0.0522,0.9625,
3.514224,-0.3811,1.0021,-0.0472,-3.0174,0.1065,0.6713,-0.3531,0.0900,1.4701,
3.532405,0.0051,1.1460,0.0161,-3.0174,0.1065,0.6713,-0.3531,0.0900,1.4701,
3.534631,0.0051,1.1460,0.0161,0.3068,1.4755,1.1231,-0.3531,0.0900,1.4701,
3.536271,0.0051,1.1460,0.0161,0.3068,1.4755,1.1231,-0.1928,0.0176,1.6325,
3.552683,0.0051,1.1460,0.0161,0.3068,1.4755,1.1231,0.4911,-1.1297,1.2916,
3.572564,0.3784,1.2181,0.1573,0.3068,1.4755,1.1231,0.4911,-1.1297,1.2916,
3.575422,0.3784,1.2181,0.1573,3.4169,2.1891,2.5690,0.4911,-1.1297,1.2916,
3.576889,0.3784,1.2181,0.1573,3.4169,2.1891,2.5690,1.1366,-1.2911,0.8735,
3.592048,0.3784,1.2181,0.1573,3.4169,2.1891,2.5690,1.2144,-0.3036,0.4740,
3.611511,0.5204,1.0762,-0.1004,3.4169,2.1891,2.5690,1.2144,-0.3036,0.4740,
3.613415,0.5204,1.0762,-0.1004,4.5841,0.8682,0.5115,1.2144,-0.3036,0.4740,
3.614898,0.5204,1.0762,-0.1004,4.5841,0.8682,0.5115,0.9934,0.6035,-0.0858,
3.631369,0.5204,1.0762,-0.1004,4.5841,0.8682,0.5115,0.5044,1.3396,-0.2807,
3.651898,0.0765,0.8739,-0.2915,4.5841,0.8682,0.5115,0.5044,1.3396,-0.2807,
3.655191,0.0765,0.8739,-0.2915,0.2036,-1.0691,-1.1027,0.5044,1.3396,-0.2807,
3.657275,0.0765,0.8739,-0.2915,0.2036,-1.0691,-1.1027,0.1135,1.4871,-0.2594,
3.672040,0.0765,0.8739,-0.2915,0.2036,-1.0691,-1.1027,0.0421,1.2426,-0.1992,
3.692082,-0.0225,1.0576,-0.3025,0.2036,-1.0691,-1.1027,0.0421,1.2426,-0.1992,
3.694439,-0.0225,1.0576,-0.3025,-0.7805,0.7329,-1.2064,0.0421,1.2426,-0.1992,
3.696141,-0.0225,1.0576,-0.3025,-0.7805,0.7329,-1.2064,-0.0256,0.7329,-0.1443,
3.714169,-0.0225,1.0576,-0.3025,-0.7805,0.7329,-1.2064,-0.2205,0.2216,-0.0634,
3.731872,0.0313,1.0241,-0.3083,-0.7805,0.7329,-1.2064,-0.2205,0.2216,-0.0634,
3.734069,0.0313,1.0241,-0.3083,-0.2486,0.3961,-1.3112,-0.2205,0.2216,-0.0634,
3.735829,0.0313,1.0241,-0.3083,-0.2486,0.3961,-1.3112,-0.5657,-0.0245,-0.0293,
3.752756,0.0313,1.0241,-0.3083,-0.2486,0.3961,-1.3112,-0.8661,0.1465,0.0149,
3.772366,0.0679,0.9205,-0.1981,-0.2486,0.3961,-1.3112,-0.8661,0.1465,0.0149,
3.775230,0.0679,0.9205,-0.1981,0.1054,-0.6595,-0.4799,-0.8661,0.1465,0.0149,
3.776962,0.0679,0.9205,-0.1981,0.1054,-0.6595,-0.4799,-1.0823,0.1875,0.0682,
3.791790,0.0679,0.9205,-0.1981,0.1054,-0.6595,-0.4799,-1.1638,-0.0383,0.0991,
3.811926,0.1336,0.8096,-0.0699,0.1054,-0.6595,-0.4799,-1.1638,-0.0383,0.0991,
3.815009,0.1336,0.8096,-0.0699,0.7083,-1.7993,0.3469,-1.1638,-0.0383,0.0991,
3.816971,0.1336,0.8096,-0.0699,0.7083,-1.7993,0.3469,-1.0519,-0.2653,0.1257,
3.831667,0.1336,0.8096,-0.0699,0.7083,-1.7993,0.3469,-0.8751,-0.4772,0.0644,
3.852747,0.1791,0.7187,-0.0024,0.7083,-1.7993,0.3469,-0.8751,-0.4772,0.0644,
3.855009,0.1791,0.7187,-0.0024,1.1286,-2.7202,0.6416,-0.8751,-0.4772,0.0644,
3.856751,0.1791,0.7187,-0.0024,1.1286,-2.7202,0.6416,-0.6940,-0.4527,-0.0229,
3.872080,0.1791,0.7187,-0.0024,1.1286,-2.7202,0.6416,-0.4772,-0.2908,-0.0975,
3.892036,0.0515,0.7449,0.0154,1.1286,-2.7202,0.6416,-0.4772,-0.2908,-0.0975,
3.894645,0.0515,0.7449,0.0154,-0.0894,-2.4785,0.5968,-0.4772,-0.2908,-0.0975,
3.896830,0.0515,0.7449,0.0154,-0.0894,-2.4785,0.5968,-0.1656,-0.1736,-0.1838,
3.913586,0.0515,0.7449,0.0154,-0.0894,-2.4785,0.5968,0.0980,-0.0389,-0.1561,
3.931961,-0.0322,0.9748,-0.1864,-0.0894,-2.4785,0.5968,0.0980,-0.0389,-0.1561,
3.934207,-0.0322,0.9748,-0.1864,-0.8423,-0.2300,-1.3916,0.0980,-0.0389,-0.1561,
3.936104,-0.0322,0.9748,-0.1864,-0.8423,-0.2300,-1.3916,0.2061,0.1300,-0.1326,
3.952541,-0.0322,0.9748,-0.1864,-0.8423,-0.2300,-1.3916,0.1502,0.1965,-0.0506,
3.970937,-0.0716,0.9960,-0.2885,-0.8423,-0.2300,-1.3916,0.1502,0.1965,-0.0506,
3.972004,-0.0716,0.9960,-0.2885,-1.1857,-0.0194,-2.3021,0.1502,0.1965,-0.0506,
3.973027,-0.0716,0.9960,-0.2885,-1.1857,-0.0194,-2.3021,-0.0623,0.1907,0.1747,
3.991966,-0.0716,0.9960,-0.2885,-1.1857,-0.0194,-2.3021,-0.3393,0.1236,0.4218,
4.013041,0.0755,0.9931,-0.2702,-1.1857,-0.0194,-2.3021,-0.3393,0.1236,0.4218,
4.016932,0.0755,0.9931,-0.2702,0.1457,-0.0434,-2.1478,-0.3393,0.1236,0.4218,
4.018965,0.0755,0.9931,-0.2702,0.1457,-0.0434,-2.1478,-0.6482,0.2269,0.5198,
4.032594,0.0755,0.9931,-0.2702,0.1457,-0.0434,-2.1478,-0.7824,0.2796,0.5598,
4.051843,0.1200,0.8541,-0.1512,0.1457,-0.0434,-2.1478,-0.7824,0.2796,0.5598,
4.054123,0.1200,0.8541,-0.1512,0.3682,-1.4003,-1.2447,-0.7824,0.2796,0.5598,
4.055901,0.1200,0.8541,-0.1512,0.3682,-1.4003,-1.2447,-0.8027,0.3521,0.5806,
4.071984,0.1200,0.8541,-0.1512,0.3682,-1.4003,-1.2447,-0.7462,0.3707,0.5630,
4.091553,0.1461,0.8614,-0.0650,0.3682,-1.4003,-1.2447,-0.7462,0.3707,0.5630,
4.094651,0.1461,0.8614,-0.0650,0.4001,-1.3100,-0.7115,-0.7462,0.3707,0.5630,
4.096869,0.1461,0.8614,-0.0650,0.4001,-1.3100,-0.7115,-0.6131,0.3590,0.5401,
4.111628,0.1461,0.8614,-0.0650,0.4001,-1.3100,-0.7115,-0.5236,0.3366,0.4980,
4.131550,0.1581,0.9354,-0.0271,0.4001,-1.3100,-0.7115,-0.5236,0.3366,0.4980,
4.133881,0.1581,0.9354,-0.0271,0.3172,-0.5569,-0.5662,-0.5236,0.3366,0.4980,
4.135569,0.1581,0.9354,-0.0271,0.3172,-0.5569,-0.5662,-0.4666,0.2578,0.4511,
4.151609,0.1581,0.9354,-0.0271,0.3172,-0.5569,-0.5662,-0.3718,0.2040,0.3760,
4.171298,0.1761,0.9494,0.0213,0.3172,-0.5569,-0.5662,-0.3718,0.2040,0.3760,
4.174817,0.1761,0.9494,0.0213,0.3351,-0.3927,-0.2528,-0.3718,0.2040,0.3760,
4.176511,0.1761,0.9494,0.0213,0.3351,-0.3927,-0.2528,-0.1747,0.1598,0.2732,
4.191111,0.1761,0.9494,0.0213,0.3351,-0.3927,-0.2528,0.0463,0.0676,0.1651,
4.211591,0.1610,0.9853,-0.0100,0.3351,-0.3927,-0.2528,0.0463,0.0676,0.1651,
4.213846,0.1610,0.9853,-0.0100,0.1018,-0.0276,-0.5707,0.0463,0.0676,0.1651,
4.215663,0.1610,0.9853,-0.0100,0.1018,-0.0276,-0.5707,0.2274,-0.0975,0.0996,
4.232478,0.1610,0.9853,-0.0100,0.1018,-0.0276,-0.5707,0.3057,-0.3164,0.1294,
4.252127,0.1996,1.0793,-0.0728,0.1018,-0.0276,-0.5707,0.3057,-0.3164,0.1294,
4.254658,0.1996,1.0793,-0.0728,0.4280,0.8964,-1.0451,0.3057,-0.3164,0.1294,
4.256342,0.1996,1.0793,-0.0728,0.4280,0.8964,-1.0451,0.2562,-0.4629,0.1374,
4.271104,0.1996,1.0793,-0.0728,0.4280,0.8964,-1.0451,0.1752,-0.4730,0.1577,
4.291566,0.2458,1.1118,-0.0535,0.4280,0.8964,-1.0451,0.1752,-0.4730,0.1577,
4.293869,0.2458,1.1118,-0.0535,0.8152,1.2220,-0.7358,0.1752,-0.4730,0.1577,
4.295510,0.2458,1.1118,-0.0535,0.8152,1.2220,-0.7358,0.1507,-0.4341,0.1411,
4.312152,0.2458,1.1118,-0.0535,0.8152,1.2220,-0.7358,0.2338,-0.4538,0.1065,
4.330895,0.2375,1.0495,-0.0371,0.8152,1.2220,-0.7358,0.2338,-0.4538,0.1065,
4.333015,0.2375,1.0495,-0.0371,0.4963,0.6527,-0.2000,0.2338,-0.4538,0.1065,
4.334743,0.2375,1.0495,-0.0371,0.4963,0.6527,-0.2000,0.3031,-0.5087,0.0293,
4.350970,0.2375,1.0495,-0.0371,0.4963,0.6527,-0.2000,0.2887,-0.4831,-0.0671,
4.370865,0.1947,1.0498,-0.0325,0.4963,0.6527,-0.2000,0.2887,-0.4831,-0.0671,
4.373309,0.1947,1.0498,-0.0325,0.0743,0.6596,0.0035,0.2887,-0.4831,-0.0671,
4.374664,0.1947,1.0498,-0.0325,0.0743,0.6596,0.0035,0.2317,-0.5220,-0.1305,
4.390996,0.1947,1.0498,-0.0325,0.0743,0.6596,0.0035,0.1571,-0.4623,-0.1220,
4.411398,0.1786,1.0564,-0.0090,0.0743,0.6596,0.0035,0.1571,-0.4623,-0.1220,
4.414370,0.1786,1.0564,-0.0090,-0.0319,0.7162,0.2808,0.1571,-0.4623,-0.1220,
4.416156,0.1786,1.0564,-0.0090,-0.0319,0.7162,0.2808,0.0863,-0.2546,-0.0740,
4.431032,0.1786,1.0564,-0.0090,-0.0319,0.7162,0.2808,0.0538,-0.0149,-0.0160,
4.451460,0.0806,1.1563,0.0511,-0.0319,0.7162,0.2808,0.0538,-0.0149,-0.0160,
4.453698,0.0806,1.1563,0.0511,-0.9725,1.6934,0.9062,0.0538,-0.0149,-0.0160,
4.455399,0.0806,1.1563,0.0511,-0.9725,1.6934,0.9062,0.2434,0.1965,0.2013,
4.470820,0.0806,1.1563,0.0511,-0.9725,1.6934,0.9062,0.4985,0.5108,0.4778,
4.491066,0.1275,1.2237,0.0088,-0.9725,1.6934,0.9062,0.4985,0.5108,0.4778,
4.494150,0.1275,1.2237,0.0088,-0.6500,2.3859,0.6088,0.4985,0.5108,0.4778,
4.496013,0.1275,1.2237,0.0088,-0.6500,2.3859,0.6088,0.6301,0.8591,0.6221,
4.512833,0.1275,1.2237,0.0088,-0.6500,2.3859,0.6088,0.3361,0.5694,0.8250,
4.531562,0.3323,0.7727,0.0689,-0.6500,2.3859,0.6088,0.3361,0.5694,0.8250,
4.533729,0.3323,0.7727,0.0689,1.0642,-1.9658,1.2910,0.3361,0.5694,0.8250,
4.535422,0.3323,0.7727,0.0689,1.0642,-1.9658,1.2910,0.0421,-0.0064,0.8181,
4.551704,0.3323,0.7727,0.0689,1.0642,-1.9658,1.2910,0.2482,0.1699,0.5896,
4.570731,0.1244,0.9770,0.0144,1.0642,-1.9658,1.2910,0.2482,0.1699,0.5896,
4.574164,0.1244,0.9770,0.0144,-1.2154,0.0953,0.7680,0.2482,0.1699,0.5896,
4.575835,0.1244,0.9770,0.0144,-1.2154,0.0953,0.7680,0.5662,0.3127,0.4043,
4.590374,0.1244,0.9770,0.0144,-1.2154,0.0953,0.7680,0.7073,0.2903,0.3414,
4.610902,0.0589,1.0454,-0.1036,-1.2154,0.0953,0.7680,0.7073,0.2903,0.3414,
4.613545,0.0589,1.0454,-0.1036,-1.9630,0.8083,-0.1960,0.7073,0.2903,0.3414,
4.615181,0.0589,1.0454,-0.1036,-1.9630,0.8083,-0.1960,0.7382,0.3840,0.5065,
4.631256,0.0589,1.0454,-0.1036,-1.9630,0.8083,-0.1960,0.7212,0.4362,0.6269,
4.650936,0.1996,1.0918,-0.1578,-1.9630,0.8083,-0.1960,0.7212,0.4362,0.6269,
4.653200,0.1996,1.0918,-0.1578,-0.7915,1.3440,-0.5012,0.7212,0.4362,0.6269,
4.654849,0.1996,1.0918,-0.1578,-0.7915,1.3440,-0.5012,0.7468,0.3680,0.6051,
4.671291,0.1996,1.0918,-0.1578,-0.7915,1.3440,-0.5012,0.7436,0.2099,0.5305,
4.691061,0.2968,1.0319,-0.2074,-0.7915,1.3440,-0.5012,0.7436,0.2099,0.5305,
4.694490,0.2968,1.0319,-0.2074,-0.0516,0.8533,-0.7434,0.7436,0.2099,0.5305,
4.696491,0.2968,1.0319,-0.2074,-0.0516,0.8533,-0.7434,0.7334,0.2344,0.4091,
4.710970,0.2968,1.0319,-0.2074,-0.0516,0.8533,-0.7434,0.6397,0.1406,0.3537,
4.730889,0.3215,1.0886,-0.2455,-0.0516,0.8533,-0.7434,0.6397,0.1406,0.3537,
4.733269,0.3215,1.0886,-0.2455,0.0394,1.4935,-0.8867,0.6397,0.1406,0.3537,
4.734921,0.3215,1.0886,-0.2455,0.0394,1.4935,-0.8867,0.4149,0.1166,0.2929,
4.750552,0.3215,1.0886,-0.2455,0.0394,1.4935,-0.8867,0.0399,0.1550,0.1965,
4.770684,0.3560,1.0178,-0.1976,0.0394,1.4935,-0.8867,0.0399,0.1550,0.1965,
4.772933,0.3560,1.0178,-0.1976,0.2789,0.8443,-0.3514,0.0399,0.1550,0.1965,
4.774610,0.3560,1.0178,-0.1976,0.2789,0.8443,-0.3514,-0.2983,0.2573,0.1358,
4.791035,0.3560,1.0178,-0.1976,0.2789,0.8443,-0.3514,-0.5454,0.2807,0.0698,
4.810664,0.3709,0.9577,-0.1788,0.2789,0.8443,-0.3514,-0.5454,0.2807,0.0698,
4.812945,0.3709,0.9577,-0.1788,0.3737,0.2431,-0.3528,-0.5454,0.2807,0.0698,
4.814584,0.3709,0.9577,-0.1788,0.3737,0.2431,-0.3528,-0.7750,0.2322,-0.0154,
4.830722,0.3709,0.9577,-0.1788,0.3737,0.2431,-0.3528,-1.0040,0.2104,-0.0591,
4.850474,0.3457,0.8871,-0.1583,0.3737,0.2431,-0.3528,-1.0040,0.2104,-0.0591,
4.852777,0.3457,0.8871,-0.1583,0.1307,-0.4953,-0.4883,-1.0040,0.2104,-0.0591,
4.854511,0.3457,0.8871,-0.1583,0.1307,-0.4953,-0.4883,-1.2826,0.1140,-0.1529,
4.870236,0.3457,0.8871,-0.1583,0.1307,-0.4953,-0.4883,-1.5217,-0.1262,-0.2338,
4.891369,0.3310,0.7786,-0.0645,0.1307,-0.4953,-0.4883,-1.5217,-0.1262,-0.2338,
4.895197,0.3310,0.7786,-0.0645,0.0523,-1.6253,-0.0700,-1.5217,-0.1262,-0.2338,
4.897127,0.3310,0.7786,-0.0645,0.0523,-1.6253,-0.0700,-1.5414,0.1156,-0.3079,
4.910994,0.3310,0.7786,-0.0645,0.0523,-1.6253,-0.0700,-1.3199,0.2690,-0.4304,
4.930535,0.1991,0.6924,0.0801,0.0523,-1.6253,-0.0700,-1.3199,0.2690,-0.4304,
4.932765,0.1991,0.6924,0.0801,-1.1053,-2.5330,0.7927,-1.3199,0.2690,-0.4304,
4.934608,0.1991,0.6924,0.0801,-1.1053,-2.5330,0.7927,-1.0051,0.0426,-0.5017,
4.950355,0.1991,0.6924,0.0801,-1.1053,-2.5330,0.7927,-0.8229,-0.1656,-0.3478,
4.970326,0.2267,0.6973,0.1173,-1.1053,-2.5330,0.7927,-0.8229,-0.1656,-0.3478,
4.973638,0.2267,0.6973,0.1173,-0.6770,-2.5297,0.8226,-0.8229,-0.1656,-0.3478,
4.975383,0.2267,0.6973,0.1173,-0.6770,-2.5297,0.8226,-0.8927,-0.0756,-0.2077,
4.991012,0.2267,0.6973,0.1173,-0.6770,-2.5297,0.8226,-0.8783,-0.0245,-0.1395,
5.011045,0.2064,0.9518,0.1385,-0.6770,-2.5297,0.8226,-0.8783,-0.0245,-0.1395,
5.013366,0.2064,0.9518,0.1385,-0.8117,-0.0375,0.7054,-0.8783,-0.0245,-0.1395,
5.015174,0.2064,0.9518,0.1385,-0.8117,-0.0375,0.7054,-0.6157,0.0522,-0.1694,
5.030505,0.2064,0.9518,0.1385,-0.8117,-0.0375,0.7054,-0.3973,0.2226,-0.1976,
5.050212,0.1908,0.7916,0.0909,-0.8117,-0.0375,0.7054,-0.3973,0.2226,-0.1976,
5.052727,0.1908,0.7916,0.0909,-0.8919,-1.6134,0.0336,-0.3973,0.2226,-0.1976,
5.054343,0.1908,0.7916,0.0909,-0.8919,-1.6134,0.0336,-0.2594,0.3441,-0.1294,
5.071065,0.1908,0.7916,0.0909,-0.8919,-1.6134,0.0336,-0.1603,0.3601,-0.0724,
5.090547,0.2345,0.8565,0.0823,-0.8919,-1.6134,0.0336,-0.1603,0.3601,-0.0724,
5.093883,0.2345,0.8565,0.0823,-0.4126,-0.9799,-0.1672,-0.1603,0.3601,-0.0724,
5.095881,0.2345,0.8565,0.0823,-0.4126,-0.9799,-0.1672,-0.0394,0.2450,-0.0368,
5.114033,0.2345,0.8565,0.0823,-0.4126,-0.9799,-0.1672,0.1662,0.2439,-0.0224,
5.130469,0.2248,0.9161,0.0391,-0.4126,-0.9799,-0.1672,0.1662,0.2439,-0.0224,
5.132877,0.2248,0.9161,0.0391,-0.4876,-0.4014,-0.5936,0.1662,0.2439,-0.0224,
5.134763,0.2248,0.9161,0.0391,-0.4876,-0.4014,-0.5936,0.4139,0.1672,0.0250,
5.150992,0.2248,0.9161,0.0391,-0.4876,-0.4014,-0.5936,0.5193,0.1023,0.0506,
5.169965,0.2167,0.9396,-0.0100,-0.4876,-0.4014,-0.5936,0.5193,0.1023,0.0506,
5.173415,0.2167,0.9396,-0.0100,-0.5721,-0.1858,-0.9093,0.5193,0.1023,0.0506,
5.175552,0.2167,0.9396,-0.0100,-0.5721,-0.1858,-0.9093,0.4597,0.1087,0.0650,
5.189942,0.2167,0.9396,-0.0100,-0.5721,-0.1858,-0.9093,0.3925,0.1593,0.0884,
5.210751,0.2726,0.8260,0.0344,-0.5721,-0.1858,-0.9093,0.3925,0.1593,0.0884,
5.214973,0.2726,0.8260,0.0344,-0.0487,-1.3034,-0.3280,0.3925,0.1593,0.0884,
5.217537,0.2726,0.8260,0.0344,-0.0487,-1.3034,-0.3280,0.4650,0.1838,0.0858,
5.229997,0.2726,0.8260,0.0344,-0.0487,-1.3034,-0.3280,0.5657,0.1262,0.0517,
5.250649,0.3650,0.8890,0.0110,-0.0487,-1.3034,-0.3280,0.5657,0.1262,0.0517,
5.253135,0.3650,0.8890,0.0110,0.6383,-0.6362,-0.2609,0.5657,0.1262,0.0517,
5.254804,0.3650,0.8890,0.0110,0.6383,-0.6362,-0.2609,0.6940,0.0650,-0.0080,
5.269674,0.3650,0.8890,0.0110,0.6383,-0.6362,-0.2609,0.7744,-0.0586,-0.1896,
5.290542,0.3833,1.1600,-0.0674,0.6383,-0.6362,-0.2609,0.7744,-0.0586,-0.1896,
5.292964,0.3833,1.1600,-0.0674,0.8514,2.0016,-0.7512,0.7744,-0.0586,-0.1896,
5.294591,0.3833,1.1600,-0.0674,0.8514,2.0016,-0.7512,0.7547,-0.2003,-0.4021,
5.309784,0.3833,1.1600,-0.0674,0.8514,2.0016,-0.7512,0.6099,-0.2770,-0.4863,
5.329860,0.2917,1.2609,-0.1383,0.8514,2.0016,-0.7512,0.6099,-0.2770,-0.4863,
5.333072,0.2917,1.2609,-0.1383,0.1209,2.9417,-1.1627,0.6099,-0.2770,-0.4863,
5.335076,0.2917,1.2609,-0.1383,0.1209,2.9417,-1.1627,0.3957,-0.2684,-0.4426,
5.349850,0.2917,1.2609,-0.1383,0.1209,2.9417,-1.1627,0.1683,-0.2125,-0.3952,
5.369730,0.2856,1.0574,-0.0858,0.1209,2.9417,-1.1627,0.1683,-0.2125,-0.3952,
5.371971,0.2856,1.0574,-0.0858,0.2215,0.9057,-0.5162,0.1683,-0.2125,-0.3952,
5.373757,0.2856,1.0574,-0.0858,0.2215,0.9057,-0.5162,-0.0511,-0.2487,-0.4447,
5.389510,0.2856,1.0574,-0.0858,0.2215,0.9057,-0.5162,-0.2503,-0.3659,-0.4868,
5.409053,0.2292,1.0359,-0.0530,0.2215,0.9057,-0.5162,-0.2503,-0.3659,-0.4868,
5.410822,0.2292,1.0359,-0.0530,-0.1513,0.6469,-0.2221,-0.2503,-0.3659,-0.4868,
5.412499,0.2292,1.0359,-0.0530,-0.1513,0.6469,-0.2221,-0.5129,-0.3020,-0.4804,
5.430045,0.2292,1.0359,-0.0530,-0.1513,0.6469,-0.2221,-0.7537,0.0778,-0.3531,
5.449564,0.0833,1.2460,0.1517,-0.1513,0.6469,-0.2221,-0.7537,0.0778,-0.3531,
5.452332,0.0833,1.2460,0.1517,-1.4207,2.6626,1.5538,-0.7537,0.0778,-0.3531,
5.454097,0.0833,1.2460,0.1517,-1.4207,2.6626,1.5538,-0.4831,0.9167,-0.0234,
5.469720,0.0833,1.2460,0.1517,-1.4207,2.6626,1.5538,0.0581,1.3673,0.1475,
5.489604,0.1507,0.8113,0.1077,-1.4207,2.6626,1.5538,0.0581,1.3673,0.1475,
5.492861,0.1507,0.8113,0.1077,-0.7618,-1.5956,0.9235,0.0581,1.3673,0.1475,
5.495183,0.1507,0.8113,0.1077,-0.7618,-1.5956,0.9235,0.3025,1.0701,0.3169,
5.509435,0.1507,0.8113,0.1077,-0.7618,-1.5956,0.9235,-0.1507,0.1481,0.4964,
5.529640,0.2069,0.8443,0.3210,-0.7618,-1.5956,0.9235,-0.1507,0.1481,0.4964,
5.531723,0.2069,0.8443,0.3210,-0.3504,-1.2374,2.9442,-0.1507,0.1481,0.4964,
5.533628,0.2069,0.8443,0.3210,-0.3504,-1.2374,2.9442,0.0059,0.0538,0.5145,
5.549632,0.2069,0.8443,0.3210,-0.3504,-1.2374,2.9442,0.5374,0.0804,0.5113,
5.569887,0.0828,1.1475,0.0476,-0.3504,-1.2374,2.9442,0.5374,0.0804,0.5113,
5.572093,0.0828,1.1475,0.0476,-1.7325,1.7756,0.3372,0.5374,0.0804,0.5113,
5.573899,0.0828,1.1475,0.0476,-1.7325,1.7756,0.3372,0.7713,0.0517,0.5151,
5.589748,0.0828,1.1475,0.0476,-1.7325,1.7756,0.3372,0.6754,-0.0037,0.5593,
5.609338,0.2463,0.9782,-0.0359,-1.7325,1.7756,0.3372,0.6754,-0.0037,0.5593,
5.613140,0.2463,0.9782,-0.0359,-0.3044,0.1646,-0.2311,0.6754,-0.0037,0.5593,
5.615158,0.2463,0.9782,-0.0359,-0.3044,0.1646,-0.2311,0.4847,0.0410,0.5918,
5.629712,0.2463,0.9782,-0.0359,-0.3044,0.1646,-0.2311,0.4607,0.0581,0.4730,
5.649913,0.2966,0.9618,-0.0217,-0.3044,0.1646,-0.2311,0.4607,0.0581,0.4730,
5.652277,0.2966,0.9618,-0.0217,0.0103,0.0608,0.0630,0.4607,0.0581,0.4730,
5.653688,0.2966,0.9618,-0.0217,0.0103,0.0608,0.0630,0.5997,0.0389,0.3787,
5.669729,0.2966,0.9618,-0.0217,0.0103,0.0608,0.0630,0.6535,-0.0091,0.4139,
5.689647,0.2802,1.3112,-0.0809,0.0103,0.0608,0.0630,0.6535,-0.0091,0.4139,
5.691950,0.2802,1.3112,-0.0809,-0.2981,3.5414,-0.2844,0.6535,-0.0091,0.4139,
5.694029,0.2802,1.3112,-0.0809,-0.2981,3.5414,-0.2844,0.6035,-0.0282,0.4229,
5.709596,0.2802,1.3112,-0.0809,-0.2981,3.5414,-0.2844,0.3174,-0.1417,0.2951,
5.729479,0.3743,1.1087,-0.1412,-0.2981,3.5414,-0.2844,0.3174,-0.1417,0.2951,
5.731640,0.3743,1.1087,-0.1412,0.4928,1.6121,-0.6944,0.3174,-0.1417,0.2951,
5.733351,0.3743,1.1087,-0.1412,0.4928,1.6121,-0.6944,-0.0746,-0.0629,0.2301,
5.750201,0.3743,1.1087,-0.1412,0.4928,1.6121,-0.6944,-0.4751,-0.0479,0.0863,
5.769853,0.3650,0.9604,-0.1153,0.4928,1.6121,-0.6944,-0.4751,-0.0479,0.0863,
5.773175,0.3650,0.9604,-0.1153,0.3449,0.1720,-0.5351,-0.4751,-0.0479,0.0863,
5.774886,0.3650,0.9604,-0.1153,0.3449,0.1720,-0.5351,-0.8394,-0.0533,-0.1310,
5.788953,0.3650,0.9604,-0.1153,0.3449,0.1720,-0.5351,-1.1313,-0.1870,-0.1316,
5.809018,0.2954,0.7771,-0.0611,0.3449,0.1720,-0.5351,-1.1313,-0.1870,-0.1316,
5.811118,0.2954,0.7771,-0.0611,-0.2856,-1.6570,-0.3340,-1.1313,-0.1870,-0.1316,
5.813214,0.2954,0.7771,-0.0611,-0.2856,-1.6570,-0.3340,-1.3790,-0.3547,-0.1401,
5.830235,0.2954,0.7771,-0.0611,-0.2856,-1.6570,-0.3340,-1.4706,-0.4256,-0.0863,
5.850229,0.2680,0.8619,0.0261,-0.2856,-1.6570,-0.3340,-1.4706,-0.4256,-0.0863,
5.852546,0.2680,0.8619,0.0261,-0.5098,-0.8427,0.0527,-1.4706,-0.4256,-0.0863,
5.854275,0.2680,0.8619,0.0261,-0.5098,-0.8427,0.0527,-1.5564,-0.6131,0.0320,
5.869334,0.2680,0.8619,0.0261,-0.5098,-0.8427,0.0527,-1.5303,-0.4421,-0.0820,
5.888673,0.2856,0.6398,0.0965,-0.5098,-0.8427,0.0527,-1.5303,-0.4421,-0.0820,
5.890943,0.2856,0.6398,0.0965,-0.3373,-2.9942,0.2364,-1.5303,-0.4421,-0.0820,
5.892776,0.2856,0.6398,0.0965,-0.3373,-2.9942,0.2364,-1.1531,-0.2322,-0.2413,
5.908881,0.2856,0.6398,0.0965,-0.3373,-2.9942,0.2364,-0.8155,-0.2887,-0.1981,
5.929008,0.2003,0.7065,0.0855,-0.3373,-2.9942,0.2364,-0.8155,-0.2887,-0.1981,
5.931098,0.2003,0.7065,0.0855,-1.1010,-2.3332,-0.2032,-0.8155,-0.2887,-0.1981,
5.933111,0.2003,0.7065,0.0855,-1.1010,-2.3332,-0.2032,-0.7212,-0.2280,-0.0666,
5.949799,0.2003,0.7065,0.0855,-1.1010,-2.3332,-0.2032,-0.6466,-0.1891,-0.0506,
5.969150,0.2370,0.8993,0.1200,-1.1010,-2.3332,-0.2032,-0.6466,-0.1891,-0.0506,
5.971406,0.2370,0.8993,0.1200,-0.7298,-0.4198,-0.0927,-0.6466,-0.1891,-0.0506,
5.973298,0.2370,0.8993,0.1200,-0.7298,-0.4198,-0.0927,-0.5625,-0.0474,-0.1838,
5.989371,0.2370,0.8993,0.1200,-0.7298,-0.4198,-0.0927,-0.4192,0.2333,-0.2392,
6.008686,0.1857,0.8309,0.1739,-0.7298,-0.4198,-0.0927,-0.4192,0.2333,-0.2392,
6.011288,0.1857,0.8309,0.1739,-1.1493,-1.0890,0.2443,-0.4192,0.2333,-0.2392,
6.013156,0.1857,0.8309,0.1739,-1.1493,-1.0890,0.2443,-0.2567,0.4000,-0.1678,
6.029256,0.1857,0.8309,0.1739,-1.1493,-1.0890,0.2443,-0.1028,0.4554,-0.0629,
6.049786,0.2946,0.8482,0.1564,-1.1493,-1.0890,0.2443,-0.1028,0.4554,-0.0629,
6.052322,0.2946,0.8482,0.1564,-0.0128,-0.9217,-0.0444,-0.1028,0.4554,-0.0629,
6.054230,0.2946,0.8482,0.1564,-0.0128,-0.9217,-0.0444,0.0383,0.4559,-0.0458,
6.069621,0.2946,0.8482,0.1564,-0.0128,-0.9217,-0.0444,0.1470,0.4320,-0.0378,
6.089225,0.2819,0.8270,0.1339,-0.0128,-0.9217,-0.0444,0.1470,0.4320,-0.0378,
6.091587,0.2819,0.8270,0.1339,-0.0937,-1.1407,-0.2815,0.1470,0.4320,-0.0378,
6.093592,0.2819,0.8270,0.1339,-0.0937,-1.1407,-0.2815,0.2487,0.4091,-0.0075,
6.109381,0.2819,0.8270,0.1339,-0.0937,-1.1407,-0.2815,0.3862,0.3840,-0.0112,
6.129124,0.2211,0.9052,0.1366,-0.0937,-1.1407,-0.2815,0.3862,0.3840,-0.0112,
6.131535,0.2211,0.9052,0.1366,-0.6614,-0.3955,-0.1828,0.3862,0.3840,-0.0112,
6.133516,0.2211,0.9052,0.1366,-0.6614,-0.3955,-0.1828,0.5220,0.4107,-0.0399,
6.149572,0.2211,0.9052,0.1366,-0.6614,-0.3955,-0.1828,0.6019,0.3904,-0.0288,
6.168685,0.2682,0.8778,0.1434,-0.6614,-0.3955,-0.1828,0.6019,0.3904,-0.0288,
6.171018,0.2682,0.8778,0.1434,-0.1633,-0.6998,0.0474,0.6019,0.3904,-0.0288,
6.172824,0.2682,0.8778,0.1434,-0.1633,-0.6998,0.0474,0.6892,0.3904,-0.0186,
6.188353,0.2682,0.8778,0.1434,-0.1633,-0.6998,0.0474,0.8629,0.4144,-0.0889,
6.208887,0.3486,0.9252,0.1187,-0.1633,-0.6998,0.0474,0.8629,0.4144,-0.0889,
6.211001,0.3486,0.9252,0.1187,0.6585,-0.2773,0.0454,0.8629,0.4144,-0.0889,
6.212696,0.3486,0.9252,0.1187,0.6585,-0.2773,0.0454,1.0663,0.2791,-0.2477,
6.229153,0.3486,0.9252,0.1187,0.6585,-0.2773,0.0454,1.1361,0.0117,-0.4405,
6.247991,0.3191,1.1798,-0.0147,0.6585,-0.2773,0.0454,1.1361,0.0117,-0.4405,
6.249860,0.3191,1.1798,-0.0147,0.5018,2.1403,-0.8641,1.1361,0.0117,-0.4405,
6.250954,0.3191,1.1798,-0.0147,0.5018,2.1403,-0.8641,0.9870,-0.1901,-0.5662,
6.268031,0.3191,1.1798,-0.0147,0.5018,2.1403,-0.8641,0.6621,-0.1417,-0.6083,
6.288279,0.2873,1.2501,-0.0777,0.5018,2.1403,-0.8641,0.6621,-0.1417,-0.6083,
6.290291,0.2873,1.2501,-0.0777,0.4089,2.7525,-1.1535,0.6621,-0.1417,-0.6083,
6.291930,0.2873,1.2501,-0.0777,0.4089,2.7525,-1.1535,0.2700,0.0751,-0.6317,
6.308872,0.2873,1.2501,-0.0777,0.4089,2.7525,-1.1535,-0.0597,0.0783,-0.6402,
6.328729,0.2458,1.0491,0.0149,0.4089,2.7525,-1.1535,-0.0597,0.0783,-0.6402,
6.330578,0.2458,1.0491,0.0149,0.2450,0.7224,-0.2131,-0.0597,0.0783,-0.6402,
6.332004,0.2458,1.0491,0.0149,0.2450,0.7224,-0.2131,-0.2919,0.0362,-0.6834,
6.347991,0.2458,1.0491,0.0149,0.2450,0.7224,-0.2131,-0.4160,0.0549,-0.7100,
6.368572,0.1168,0.9721,0.1344,0.2450,0.7224,-0.2131,-0.4160,0.0549,-0.7100,
6.369953,0.1168,0.9721,0.1344,-0.7517,-0.0821,0.8181,-0.4160,0.0549,-0.7100,
6.370823,0.1168,0.9721,0.1344,-0.7517,-0.0821,0.8181,-0.3968,0.2360,-0.6333,
6.388703,0.1168,0.9721,0.1344,-0.7517,-0.0821,0.8181,-0.2610,0.5763,-0.4346,
6.408092,0.0027,1.0850,0.2101,-0.7517,-0.0821,0.8181,-0.2610,0.5763,-0.4346,
6.409963,0.0027,1.0850,0.2101,-1.6482,0.9925,1.3996,-0.2610,0.5763,-0.4346,
6.411309,0.0027,1.0850,0.2101,-1.6482,0.9925,1.3996,-0.0975,0.8021,-0.1023,
6.428310,0.0027,1.0850,0.2101,-1.6482,0.9925,1.3996,0.2626,0.7127,0.2818,
6.448705,0.2262,0.8736,0.1485,-1.6482,0.9925,1.3996,0.2626,0.7127,0.2818,
6.450752,0.2262,0.8736,0.1485,0.5314,-1.0734,0.7520,0.2626,0.7127,0.2818,
6.452417,0.2262,0.8736,0.1485,0.5314,-1.0734,0.7520,0.2360,0.2754,0.5598,
6.468518,0.2262,0.8736,0.1485,0.5314,-1.0734,0.7520,0.1577,0.1108,0.5902,
6.488450,0.0628,0.9745,0.2223,0.5314,-1.0734,0.7520,0.1577,0.1108,0.5902,
6.490773,0.0628,0.9745,0.2223,-1.2584,-0.0512,1.4950,0.1577,0.1108,0.5902,
6.492482,0.0628,0.9745,0.2223,-1.2584,-0.0512,1.4950,0.4282,0.0485,0.5412,
6.509384,0.0628,0.9745,0.2223,-1.2584,-0.0512,1.4950,0.7947,0.0282,0.5699,
6.527900,-0.0068,1.1155,0.0354,-1.2584,-0.0512,1.4950,0.7947,0.0282,0.5699,
6.530260,-0.0068,1.1155,0.0354,-2.1203,1.3540,-0.1195,0.7947,0.0282,0.5699,
6.532262,-0.0068,1.1155,0.0354,-2.1203,1.3540,-0.1195,0.9092,-0.0224,0.6503,
6.548479,-0.0068,1.1155,0.0354,-2.1203,1.3540,-0.1195,0.7888,-0.1081,0.7409,
6.567870,0.2548,0.9775,-0.0186,-2.1203,1.3540,-0.1195,0.7888,-0.1081,0.7409,
6.570003,0.2548,0.9775,-0.0186,0.2053,0.0453,-0.3311,0.7888,-0.1081,0.7409,
6.571605,0.2548,0.9775,-0.0186,0.2053,0.0453,-0.3311,0.6067,-0.0778,0.7904,
6.587914,0.2548,0.9775,-0.0186,0.2053,0.0453,-0.3311,0.5097,-0.1246,0.5987,
6.607587,0.2541,1.2821,-0.0540,0.2053,0.0453,-0.3311,0.5097,-0.1246,0.5987,
6.610110,0.2541,1.2821,-0.0540,-0.0656,3.0972,-0.4566,0.5097,-0.1246,0.5987,
6.612162,0.2541,1.2821,-0.0540,-0.0656,3.0972,-0.4566,0.4863,-0.0767,0.6163,
6.628445,0.2541,1.2821,-0.0540,-0.0656,3.0972,-0.4566,0.2663,0.0304,0.6456,
6.648611,0.3667,1.1631,-0.0743,-0.0656,3.0972,-0.4566,0.2663,0.0304,0.6456,
6.650764,0.3667,1.1631,-0.0743,0.8005,2.0009,-0.5111,0.2663,0.0304,0.6456,
6.652395,0.3667,1.1631,-0.0743,0.8005,2.0009,-0.5111,-0.1662,-0.0362,0.6743,
6.667564,0.3667,1.1631,-0.0743,0.8005,2.0009,-0.5111,-0.5843,-0.0240,0.5470,
6.687858,0.4576,0.8690,-0.0535,0.8005,2.0009,-0.5111,-0.5843,-0.0240,0.5470,
6.690247,0.4576,0.8690,-0.0535,1.4621,-0.8128,-0.4427,-0.5843,-0.0240,0.5470,
6.692006,0.4576,0.8690,-0.0535,1.4621,-0.8128,-0.4427,-1.0189,-0.2786,0.2876,
6.708678,0.4576,0.8690,-0.0535,1.4621,-0.8128,-0.4427,-1.2687,-0.4847,0.0842,
6.727386,0.2802,0.8018,-0.0059,1.4621,-0.8128,-0.4427,-1.2687,-0.4847,0.0842,
6.728985,0.2802,0.8018,-0.0059,-0.3505,-1.4430,-0.3368,-1.2687,-0.4847,0.0842,
6.730196,0.2802,0.8018,-0.0059,-0.3505,-1.4430,-0.3368,-1.3550,-0.6663,-0.0037,
6.748009,0.2802,0.8018,-0.0059,-0.3505,-1.4430,-0.3368,-1.2410,-0.6152,0.0762,
6.767518,0.2851,0.8846,0.0095,-0.3505,-1.4430,-0.3368,-1.2410,-0.6152,0.0762,
6.769864,0.2851,0.8846,0.0095,-0.3284,-0.6032,-0.5697,-1.2410,-0.6152,0.0762,
6.771792,0.2851,0.8846,0.0095,-0.3284,-0.6032,-0.5697,-1.3412,-0.8964,0.1529,
6.787455,0.2851,0.8846,0.0095,-0.3284,-0.6032,-0.5697,-1.4216,-0.7164,0.0687,
6.808923,0.3415,0.6398,0.1371,-0.3284,-0.6032,-0.5697,-1.4216,-0.7164,0.0687,
6.811182,0.3415,0.6398,0.1371,0.1564,-2.9406,0.2718,-1.4216,-0.7164,0.0687,
6.812867,0.3415,0.6398,0.1371,0.1564,-2.9406,0.2718,-1.1414,-0.3340,-0.0389,
6.827989,0.3415,0.6398,0.1371,0.1564,-2.9406,0.2718,-0.8927,-0.3728,-0.0021,
6.847933,0.3616,0.7503,0.2089,0.1564,-2.9406,0.2718,-0.8927,-0.3728,-0.0021,
6.850137,0.3616,0.7503,0.2089,0.3426,-1.8107,0.6475,-0.8927,-0.3728,-0.0021,
6.851780,0.3616,0.7503,0.2089,0.3426,-1.8107,0.6475,-0.8112,-0.1358,-0.0048,
6.868104,0.3616,0.7503,0.2089,0.3426,-1.8107,0.6475,-0.5459,0.0719,-0.1912,
6.887750,0.1625,0.8512,0.2077,0.3426,-1.8107,0.6475,-0.5459,0.0719,-0.1912,
6.889908,0.1625,0.8512,0.2077,-1.5746,-0.7933,0.3918,-0.5459,0.0719,-0.1912,
6.891662,0.1625,0.8512,0.2077,-1.5746,-0.7933,0.3918,-0.0692,0.1470,-0.3020,
6.908178,0.1625,0.8512,0.2077,-1.5746,-0.7933,0.3918,0.2232,0.3899,-0.2940,
6.927984,0.2169,0.6880,0.1114,-1.5746,-0.7933,0.3918,0.2232,0.3899,-0.2940,
6.930588,0.2169,0.6880,0.1114,-0.9139,-2.4346,-0.5565,0.2232,0.3899,-0.2940,
6.932715,0.2169,0.6880,0.1114,-0.9139,-2.4346,-0.5565,0.4682,0.5747,-0.3329,
6.948281,0.2169,0.6880,0.1114,-0.9139,-2.4346,-0.5565,0.6503,0.5731,-0.2903,
6.968114,0.2929,0.8050,0.0445,-0.9139,-2.4346,-0.5565,0.6503,0.5731,-0.2903,
6.970478,0.2929,0.8050,0.0445,-0.0183,-1.3601,-1.0745,0.6503,0.5731,-0.2903,
6.972457,0.2929,0.8050,0.0445,-0.0183,-1.3601,-1.0745,0.6269,0.4815,-0.2594,
6.988114,0.2929,0.8050,0.0445,-0.0183,-1.3601,-1.0745,0.5385,0.4549,-0.2807,
7.007566,0.2700,0.8458,0.0691,-0.0183,-1.3601,-1.0745,0.5385,0.4549,-0.2807,
7.010028,0.2700,0.8458,0.0691,-0.1165,-1.0240,-0.6695,0.5385,0.4549,-0.2807,
7.011755,0.2700,0.8458,0.0691,-0.1165,-1.0240,-0.6695,0.6418,0.3883,-0.2722,
7.027958,0.2700,0.8458,0.0691,-0.1165,-1.0240,-0.6695,0.8101,0.2429,-0.1555,
7.047905,0.2489,1.0825,-0.0022,-0.1165,-1.0240,-0.6695,0.8101,0.2429,-0.1555,
7.050177,0.2489,1.0825,-0.0022,-0.2264,1.2352,-1.1166,0.8101,0.2429,-0.1555,
7.051996,0.2489,1.0825,-0.0022,-0.2264,1.2352,-1.1166,0.7452,0.2610,-0.0613,
7.067710,0.2489,1.0825,-0.0022,-0.2264,1.2352,-1.1166,0.5720,0.2743,-0.1459,
7.087625,0.3235,1.0706,0.0950,-0.2264,1.2352,-1.1166,0.5720,0.2743,-0.1459,
7.090065,0.3235,1.0706,0.0950,0.5508,1.0812,0.0598,0.5720,0.2743,-0.1459,
7.091524,0.3235,1.0706,0.0950,0.5508,1.0812,0.0598,0.6434,0.2487,-0.2402,
7.107242,0.3235,1.0706,0.0950,0.5508,1.0812,0.0598,0.8581,-0.0394,-0.3121,
7.127736,0.3677,1.0090,0.0318,0.5508,1.0812,0.0598,0.8581,-0.0394,-0.3121,
7.130647,0.3677,1.0090,0.0318,1.0814,0.4300,-0.2859,0.8581,-0.0394,-0.3121,
7.132446,0.3677,1.0090,0.0318,1.0814,0.4300,-0.2859,0.9454,-0.3941,-0.3878,
7.147675,0.3677,1.0090,0.0318,1.0814,0.4300,-0.2859,0.8059,-0.4847,-0.4240,
7.166582,0.3320,1.1184,-0.0845,1.0814,0.4300,-0.2859,0.8059,-0.4847,-0.4240,
7.168323,0.3320,1.1184,-0.0845,0.8783,1.4486,-1.0506,0.8059,-0.4847,-0.4240,
7.169506,0.3320,1.1184,-0.0845,0.8783,1.4486,-1.0506,0.5135,-0.3143,-0.4320,
7.186665,0.3320,1.1184,-0.0845,0.8783,1.4486,-1.0506,0.1411,-0.0724,-0.4996,
7.207696,0.2915,1.1607,-0.0828,0.8783,1.4486,-1.0506,0.1411,-0.0724,-0.4996,
7.209757,0.2915,1.1607,-0.0828,0.6571,1.8183,-0.8914,0.1411,-0.0724,-0.4996,
7.211369,0.2915,1.1607,-0.0828,0.6571,1.8183,-0.8914,-0.2615,0.0714,-0.5593,
7.227296,0.2915,1.1607,-0.0828,0.6571,1.8183,-0.8914,-0.5278,0.0469,-0.6253,
7.247346,0.1566,0.9125,0.0750,0.6571,1.8183,-0.8914,-0.5278,0.0469,-0.6253,
7.249506,0.1566,0.9125,0.0750,-0.4444,-0.6597,0.5022,-0.5278,0.0469,-0.6253,
7.251283,0.1566,0.9125,0.0750,-0.4444,-0.6597,0.5022,-0.5124,-0.0517,-0.6200,
7.267390,0.1566,0.9125,0.0750,-0.4444,-0.6597,0.5022,-0.3201,0.2301,-0.4884,
7.287363,0.0515,0.9108,0.1842,-0.4444,-0.6597,0.5022,-0.3201,0.2301,-0.4884,
7.289661,0.0515,0.9108,0.1842,-1.2540,-0.7131,1.3906,-0.3201,0.2301,-0.4884,
7.291426,0.0515,0.9108,0.1842,-1.2540,-0.7131,1.3906,-0.1348,0.7377,-0.3244,
7.307136,0.0515,0.9108,0.1842,-1.2540,-0.7131,1.3906,0.0703,0.6631,0.0229,
7.326864,0.1810,1.0806,0.1771,-1.2540,-0.7131,1.3906,0.0703,0.6631,0.0229,
7.329342,0.1810,1.0806,0.1771,0.0876,0.9415,1.2440,0.0703,0.6631,0.0229,
7.330827,0.1810,1.0806,0.1771,0.0876,0.9415,1.2440,0.2972,0.5278,0.3910,
7.347458,0.1810,1.0806,0.1771,0.0876,0.9415,1.2440,0.2807,0.1720,0.4666,
7.367247,0.1080,0.9902,0.1867,0.0876,0.9415,1.2440,0.2807,0.1720,0.4666,
7.370215,0.1080,0.9902,0.1867,-0.7733,0.0794,1.3939,0.2807,0.1720,0.4666,
7.372008,0.1080,0.9902,0.1867,-0.7733,0.0794,1.3939,0.4650,-0.0724,0.4495,
7.387528,0.1080,0.9902,0.1867,-0.7733,0.0794,1.3939,0.7324,-0.0298,0.4932,
7.407739,-0.0459,1.1600,0.0203,-0.7733,0.0794,1.3939,0.7324,-0.0298,0.4932,
7.409828,-0.0459,1.1600,0.0203,-2.4505,1.7695,-0.0088,0.7324,-0.0298,0.4932,
7.411635,-0.0459,1.1600,0.0203,-2.4505,1.7695,-0.0088,0.8634,0.1832,0.6477,
7.427026,-0.0459,1.1600,0.0203,-2.4505,1.7695,-0.0088,0.7771,0.1864,0.9156,
7.446989,0.1981,1.3151,-0.0559,-2.4505,1.7695,-0.0088,0.7771,0.1864,0.9156,
7.449298,0.1981,1.3151,-0.0559,-0.3571,3.3550,-0.4580,0.7771,0.1864,0.9156,
7.451085,0.1981,1.3151,-0.0559,-0.3571,3.3550,-0.4580,0.5172,0.0591,1.1052,
7.466906,0.1981,1.3151,-0.0559,-0.3571,3.3550,-0.4580,0.2716,-0.0522,0.9316,
7.487035,0.4884,0.8319,-0.0655,-0.3571,3.3550,-0.4580,0.2716,-0.0522,0.9316,
7.490055,0.4884,0.8319,-0.0655,2.1025,-1.2771,-0.4031,0.2716,-0.0522,0.9316,
7.492054,0.4884,0.8319,-0.0655,2.1025,-1.2771,-0.4031,-0.0112,-0.2860,0.6951,
7.506960,0.4884,0.8319,-0.0655,2.1025,-1.2771,-0.4031,-0.1071,-0.0543,0.4831,
7.526196,0.3398,1.1824,-0.0151,2.1025,-1.2771,-0.4031,-0.1071,-0.0543,0.4831,
7.528246,0.3398,1.1824,-0.0151,0.4274,2.2237,0.0867,-0.1071,-0.0543,0.4831,
7.529519,0.3398,1.1824,-0.0151,0.4274,2.2237,0.0867,-0.0911,0.1859,0.4032,
7.546305,0.3398,1.1824,-0.0151,0.4274,2.2237,0.0867,-0.2573,0.1928,0.3755,
7.566576,0.4420,0.8297,-0.1134,0.4274,2.2237,0.0867,-0.2573,0.1928,0.3755,
7.568589,0.4420,0.8297,-0.1134,1.2737,-1.1859,-0.9553,-0.2573,0.1928,0.3755,
7.570795,0.4420,0.8297,-0.1134,1.2737,-1.1859,-0.9553,-0.8959,-0.1278,0.1907,
7.586838,0.4420,0.8297,-0.1134,1.2737,-1.1859,-0.9553,-1.4637,-0.3308,0.0107,
7.607703,0.3054,0.7275,-0.0042,1.2737,-1.1859,-0.9553,-1.4637,-0.3308,0.0107,
7.609895,0.3054,0.7275,-0.0042,-0.1093,-2.1699,-0.2869,-1.4637,-0.3308,0.0107,
7.611750,0.3054,0.7275,-0.0042,-0.1093,-2.1699,-0.2869,-1.6022,-0.3095,-0.0186,
7.627493,0.3054,0.7275,-0.0042,-0.1093,-2.1699,-0.2869,-1.5185,-0.4895,-0.1012,
7.647080,0.2130,0.9523,0.0330,-0.1093,-2.1699,-0.2869,-1.5185,-0.4895,-0.1012,
7.649430,0.2130,0.9523,0.0330,-0.9980,0.0551,-0.4361,-1.5185,-0.4895,-0.1012,
7.651158,0.2130,0.9523,0.0330,-0.9980,0.0551,-0.4361,-1.6064,-1.0296,0.0314,
7.667172,0.2130,0.9523,0.0330,-0.9980,0.0551,-0.4361,-1.5771,-0.9843,0.1129,
7.686213,0.3860,0.6191,0.1229,-0.9980,0.0551,-0.4361,-1.5771,-0.9843,0.1129,
7.688477,0.3860,0.6191,0.1229,0.6306,-3.1386,-0.0176,-1.5771,-0.9843,0.1129,
7.689813,0.3860,0.6191,0.1229,0.6306,-3.1386,-0.0176,-1.3342,-0.5252,-0.0112,
7.706202,0.3860,0.6191,0.1229,0.6306,-3.1386,-0.0176,-1.0780,-0.2961,-0.0597,
7.727265,0.3687,0.8194,0.2233,0.6306,-3.1386,-0.0176,-1.0780,-0.2961,-0.0597,
7.729610,0.3687,0.8194,0.2233,0.4507,-1.1116,0.5762,-1.0780,-0.2961,-0.0597,
7.731206,0.3687,0.8194,0.2233,0.4507,-1.1116,0.5762,-0.7627,-0.1454,-0.0948,
7.746972,0.3687,0.8194,0.2233,0.4507,-1.1116,0.5762,-0.5119,-0.0128,-0.2503,
7.767008,0.2125,0.7735,0.1593,0.4507,-1.1116,0.5762,-0.5119,-0.0128,-0.2503,
7.768964,0.2125,0.7735,0.1593,-1.0217,-1.5395,-0.2735,-0.5119,-0.0128,-0.2503,
7.770908,0.2125,0.7735,0.1593,-1.0217,-1.5395,-0.2735,-0.2067,0.2653,-0.3776,
7.787316,0.2125,0.7735,0.1593,-1.0217,-1.5395,-0.2735,0.0655,0.3856,-0.4213,
7.806931,0.1864,0.5656,0.0833,-1.0217,-1.5395,-0.2735,0.0655,0.3856,-0.4213,
7.809275,0.1864,0.5656,0.0833,-1.1076,-3.6200,-1.0830,0.0655,0.3856,-0.4213,
7.811134,0.1864,0.5656,0.0833,-1.1076,-3.6200,-1.0830,0.2594,0.4394,-0.3590,
7.826891,0.1864,0.5656,0.0833,-1.1076,-3.6200,-1.0830,0.4011,0.4202,-0.3531,
7.846929,0.1957,0.7874,0.0623,-1.1076,-3.6200,-1.0830,0.4011,0.4202,-0.3531,
7.849370,0.1957,0.7874,0.0623,-0.8537,-1.5112,-1.2166,0.4011,0.4202,-0.3531,
7.851213,0.1957,0.7874,0.0623,-0.8537,-1.5112,-1.2166,0.5337,0.3212,-0.2477,
7.867223,0.1957,0.7874,0.0623,-0.8537,-1.5112,-1.2166,0.4250,0.1667,-0.0852,
7.887130,0.2863,1.0727,0.0611,-0.8537,-1.5112,-1.2166,0.4250,0.1667,-0.0852,
7.890165,0.2863,1.0727,0.0611,0.1133,1.2324,-1.0724,0.4250,0.1667,-0.0852,
7.892401,0.2863,1.0727,0.0611,0.1133,1.2324,-1.0724,0.1220,0.0352,0.0762,
7.907460,0.2863,1.0727,0.0611,0.1133,1.2324,-1.0724,-0.0618,0.3244,0.0703,
7.926751,0.4060,1.0862,0.1867,0.1133,1.2324,-1.0724,-0.0618,0.3244,0.0703,
7.929429,0.4060,1.0862,0.1867,1.2615,1.3703,0.1643,-0.0618,0.3244,0.0703,
7.931112,0.4060,1.0862,0.1867,1.2615,1.3703,0.1643,0.0101,0.6519,-0.0996,
7.946686,0.4060,1.0862,0.1867,1.2615,1.3703,0.1643,0.1875,0.6850,-0.2615,
7.966422,0.3528,1.1011,0.2492,1.2615,1.3703,0.1643,0.1875,0.6850,-0.2615,
7.969495,0.3528,1.1011,0.2492,0.8504,1.4908,0.7429,0.1875,0.6850,-0.2615,
7.971128,0.3528,1.1011,0.2492,0.8504,1.4908,0.7429,0.3920,0.5465,-0.3718,
7.986326,0.3528,1.1011,0.2492,0.8504,1.4908,0.7429,0.5566,0.3031,-0.5055,
8.006208,0.2770,1.0793,0.1932,0.8504,1.4908,0.7429,0.5566,0.3031,-0.5055,
8.009002,0.2770,1.0793,0.1932,0.2998,1.2028,0.3286,0.5566,0.3031,-0.5055,
8.010487,0.2770,1.0793,0.1932,0.2998,1.2028,0.3286,0.5763,-0.0048,-0.5699,
8.025812,0.2770,1.0793,0.1932,0.2998,1.2028,0.3286,0.4948,-0.0810,-0.5523,
8.046618,0.2455,0.9582,0.1309,0.2998,1.2028,0.3286,0.4948,-0.0810,-0.5523,
8.048816,0.2455,0.9582,0.1309,0.1932,-0.0661,-0.0788,0.4948,-0.0810,-0.5523,
8.050488,0.2455,0.9582,0.1309,0.1932,-0.0661,-0.0788,0.3366,0.0213,-0.5928,
8.066536,0.2455,0.9582,0.1309,0.1932,-0.0661,-0.0788,0.0469,0.0431,-0.6285,
8.086302,0.1673,0.8365,0.1197,0.1932,-0.0661,-0.0788,0.0469,0.0431,-0.6285,
8.089142,0.1673,0.8365,0.1197,-0.3504,-1.3168,-0.1235,0.0469,0.0431,-0.6285,
8.090968,0.1673,0.8365,0.1197,-0.3504,-1.3168,-0.1235,-0.1566,-0.0405,-0.5694,
8.106768,0.1673,0.8365,0.1197,-0.3504,-1.3168,-0.1235,-0.0815,0.0000,-0.4783,
8.126528,0.1239,1.0642,0.1395,-0.3504,-1.3168,-0.1235,-0.0815,0.0000,-0.4783,
8.131136,0.1239,1.0642,0.1395,-0.5782,0.8813,0.0266,-0.0815,0.0000,-0.4783,
8.133103,0.1239,1.0642,0.1395,-0.5782,0.8813,0.0266,0.1049,0.2908,-0.4485,
8.146136,0.1239,1.0642,0.1395,-0.5782,0.8813,0.0266,0.2668,0.7100,-0.2083,
8.166681,0.0809,1.2975,0.2467,-0.5782,0.8813,0.0266,0.2668,0.7100,-0.2083,
8.168988,0.0809,1.2975,0.2467,-0.8477,3.1353,1.1149,0.2668,0.7100,-0.2083,
8.170700,0.0809,1.2975,0.2467,-0.8477,3.1353,1.1149,0.2940,0.7302,0.1752,
8.186202,0.0809,1.2975,0.2467,-0.8477,3.1353,1.1149,0.3222,0.2344,0.4362,
8.206007,0.2873,0.9880,0.3235,-0.8477,3.1353,1.1149,0.3222,0.2344,0.4362,
8.207952,0.2873,0.9880,0.3235,1.0829,0.1068,1.9527,0.3222,0.2344,0.4362,
8.209557,0.2873,0.9880,0.3235,1.0829,0.1068,1.9527,0.3936,-0.0011,0.5225,
8.227091,0.2873,0.9880,0.3235,1.0829,0.1068,1.9527,0.6109,-0.1214,0.4139,
8.246634,0.1165,0.9667,0.1764,1.0829,0.1068,1.9527,0.6109,-0.1214,0.4139,
8.248622,0.1165,0.9667,0.1764,-0.7661,-0.0893,0.6912,0.6109,-0.1214,0.4139,
8.250338,0.1165,0.9667,0.1764,-0.7661,-0.0893,0.6912,0.8203,-0.0629,0.3830,
8.266079,0.1165,0.9667,0.1764,-0.7661,-0.0893,0.6912,0.8336,0.0399,0.3489,
8.286338,0.0723,1.1421,0.0171,-0.7661,-0.0893,0.6912,0.8336,0.0399,0.3489,
8.289337,0.0723,1.1421,0.0171,-1.3356,1.6290,-0.5552,0.8336,0.0399,0.3489,
8.291228,0.0723,1.1421,0.0171,-1.3356,1.6290,-0.5552,0.6429,-0.0309,0.3654,
8.306360,0.0723,1.1421,0.0171,-1.3356,1.6290,-0.5552,0.4123,-0.0905,0.5342,
8.325635,0.2228,0.9648,0.0252,-1.3356,1.6290,-0.5552,0.4123,-0.0905,0.5342,
8.328249,0.2228,0.9648,0.0252,-0.0194,-0.0870,-0.2761,0.4123,-0.0905,0.5342,
8.329960,0.2228,0.9648,0.0252,-0.0194,-0.0870,-0.2761,0.1523,-0.1486,0.5433,
8.345410,0.2228,0.9648,0.0252,-0.0194,-0.0870,-0.2761,0.1060,0.0165,0.5726,
8.365377,0.2284,1.2738,0.0423,-0.0194,-0.0870,-0.2761,0.1060,0.0165,0.5726,
8.366471,0.2284,1.2738,0.0423,-0.1778,2.9906,-0.0535,0.1060,0.0165,0.5726,
8.367197,0.2284,1.2738,0.0423,-0.1778,2.9906,-0.0535,0.1071,0.2104,0.6072,
8.385943,0.2284,1.2738,0.0423,-0.1778,2.9906,-0.0535,-0.1880,-0.0096,0.6099,
8.405830,0.4058,1.0210,0.0017,-0.1778,2.9906,-0.0535,-0.1880,-0.0096,0.6099,
8.407590,0.4058,1.0210,0.0017,1.3322,0.5749,-0.4761,-0.1880,-0.0096,0.6099,
8.408063,0.4058,1.0210,0.0017,1.3322,0.5749,-0.4761,-0.7430,-0.2205,0.5758,
8.426876,0.4058,1.0210,0.0017,1.3322,0.5749,-0.4761,-1.2751,-0.2541,0.4277,
8.445986,0.4498,0.8350,0.0716,1.3322,0.5749,-0.4761,-1.2751,-0.2541,0.4277,
8.448099,0.4498,0.8350,0.0716,1.5566,-1.1623,-0.1355,-1.2751,-0.2541,0.4277,
8.449942,0.4498,0.8350,0.0716,1.5566,-1.1623,-0.1355,-1.5990,-0.4655,0.2386,
8.466817,0.4498,0.8350,0.0716,1.5566,-1.1623,-0.1355,-1.6378,-1.0647,0.1007,
8.486602,0.3679,0.8348,0.1422,1.5566,-1.1623,-0.1355,-1.6378,-1.0647,0.1007,
8.489013,0.3679,0.8348,0.1422,0.6337,-1.0688,0.0597,-1.6378,-1.0647,0.1007,
8.490676,0.3679,0.8348,0.1422,0.6337,-1.0688,0.0597,-1.5856,-1.4749,-0.0101,
8.506408,0.3679,0.8348,0.1422,0.6337,-1.0688,0.0597,-1.5063,-1.3625,-0.0724,
8.526485,0.3279,0.6655,0.1287,0.6337,-1.0688,0.0597,-1.5063,-1.3625,-0.0724,
8.530611,0.3279,0.6655,0.1287,0.1694,-2.6383,-0.4699,-1.5063,-1.3625,-0.0724,
8.532617,0.3279,0.6655,0.1287,0.1694,-2.6383,-0.4699,-1.2448,-0.8389,-0.1822,
8.545772,0.3279,0.6655,0.1287,0.1694,-2.6383,-0.4699,-0.9630,-0.5273,-0.2338,
8.565849,0.2331,0.6924,0.1253,0.1694,-2.6383,-0.4699,-0.9630,-0.5273,-0.2338,
8.568031,0.2331,0.6924,0.1253,-0.7351,-2.3169,-0.8232,-0.9630,-0.5273,-0.2338,
8.570024,0.2331,0.6924,0.1253,-0.7351,-2.3169,-0.8232,-0.7617,-0.3659,-0.0794,
8.585450,0.2331,0.6924,0.1253,-0.7351,-2.3169,-0.8232,-0.6498,-0.1832,-0.1736,
8.605871,0.1779,0.7280,0.2384,-0.7351,-2.3169,-0.8232,-0.6498,-0.1832,-0.1736,
8.608173,0.1779,0.7280,0.2384,-1.2539,-1.9216,0.0625,-0.6498,-0.1832,-0.1736,
8.609998,0.1779,0.7280,0.2384,-1.2539,-1.9216,0.0625,-0.4229,0.0884,-0.3675,
8.625736,0.1779,0.7280,0.2384,-1.2539,-1.9216,0.0625,0.0059,0.4208,-0.3462,
8.644619,0.1476,0.6670,0.1891,-1.2539,-1.9216,0.0625,0.0059,0.4208,-0.3462,
8.645398,0.1476,0.6670,0.1891,-1.3976,-2.5425,-0.5261,0.0059,0.4208,-0.3462,
8.645974,0.1476,0.6670,0.1891,-1.3976,-2.5425,-0.5261,0.4117,0.5364,-0.2828,
8.665314,0.1476,0.6670,0.1891,-1.3976,-2.5425,-0.5261,0.6381,0.5923,-0.2242,
8.685007,0.2248,0.7666,0.0987,-1.3976,-2.5425,-0.5261,0.6381,0.5923,-0.2242,
8.686400,0.2248,0.7666,0.0987,-0.4964,-1.6424,-1.2832,0.6381,0.5923,-0.2242,
8.687518,0.2248,0.7666,0.0987,-0.4964,-1.6424,-1.2832,0.7862,0.6109,-0.1923,
8.704662,0.2248,0.7666,0.0987,-0.4964,-1.6424,-1.2832,0.8165,0.3840,-0.0463,
8.724790,0.3086,1.0598,0.0821,-0.4964,-1.6424,-1.2832,0.8165,0.3840,-0.0463,
8.727500,0.3086,1.0598,0.0821,0.4106,1.1487,-1.1989,0.8165,0.3840,-0.0463,
8.729588,0.3086,1.0598,0.0821,0.4106,1.1487,-1.1989,0.4953,0.0149,0.1326,
8.745696,0.3086,1.0598,0.0821,0.4106,1.1487,-1.1989,0.1619,0.1033,0.1507,
8.765312,0.5045,1.0359,0.2336,0.4106,1.1487,-1.1989,0.1619,0.1033,0.1507,
8.768010,0.5045,1.0359,0.2336,2.2582,0.9089,0.4092,0.1619,0.1033,0.1507,
8.770045,0.5045,1.0359,0.2336,2.2582,0.9089,0.4092,0.1411,0.4389,-0.0655,
8.785483,0.5045,1.0359,0.2336,2.2582,0.9089,0.4092,0.3521,0.4895,-0.2951,
8.805608,0.3340,0.9262,0.2690,2.2582,0.9089,0.4092,0.3521,0.4895,-0.2951,
8.808064,0.3340,0.9262,0.2690,0.6636,-0.1952,0.7924,0.3521,0.4895,-0.2951,
8.809971,0.3340,0.9262,0.2690,0.6636,-0.1952,0.7924,0.7361,0.4091,-0.3883,
8.830121,0.3340,0.9262,0.2690,0.6636,-0.1952,0.7924,1.0930,0.3526,-0.5183,
8.844849,0.2494,1.0407,0.1217,0.6636,-0.1952,0.7924,1.0930,0.3526,-0.5183,
8.847379,0.2494,1.0407,0.1217,0.0191,0.8235,-0.3509,1.0930,0.3526,-0.5183,
8.848742,0.2494,1.0407,0.1217,0.0191,0.8235,-0.3509,1.1574,0.1854,-0.6754,
8.864634,0.2494,1.0407,0.1217,0.0191,0.8235,-0.3509,0.9428,-0.0293,-0.7356,
8.885693,0.2296,1.0246,0.0611,0.0191,0.8235,-0.3509,0.9428,-0.0293,-0.7356,
8.889041,0.2296,1.0246,0.0611,0.0863,0.5464,-0.5567,0.9428,-0.0293,-0.7356,
8.890530,0.2296,1.0246,0.0611,0.0863,0.5464,-0.5567,0.7180,-0.0874,-0.7127,
8.904754,0.2296,1.0246,0.0611,0.0863,0.5464,-0.5567,0.4581,-0.0644,-0.6882,
8.925853,0.2174,1.0925,-0.0359,0.0863,0.5464,-0.5567,0.4581,-0.0644,-0.6882,
8.927933,0.2174,1.0925,-0.0359,0.2257,1.1312,-1.2721,0.4581,-0.0644,-0.6882,
8.929660,0.2174,1.0925,-0.0359,0.2257,1.1312,-1.2721,0.0501,0.0660,-0.6930,
8.945023,0.2174,1.0925,-0.0359,0.2257,1.1312,-1.2721,-0.2248,0.2067,-0.6882,
8.965146,0.0552,1.1241,0.0938,0.2257,1.1312,-1.2721,-0.2248,0.2067,-0.6882,
8.967845,0.0552,1.1241,0.0938,-1.0936,1.3942,-0.0425,-0.2248,0.2067,-0.6882,
8.969819,0.0552,1.1241,0.0938,-1.0936,1.3942,-0.0425,-0.2610,0.3340,-0.5454,
8.985733,0.0552,1.1241,0.0938,-1.0936,1.3942,-0.0425,-0.0794,0.5593,-0.1374,
9.004916,0.0977,1.1258,0.2331,-1.0936,1.3942,-0.0425,-0.0794,0.5593,-0.1374,
9.007693,0.0977,1.1258,0.2331,-0.5275,1.3965,1.2294,-0.0794,0.5593,-0.1374,
9.009528,0.0977,1.1258,0.2331,-0.5275,1.3965,1.2294,0.2578,0.7249,0.2929,
9.026581,0.0977,1.1258,0.2331,-0.5275,1.3965,1.2294,0.1779,0.3041,0.4080,
9.045774,0.2108,0.7749,0.2844,-0.5275,1.3965,1.2294,0.1779,0.3041,0.4080,
9.047806,0.2108,0.7749,0.2844,0.4647,-2.0246,1.7471,0.1779,0.3041,0.4080,
9.049539,0.2108,0.7749,0.2844,0.4647,-2.0246,1.7471,0.0629,-0.1150,0.3537,
9.064772,0.2108,0.7749,0.2844,0.4647,-2.0246,1.7471,0.2216,-0.0463,0.3627,
9.084687,0.0660,1.0298,0.1405,0.4647,-2.0246,1.7471,0.2216,-0.0463,0.3627,
9.086951,0.0660,1.0298,0.1405,-1.0771,0.4901,0.3711,0.2216,-0.0463,0.3627,
9.088576,0.0660,1.0298,0.1405,-1.0771,0.4901,0.3711,0.4767,0.0085,0.4330,
9.104548,0.0660,1.0298,0.1405,-1.0771,0.4901,0.3711,0.6301,0.0170,0.5875,
9.125002,0.0955,1.2000,0.0520,-1.0771,0.4901,0.3711,0.6301,0.0170,0.5875,
9.127413,0.0955,1.2000,0.0520,-0.9795,2.1755,-0.2855,0.6301,0.0170,0.5875,
9.129300,0.0955,1.2000,0.0520,-0.9795,2.1755,-0.2855,0.5971,-0.1182,0.7792,
9.144948,0.0955,1.2000,0.0520,-0.9795,2.1755,-0.2855,0.4107,-0.3505,0.8533,
9.164962,0.2414,1.1504,0.0479,-0.9795,2.1755,-0.2855,0.4107,-0.3505,0.8533,
9.167235,0.2414,1.1504,0.0479,0.1319,1.7432,-0.1139,0.4107,-0.3505,0.8533,
9.168956,0.2414,1.1504,0.0479,0.1319,1.7432,-0.1139,0.2168,-0.3004,0.8000,
9.184517,0.2414,1.1504,0.0479,0.1319,1.7432,-0.1139,0.0314,-0.2131,0.6594,
9.204687,0.3371,1.0598,0.0643,0.1319,1.7432,-0.1139,0.0314,-0.2131,0.6594,
9.206686,0.3371,1.0598,0.0643,0.7881,0.9215,0.1179,0.0314,-0.2131,0.6594,
9.208150,0.3371,1.0598,0.0643,0.7881,0.9215,0.1179,-0.0559,-0.0421,0.5539,
9.227127,0.3371,1.0598,0.0643,0.7881,0.9215,0.1179,-0.1262,0.0032,0.5518,
9.244945,0.3677,1.0789,0.0244,0.7881,0.9215,0.1179,-0.1262,0.0032,0.5518,
9.246977,0.3677,1.0789,0.0244,0.8785,1.1680,-0.3047,-0.1262,0.0032,0.5518,
9.248666,0.3677,1.0789,0.0244,0.8785,1.1680,-0.3047,-0.4394,-0.0543,0.5433,
9.265046,0.3677,1.0789,0.0244,0.8785,1.1680,-0.3047,-0.8623,-0.1060,0.3952,
9.284707,0.4124,0.7166,0.0017,0.8785,1.1680,-0.3047,-0.8623,-0.1060,0.3952,
9.286911,0.4124,0.7166,0.0017,1.1203,-2.3082,-0.7455,-0.8623,-0.1060,0.3952,
9.288759,0.4124,0.7166,0.0017,1.1203,-2.3082,-0.7455,-1.2277,-0.2871,0.1470,
9.304691,0.4124,0.7166,0.0017,1.1203,-2.3082,-0.7455,-1.3763,-0.5992,0.0495,
9.324670,0.2531,0.9819,0.0354,1.1203,-2.3082,-0.7455,-1.3763,-0.5992,0.0495,
9.327003,0.2531,0.9819,0.0354,-0.4967,0.3507,-0.8128,-1.3763,-0.5992,0.0495,
9.328789,0.2531,0.9819,0.0354,-0.4967,0.3507,-0.8128,-1.3832,-1.0514,0.0581,
9.344559,0.2531,0.9819,0.0354,-0.4967,0.3507,-0.8128,-1.5414,-1.4530,-0.0202,
9.364473,0.3369,0.7444,0.0889,-0.4967,0.3507,-0.8128,-1.5414,-1.4530,-0.0202,
9.367927,0.3369,0.7444,0.0889,0.2460,-1.8950,-0.6695,-1.5414,-1.4530,-0.0202,
9.369924,0.3369,0.7444,0.0889,0.2460,-1.8950,-0.6695,-1.3667,-0.9934,0.0224,
9.384106,0.3369,0.7444,0.0889,0.2460,-1.8950,-0.6695,-1.1457,-0.5188,-0.0602,
9.404741,0.2724,0.6447,0.1686,0.2460,-1.8950,-0.6695,-1.1457,-0.5188,-0.0602,
9.407041,0.2724,0.6447,0.1686,-0.4305,-2.7879,-0.2550,-1.1457,-0.5188,-0.0602,
9.409024,0.2724,0.6447,0.1686,-0.4305,-2.7879,-0.2550,-1.0658,-0.3292,-0.0762,
9.426780,0.2724,0.6447,0.1686,-0.4305,-2.7879,-0.2550,-0.8368,-0.1539,-0.0378,
9.444862,0.2289,0.7747,0.2504,-0.4305,-2.7879,-0.2550,-0.8368,-0.1539,-0.0378,
9.447340,0.2289,0.7747,0.2504,-0.8557,-1.4429,0.2323,-0.8368,-0.1539,-0.0378,
9.449257,0.2289,0.7747,0.2504,-0.8557,-1.4429,0.2323,-0.5662,0.0245,-0.1641,
9.464830,0.2289,0.7747,0.2504,-0.8557,-1.4429,0.2323,-0.2067,0.1752,-0.1965,
9.484359,0.1972,0.6015,0.1717,-0.8557,-1.4429,0.2323,-0.2067,0.1752,-0.1965,
9.486574,0.1972,0.6015,0.1717,-1.0926,-3.1271,-0.6901,-0.2067,0.1752,-0.1965,
9.488621,0.1972,0.6015,0.1717,-1.0926,-3.1271,-0.6901,0.1060,0.2977,-0.1912,
9.504266,0.1972,0.6015,0.1717,-1.0926,-3.1271,-0.6901,0.3297,0.3888,-0.2237,
9.523913,0.1757,0.6181,0.0906,-1.0926,-3.1271,-0.6901,0.3297,0.3888,-0.2237,
9.526365,0.1757,0.6181,0.0906,-1.1960,-3.0094,-1.4470,0.3297,0.3888,-0.2237,
9.528331,0.1757,0.6181,0.0906,-1.1960,-3.0094,-1.4470,0.5790,0.3441,-0.1992,
9.544435,0.1757,0.6181,0.0906,-1.1960,-3.0094,-1.4470,0.7334,0.1582,-0.0399,
9.563978,0.2274,0.8531,0.0320,-1.1960,-3.0094,-1.4470,0.7334,0.1582,-0.0399,
9.566183,0.2274,0.8531,0.0320,-0.6223,-0.7785,-1.8118,0.7334,0.1582,-0.0399,
9.568119,0.2274,0.8531,0.0320,-0.6223,-0.7785,-1.8118,0.5715,-0.0618,0.1172,
9.584345,0.2274,0.8531,0.0320,-0.6223,-0.7785,-1.8118,0.2407,-0.0511,0.1545,
9.604854,0.3630,0.9933,0.1302,-0.6223,-0.7785,-1.8118,0.2407,-0.0511,0.1545,
9.607735,0.3630,0.9933,0.1302,0.6520,0.5780,-0.6936,0.2407,-0.0511,0.1545,
9.609556,0.3630,0.9933,0.1302,0.6520,0.5780,-0.6936,0.2727,0.3409,0.1305,
9.625484,0.3630,0.9933,0.1302,0.6520,0.5780,-0.6936,0.5454,0.5087,0.0218,
9.644573,0.4070,1.1771,0.1544,0.6520,0.5780,-0.6936,0.5454,0.5087,0.0218,
9.646808,0.4070,1.1771,0.1544,1.0837,2.3546,-0.3436,0.5454,0.5087,0.0218,
9.648532,0.4070,1.1771,0.1544,1.0837,2.3546,-0.3436,0.6519,0.3910,-0.1060,
9.663879,0.4070,1.1771,0.1544,1.0837,2.3546,-0.3436,0.6280,0.3089,-0.2178,
9.684087,0.4244,1.2279,0.1823,1.0837,2.3546,-0.3436,0.6280,0.3089,-0.2178,
9.688018,0.4244,1.2279,0.1823,1.3380,2.7891,0.1247,0.6280,0.3089,-0.2178,
9.689785,0.4244,1.2279,0.1823,1.3380,2.7891,0.1247,0.4799,0.1523,-0.3510,
9.703985,0.4244,1.2279,0.1823,1.3380,2.7891,0.1247,0.2898,-0.0154,-0.5108,
9.724496,0.2981,1.1473,0.2382,1.3380,2.7891,0.1247,0.2898,-0.0154,-0.5108,
9.726703,0.2981,1.1473,0.2382,0.2645,1.9274,0.8079,0.2898,-0.0154,-0.5108,
9.727842,0.2981,1.1473,0.2382,0.2645,1.9274,0.8079,0.2418,0.0719,-0.5992,
9.743608,0.2981,1.1473,0.2382,0.2645,1.9274,0.8079,0.3265,0.3015,-0.6855,
9.764144,0.1791,0.9296,0.1835,0.2645,1.9274,0.8079,0.3265,0.3015,-0.6855,
9.766217,0.1791,0.9296,0.1835,-0.6508,-0.2874,0.3582,0.3265,0.3015,-0.6855,
9.768044,0.1791,0.9296,0.1835,-0.6508,-0.2874,0.3582,0.4064,0.3153,-0.7446,
9.783819,0.1791,0.9296,0.1835,-0.6508,-0.2874,0.3582,0.4261,0.2967,-0.7494,
9.803820,0.0330,0.9330,0.0931,-0.6508,-0.2874,0.3582,0.4261,0.2967,-0.7494,
9.806653,0.0330,0.9330,0.0931,-1.7680,-0.3471,-0.4017,0.4261,0.2967,-0.7494,
9.808607,0.0330,0.9330,0.0931,-1.7680,-0.3471,-0.4017,0.4804,0.4756,-0.6685,
9.826315,0.0330,0.9330,0.0931,-1.7680,-0.3471,-0.4017,0.5214,0.6583,-0.2221,
9.844136,-0.0086,1.0393,0.1004,-1.7680,-0.3471,-0.4017,0.5214,0.6583,-0.2221,
9.847220,-0.0086,1.0393,0.1004,-1.9473,0.6282,-0.1853,0.5214,0.6583,-0.2221,
9.849163,-0.0086,1.0393,0.1004,-1.9473,0.6282,-0.1853,0.3547,0.7292,0.3031,
9.863469,-0.0086,1.0393,0.1004,-1.9473,0.6282,-0.1853,0.0314,0.2482,0.4938,
9.884080,0.2402,1.0613,0.2551,-1.9473,0.6282,-0.1853,0.0314,0.2482,0.4938,
9.887168,0.2402,1.0613,0.2551,0.3691,0.8647,1.3580,0.0314,0.2482,0.4938,
9.889013,0.2402,1.0613,0.2551,0.3691,0.8647,1.3580,-0.1150,-0.0820,0.5076,
9.904042,0.2402,1.0613,0.2551,0.3691,0.8647,1.3580,0.1214,0.0298,0.4804,
9.923616,0.1713,1.0158,0.2384,0.3691,0.8647,1.3580,0.1214,0.0298,0.4804,
9.925953,0.1713,1.0158,0.2384,-0.4840,0.4593,1.1854,0.1214,0.0298,0.4804,
9.927439,0.1713,1.0158,0.2384,-0.4840,0.4593,1.1854,0.4437,0.0325,0.4272,
9.944658,0.1713,1.0158,0.2384,-0.4840,0.4593,1.1854,0.5720,0.1065,0.4911,
9.964578,0.0660,1.1761,0.0975,-0.4840,0.4593,1.1854,0.5720,0.1065,0.4911,
9.966689,0.0660,1.1761,0.0975,-1.6870,2.0497,-0.0099,0.5720,0.1065,0.4911,
9.968590,0.0660,1.1761,0.0975,-1.6870,2.0497,-0.0099,0.3723,-0.0538,0.6280,
9.983443,0.0660,1.1761,0.0975,-1.6870,2.0497,-0.0099,0.0474,-0.1720,0.7707,
10.003643,0.2602,1.1570,0.1253,-1.6870,2.0497,-0.0099,0.0474,-0.1720,0.7707,
10.006183,0.2602,1.1570,0.1253,-0.0516,1.9242,0.3536,0.0474,-0.1720,0.7707,
10.007771,0.2602,1.1570,0.1253,-0.0516,1.9242,0.3536,-0.1912,-0.0634,0.8405,
10.025289,0.2602,1.1570,0.1253,-0.0516,1.9242,0.3536,-0.3920,-0.0740,0.8016,
10.043177,0.3672,1.0280,0.1471,-0.0516,1.9242,0.3536,-0.3920,-0.0740,0.8016,
10.045386,0.3672,1.0280,0.1471,0.6874,0.7612,0.4652,-0.3920,-0.0740,0.8016,
10.046705,0.3672,1.0280,0.1471,0.6874,0.7612,0.4652,-0.6621,-0.1113,0.7686,
10.064024,0.3672,1.0280,0.1471,0.6874,0.7612,0.4652,-1.0243,-0.1742,0.7063,
10.083118,0.4862,0.9403,0.1793,0.6874,0.7612,0.4652,-1.0243,-0.1742,0.7063,
10.085566,0.4862,0.9403,0.1793,1.5743,0.0294,0.4870,-1.0243,-0.1742,0.7063,
10.087084,0.4862,0.9403,0.1793,1.5743,0.0294,0.4870,-1.2362,-0.1779,0.5811,
10.103348,0.4862,0.9403,0.1793,1.5743,0.0294,0.4870,-1.1654,-0.0868,0.3419,
10.124034,0.4691,0.8964,0.1434,1.5743,0.0294,0.4870,-1.1654,-0.0868,0.3419,
10.125924,0.4691,0.8964,0.1434,1.2245,-0.2686,-0.2805,-1.1654,-0.0868,0.3419,
10.127735,0.4691,0.8964,0.1434,1.2245,-0.2686,-0.2805,-1.2080,-0.5316,0.0245,
10.143706,0.4691,0.8964,0.1434,1.2245,-0.2686,-0.2805,-1.5611,-1.4594,-0.2583,
10.163151,0.3178,0.5448,0.2223,1.2245,-0.2686,-0.2805,-1.5611,-1.4594,-0.2583,
10.166135,0.3178,0.5448,0.2223,-0.2915,-3.6259,0.1301,-1.5611,-1.4594,-0.2583,
10.167888,0.3178,0.5448,0.2223,-0.2915,-3.6259,0.1301,-1.6794,-1.4477,-0.3244,
10.183007,0.3178,0.5448,0.2223,-0.2915,-3.6259,0.1301,-1.1334,-0.5987,-0.1662,
10.203169,0.2582,0.8348,0.1578,-0.2915,-3.6259,0.1301,-1.1334,-0.5987,-0.1662,
10.205828,0.2582,0.8348,0.1578,-0.8783,-0.6925,-0.8639,-1.1334,-0.5987,-0.1662,
10.207662,0.2582,0.8348,0.1578,-0.8783,-0.6925,-0.8639,-0.6354,-0.2232,-0.1220,
10.227774,0.2582,0.8348,0.1578,-0.8783,-0.6925,-0.8639,-0.4607,-0.1443,-0.1364,
10.243323,0.2533,0.6953,0.2001,-0.8783,-0.6925,-0.8639,-0.4607,-0.1443,-0.1364,
10.245829,0.2533,0.6953,0.2001,-0.8988,-2.0225,-0.6187,-0.4607,-0.1443,-0.1364,
10.247759,0.2533,0.6953,0.2001,-0.8988,-2.0225,-0.6187,-0.4208,0.0687,-0.1539,
10.263794,0.2533,0.6953,0.2001,-0.8988,-2.0225,-0.6187,-0.1699,0.0666,-0.1736,
10.283217,0.2533,0.7063,0.2272,-0.8988,-2.0225,-0.6187,-0.1699,0.0666,-0.1736,
10.286122,0.2533,0.7063,0.2272,-0.8339,-1.9055,-0.4662,-0.1699,0.0666,-0.1736,
10.287967,0.2533,0.7063,0.2272,-0.8339,-1.9055,-0.4662,0.1071,0.1891,-0.1800,
10.302975,0.2533,0.7063,0.2272,-0.8339,-1.9055,-0.4662,0.3531,0.3095,-0.2067,
10.323573,0.2800,0.6775,0.1502,-0.8339,-1.9055,-0.4662,0.3531,0.3095,-0.2067,
10.326898,0.2800,0.6775,0.1502,-0.4780,-2.2378,-1.1715,0.3531,0.3095,-0.2067,
10.329011,0.2800,0.6775,0.1502,-0.4780,-2.2378,-1.1715,0.5444,0.3840,-0.2322,
10.343225,0.2800,0.6775,0.1502,-0.4780,-2.2378,-1.1715,0.6381,0.4410,-0.2317,
10.363689,0.2458,0.7490,0.0945,-0.4780,-2.2378,-1.1715,0.6381,0.4410,-0.2317,
10.366103,0.2458,0.7490,0.0945,-0.6882,-1.6262,-1.5587,0.6381,0.4410,-0.2317,
10.368025,0.2458,0.7490,0.0945,-0.6882,-1.6262,-1.5587,0.6040,0.4607,-0.2280,
10.383238,0.2458,0.7490,0.0945,-0.6882,-1.6262,-1.5587,0.4842,0.3957,-0.1411,
10.403646,0.2174,0.9740,0.1515,-0.6882,-1.6262,-1.5587,0.4842,0.3957,-0.1411,
10.406230,0.2174,0.9740,0.1515,-0.8582,0.5039,-0.8570,0.4842,0.3957,-0.1411,
10.407992,0.2174,0.9740,0.1515,-0.8582,0.5039,-0.8570,0.3776,0.3015,0.0149,
10.423031,0.2174,0.9740,0.1515,-0.8582,0.5039,-0.8570,0.2312,0.3340,0.0794,
10.443471,0.3745,1.0664,0.2800,-0.8582,0.5039,-0.8570,0.2312,0.3340,0.0794,
10.445800,0.3745,1.0664,0.2800,0.6946,1.3839,0.4835,0.2312,0.3340,0.0794,
10.447252,0.3745,1.0664,0.2800,0.6946,1.3839,0.4835,0.1193,0.3643,0.0170,
10.463120,0.3745,1.0664,0.2800,0.6946,1.3839,0.4835,0.2802,0.3196,-0.1230,
10.483497,0.4009,1.0764,0.3608,0.6946,1.3839,0.4835,0.2802,0.3196,-0.1230,
10.485521,0.4009,1.0764,0.3608,1.0023,1.4584,1.3069,0.2802,0.3196,-0.1230,
10.487081,0.4009,1.0764,0.3608,1.0023,1.4584,1.3069,0.6088,0.2498,-0.2855,
10.502920,0.4009,1.0764,0.3608,1.0023,1.4584,1.3069,0.7760,0.2764,-0.4330,
10.522230,0.3501,1.1219,0.2492,1.0023,1.4584,1.3069,0.7760,0.2764,-0.4330,
10.523855,0.3501,1.1219,0.2492,0.6579,1.8042,0.4356,0.7760,0.2764,-0.4330,
10.524846,0.3501,1.1219,0.2492,0.6579,1.8042,0.4356,0.7510,0.2700,-0.5135,
10.542754,0.3501,1.1219,0.2492,0.6579,1.8042,0.4356,0.6413,0.2226,-0.6669,
10.563597,0.2321,1.0877,0.1805,0.6579,1.8042,0.4356,0.6413,0.2226,-0.6669,
10.565589,0.2321,1.0877,0.1805,-0.2620,1.3540,-0.0065,0.6413,0.2226,-0.6669,
10.567427,0.2321,1.0877,0.1805,-0.2620,1.3540,-0.0065,0.4453,0.1763,-0.7675,
10.583103,0.2321,1.0877,0.1805,-0.2620,1.3540,-0.0065,0.2706,0.0959,-0.6882,
10.602829,0.0804,0.9328,0.1920,-0.2620,1.3540,-0.0065,0.2706,0.0959,-0.6882,
10.605125,0.0804,0.9328,0.1920,-1.4605,-0.2587,0.2201,0.2706,0.0959,-0.6882,
10.606861,0.0804,0.9328,0.1920,-1.4605,-0.2587,0.2201,0.2067,0.0224,-0.4149,
10.622407,0.0804,0.9328,0.1920,-1.4605,-0.2587,0.2201,0.1401,0.1332,-0.0831,
10.643704,0.1681,0.8582,0.1757,-1.4605,-0.2587,0.2201,0.1401,0.1332,-0.0831,
10.645847,0.1681,0.8582,0.1757,-0.4936,-1.0221,0.1065,0.1401,0.1332,-0.0831,
10.647599,0.1681,0.8582,0.1757,-0.4936,-1.0221,0.1065,0.1044,0.3515,0.1933,
10.662378,0.1681,0.8582,0.1757,-0.4936,-1.0221,0.1065,0.2301,0.2631,0.2360,
10.682774,0.1739,1.0549,0.2001,-0.4936,-1.0221,0.1065,0.2301,0.2631,0.2360,
10.685123,0.1739,1.0549,0.2001,-0.4839,0.9116,0.3732,0.2301,0.2631,0.2360,
10.686825,0.1739,1.0549,0.2001,-0.4839,0.9116,0.3732,0.4112,0.1896,0.2743,
10.703164,0.1739,1.0549,0.2001,-0.4839,0.9116,0.3732,0.4005,0.0341,0.3084,
10.722707,0.1556,1.0410,0.2248,-0.4839,0.9116,0.3732,0.4005,0.0341,0.3084,
10.725130,0.1556,1.0410,0.2248,-0.7519,0.7748,0.7470,0.4005,0.0341,0.3084,
10.726660,0.1556,1.0410,0.2248,-0.7519,0.7748,0.7470,0.4304,-0.1316,0.3047,
10.743283,0.1556,1.0410,0.2248,-0.7519,0.7748,0.7470,0.5470,-0.0325,0.4053,
10.762638,0.0858,1.2340,0.1691,-0.7519,0.7748,0.7470,0.5470,-0.0325,0.4053,
10.765542,0.0858,1.2340,0.1691,-1.5748,2.6730,0.3927,0.5470,-0.0325,0.4053,
10.767346,0.0858,1.2340,0.1691,-1.5748,2.6730,0.3927,0.5145,0.0474,0.6157,
10.782523,0.0858,1.2340,0.1691,-1.5748,2.6730,0.3927,0.3665,-0.0756,0.7819,
10.802661,0.1620,1.3327,0.1774,-1.5748,2.6730,0.3927,0.3665,-0.0756,0.7819,
10.806057,0.1620,1.3327,0.1774,-1.0907,3.6905,0.6411,0.3665,-0.0756,0.7819,
10.808087,0.1620,1.3327,0.1774,-1.0907,3.6905,0.6411,0.2983,0.1342,1.0120,
10.822661,0.1620,1.3327,0.1774,-1.0907,3.6905,0.6411,0.0884,0.1411,1.0610,
10.842708,0.4136,1.0073,0.1334,-1.0907,3.6905,0.6411,0.0884,0.1411,1.0610,
10.845166,0.4136,1.0073,0.1334,0.9954,0.6119,0.2665,0.0884,0.1411,1.0610,
10.846748,0.4136,1.0073,0.1334,0.9954,0.6119,0.2665,-0.3302,0.0431,1.0365,
10.863049,0.4136,1.0073,0.1334,0.9954,0.6119,0.2665,-0.7553,-0.0224,0.9119,
10.882602,0.4999,0.8338,0.1847,0.9954,0.6119,0.2665,-0.7553,-0.0224,0.9119,
10.884608,0.4999,0.8338,0.1847,1.4843,-0.9371,0.5658,-0.7553,-0.0224,0.9119,
10.886225,0.4999,0.8338,0.1847,1.4843,-0.9371,0.5658,-0.9747,-0.1518,0.7814,
10.901798,0.4999,0.8338,0.1847,1.4843,-0.9371,0.5658,-1.0365,-0.3206,0.5518,
10.922167,0.4859,0.7669,0.1678,1.4843,-0.9371,0.5658,-1.0365,-0.3206,0.5518,
10.924775,0.4859,0.7669,0.1678,1.0783,-1.4352,0.0680,-1.0365,-0.3206,0.5518,
10.926642,0.4859,0.7669,0.1678,1.0783,-1.4352,0.0680,-1.0685,-0.6589,0.2876,
10.941881,0.4859,0.7669,0.1678,1.0783,-1.4352,0.0680,-1.1228,-1.0264,0.0442,
10.961758,0.3975,0.6364,0.1011,1.0783,-1.4352,0.0680,-1.1228,-1.0264,0.0442,
10.963929,0.3975,0.6364,0.1011,0.0943,-2.6140,-0.8485,-1.1228,-1.0264,0.0442,
10.966037,0.3975,0.6364,0.1011,0.0943,-2.6140,-0.8485,-1.2149,-1.0317,-0.1321,
10.981490,0.3975,0.6364,0.1011,0.0943,-2.6140,-0.8485,-1.0775,-0.3164,-0.1097,
11.001750,0.2783,0.7891,0.0811,0.0943,-2.6140,-0.8485,-1.0775,-0.3164,-0.1097,
11.005284,0.2783,0.7891,0.0811,-1.0838,-1.0454,-1.3459,-1.0775,-0.3164,-0.1097,
11.007531,0.2783,0.7891,0.0811,-1.0838,-1.0454,-1.3459,-0.8815,-0.0383,-0.1039,
11.022199,0.2783,0.7891,0.0811,-1.0838,-1.0454,-1.3459,-0.6850,0.0517,-0.2125,
11.042461,0.3271,0.7583,0.2128,-1.0838,-1.0454,-1.3459,-0.6850,0.0517,-0.2125,
11.045198,0.3271,0.7583,0.2128,-0.5490,-1.2998,-0.3303,-0.6850,0.0517,-0.2125,
11.047209,0.3271,0.7583,0.2128,-0.5490,-1.2998,-0.3303,-0.6365,0.2189,-0.2610,
11.062424,0.3271,0.7583,0.2128,-0.5490,-1.2998,-0.3303,-0.4432,0.4320,-0.2961,
11.082198,0.2641,0.6599,0.3379,-0.5490,-1.2998,-0.3303,-0.4432,0.4320,-0.2961,
11.084762,0.2641,0.6599,0.3379,-1.0363,-2.2512,0.6594,-0.4432,0.4320,-0.2961,
11.086500,0.2641,0.6599,0.3379,-1.0363,-2.2512,0.6594,-0.0618,0.5374,-0.3228,
11.102772,0.2641,0.6599,0.3379,-1.0363,-2.2512,0.6594,0.2189,0.5997,-0.3702,
11.122428,0.2927,0.6086,0.1720,-1.0363,-2.2512,0.6594,0.2189,0.5997,-0.3702,
11.126102,0.2927,0.6086,0.1720,-0.5740,-2.8114,-1.0190,0.2189,0.5997,-0.3702,
11.128129,0.2927,0.6086,0.1720,-0.5740,-2.8114,-1.0190,0.4000,0.6413,-0.4320,
11.141926,0.2927,0.6086,0.1720,-0.5740,-2.8114,-1.0190,0.5571,0.6386,-0.4410,
11.161965,0.2639,0.7251,0.0877,-0.5740,-2.8114,-1.0190,0.5571,0.6386,-0.4410,
11.165623,0.2639,0.7251,0.0877,-0.6343,-1.7784,-1.7613,0.5571,0.6386,-0.4410,
11.167461,0.2639,0.7251,0.0877,-0.6343,-1.7784,-1.7613,0.6067,0.5758,-0.4053,
11.182279,0.2639,0.7251,0.0877,-0.6343,-1.7784,-1.7613,0.5033,0.4964,-0.3665,
11.202239,0.2169,0.8634,0.1068,-0.6343,-1.7784,-1.7613,0.5033,0.4964,-0.3665,
11.204544,0.2169,0.8634,0.1068,-0.9015,-0.5281,-1.4433,0.5033,0.4964,-0.3665,
11.206800,0.2169,0.8634,0.1068,-0.9015,-0.5281,-1.4433,0.2844,0.4298,-0.2983,
11.222459,0.2169,0.8634,0.1068,-0.9015,-0.5281,-1.4433,0.1252,0.4362,-0.2067,
11.242549,0.3623,1.1482,0.2467,-0.9015,-0.5281,-1.4433,0.1252,0.4362,-0.2067,
11.245092,0.3623,1.1482,0.2467,0.6535,2.2076,-0.0237,0.1252,0.4362,-0.2067,
11.246727,0.3623,1.1482,0.2467,0.6535,2.2076,-0.0237,0.1039,0.4938,-0.1838,
11.262017,0.3623,1.1482,0.2467,0.6535,2.2076,-0.0237,0.0937,0.5747,-0.2807,
11.282377,0.3880,1.1776,0.4012,0.6535,2.2076,-0.0237,0.0937,0.5747,-0.2807,
11.284677,0.3880,1.1776,0.4012,1.0414,2.4590,1.4647,0.0937,0.5747,-0.2807,
11.286253,0.3880,1.1776,0.4012,1.0414,2.4590,1.4647,0.1715,0.3979,-0.3766,
11.301468,0.3880,1.1776,0.4012,1.0414,2.4590,1.4647,0.4101,0.1550,-0.4543,
11.322192,0.3127,1.0337,0.3958,1.0414,2.4590,1.4647,0.4101,0.1550,-0.4543,
11.324083,0.3127,1.0337,0.3958,0.4823,0.9762,1.4883,0.4101,0.1550,-0.4543,
11.325650,0.3127,1.0337,0.3958,0.4823,0.9762,1.4883,0.5854,0.0767,-0.5076,
11.341713,0.3127,1.0337,0.3958,0.4823,0.9762,1.4883,0.6003,0.2003,-0.6296,
11.361146,0.2538,0.9721,0.2812,0.4823,0.9762,1.4883,0.6003,0.2003,-0.6296,
11.362852,0.2538,0.9721,0.2812,0.1264,0.2631,0.5686,0.6003,0.2003,-0.6296,
11.364363,0.2538,0.9721,0.2812,0.1264,0.2631,0.5686,0.5177,0.2226,-0.7244,
11.381805,0.2538,0.9721,0.2812,0.1264,0.2631,0.5686,0.4879,0.1257,-0.7233,
11.403127,0.1033,0.9425,0.1742,0.1264,0.2631,0.5686,0.4879,0.1257,-0.7233,
11.405268,0.1033,0.9425,0.1742,-1.0629,-0.1312,-0.3181,0.4879,0.1257,-0.7233,
11.407208,0.1033,0.9425,0.1742,-1.0629,-0.1312,-0.3181,0.5822,0.1273,-0.5619,
11.424707,0.1033,0.9425,0.1742,-1.0629,-0.1312,-0.3181,0.6317,0.3973,-0.2589,
11.442762,0.0450,0.9740,0.0332,-1.0629,-0.1312,-0.3181,0.6317,0.3973,-0.2589,
11.445947,0.0450,0.9740,0.0332,-1.4406,0.0922,-1.4810,0.6317,0.3973,-0.2589,
11.447959,0.0450,0.9740,0.0332,-1.4406,0.0922,-1.4810,0.5012,0.5646,0.1150,
11.461497,0.0450,0.9740,0.0332,-1.4406,0.0922,-1.4810,0.2242,0.3728,0.3441,
11.481634,0.2035,1.0219,0.1910,-1.4406,0.0922,-1.4810,0.2242,0.3728,0.3441,
11.484835,0.2035,1.0219,0.1910,0.0691,0.5512,0.1691,0.2242,0.3728,0.3441,
11.486372,0.2035,1.0219,0.1910,0.0691,0.5512,0.1691,0.0213,-0.0240,0.3792,
11.501895,0.2035,1.0219,0.1910,0.0691,0.5512,0.1691,0.0597,-0.0527,0.4666,
11.522610,0.2636,1.2306,0.3007,0.0691,0.5512,0.1691,0.0597,-0.0527,0.4666,
11.524827,0.2636,1.2306,0.3007,0.4958,2.6270,1.2625,0.0597,-0.0527,0.4666,
11.526376,0.2636,1.2306,0.3007,0.4958,2.6270,1.2625,0.0346,0.0005,0.4591,
11.542594,0.2636,1.2306,0.3007,0.4958,2.6270,1.2625,0.0618,-0.1971,0.4144,
11.561584,0.1845,1.0632,0.2976,0.4958,2.6270,1.2625,0.0618,-0.1971,0.4144,
11.563691,0.1845,1.0632,0.2976,-0.4507,1.0216,1.2582,0.0618,-0.1971,0.4144,
11.565524,0.1845,1.0632,0.2976,-0.4507,1.0216,1.2582,0.0948,-0.3164,0.4160,
11.581697,0.1845,1.0632,0.2976,-0.4507,1.0216,1.2582,0.2786,-0.0831,0.4655,
11.601228,0.1446,0.9667,0.1910,-0.4507,1.0216,1.2582,0.2786,-0.0831,0.4655,
11.603864,0.1446,0.9667,0.1910,-1.0098,0.1039,0.2967,0.2786,-0.0831,0.4655,
11.605453,0.1446,0.9667,0.1910,-1.0098,0.1039,0.2967,0.3467,0.0485,0.5981,
11.621067,0.1446,0.9667,0.1910,-1.0098,0.1039,0.2967,0.0889,-0.1007,0.7036,
11.642324,0.2123,1.0637,0.0669,-1.0098,0.1039,0.2967,0.0889,-0.1007,0.7036,
11.644516,0.2123,1.0637,0.0669,-0.5818,1.1045,-0.8350,0.0889,-0.1007,0.7036,
11.646200,0.2123,1.0637,0.0669,-0.5818,1.1045,-0.8350,-0.3782,-0.1300,0.8501,
11.660990,0.2123,1.0637,0.0669,-0.5818,1.1045,-0.8350,-0.9332,-0.1598,0.9566,
11.681120,0.5617,0.7984,0.1026,-0.5818,1.1045,-0.8350,-0.9332,-0.1598,0.9566,
11.683759,0.5617,0.7984,0.1026,2.4848,-1.3494,-0.6967,-0.9332,-0.1598,0.9566,
11.685549,0.5617,0.7984,0.1026,2.4848,-1.3494,-0.6967,-1.5116,-0.4783,0.7718,
11.701339,0.5617,0.7984,0.1026,2.4848,-1.3494,-0.6967,-1.7923,-0.8618,0.4527,
11.721462,0.5084,0.9977,0.2555,2.4848,-1.3494,-0.6967,-1.7923,-0.8618,0.4527,
11.723682,0.5084,0.9977,0.2555,1.6801,0.8120,0.2956,-1.7923,-0.8618,0.4527,
11.725265,0.5084,0.9977,0.2555,1.6801,0.8120,0.2956,-1.7870,-0.9779,0.2322,
11.741359,0.5084,0.9977,0.2555,1.6801,0.8120,0.2956,-1.7433,-1.2799,0.1459,
11.761029,0.5006,0.8148,0.3237,1.6801,0.8120,0.2956,-1.7433,-1.2799,0.1459,
11.763824,0.5006,0.8148,0.3237,1.4044,-0.7773,0.5003,-1.7433,-1.2799,0.1459,
11.765506,0.5006,0.8148,0.3237,1.4044,-0.7773,0.5003,-1.3928,-1.2000,-0.0863,
11.780903,0.5006,0.8148,0.3237,1.4044,-0.7773,0.5003,-1.1425,-0.5113,-0.3329,
11.801433,0.2419,0.6467,0.3149,1.4044,-0.7773,0.5003,-1.1425,-0.5113,-0.3329,
11.803509,0.2419,0.6467,0.3149,-1.1560,-2.3104,0.0943,-1.1425,-0.5113,-0.3329,
11.805326,0.2419,0.6467,0.3149,-1.1560,-2.3104,0.0943,-0.7590,-0.2578,-0.2264,
11.821012,0.2419,0.6467,0.3149,-1.1560,-2.3104,0.0943,-0.5912,-0.0964,-0.1427,
11.841791,0.3012,0.6051,0.1928,-1.1560,-2.3104,0.0943,-0.5912,-0.0964,-0.1427,
11.843772,0.3012,0.6051,0.1928,-0.5324,-2.6598,-1.3104,-0.5912,-0.0964,-0.1427,
11.845737,0.3012,0.6051,0.1928,-0.5324,-2.6598,-1.3104,-0.5353,0.2248,-0.1374,
11.861460,0.3012,0.6051,0.1928,-0.5324,-2.6598,-1.3104,-0.2093,0.2929,-0.2232,
11.881409,0.1710,0.6120,0.1913,-0.5324,-2.6598,-1.3104,-0.2093,0.2929,-0.2232,
11.884584,0.1710,0.6120,0.1913,-1.7127,-2.5688,-1.4879,-0.2093,0.2929,-0.2232,
11.886609,0.1710,0.6120,0.1913,-1.7127,-2.5688,-1.4879,0.1784,0.4447,-0.3414,
11.901341,0.1710,0.6120,0.1913,-1.7127,-2.5688,-1.4879,0.4160,0.5811,-0.3563,
11.920970,0.1801,0.6242,0.1065,-1.7127,-2.5688,-1.4879,0.4160,0.5811,-0.3563,
11.923302,0.1801,0.6242,0.1065,-1.4355,-2.5348,-2.2839,0.4160,0.5811,-0.3563,
11.925293,0.1801,0.6242,0.1065,-1.4355,-2.5348,-2.2839,0.6493,0.5971,-0.3393,
11.940796,0.1801,0.6242,0.1065,-1.4355,-2.5348,-2.2839,0.7404,0.5875,-0.2871,
11.960504,0.2690,0.8839,0.1300,-1.4355,-2.5348,-2.2839,0.7404,0.5875,-0.2871,
11.963321,0.2690,0.8839,0.1300,-0.3781,-0.1187,-1.8856,0.7404,0.5875,-0.2871,
11.965706,0.2690,0.8839,0.1300,-0.3781,-0.1187,-1.8856,0.5577,0.4863,-0.1539,
11.981192,0.2690,0.8839,0.1300,-0.3781,-0.1187,-1.8856,0.2407,0.4352,-0.1081,
12.001157,0.4190,0.9115,0.3220,-0.3781,-0.1187,-1.8856,0.2407,0.4352,-0.1081,
12.005379,0.4190,0.9115,0.3220,1.1935,0.0866,0.0843,0.2407,0.4352,-0.1081,
12.007124,0.4190,0.9115,0.3220,1.1935,0.0866,0.0843,0.0746,0.5752,-0.1305,
12.026179,0.4190,0.9115,0.3220,1.1935,0.0866,0.0843,0.1838,0.6557,-0.1710,
12.040668,0.4395,1.0486,0.5275,1.1935,0.0866,0.0843,0.1838,0.6557,-0.1710,
12.042711,0.4395,1.0486,0.5275,1.5105,1.4024,2.0691,0.1838,0.6557,-0.1710,
12.044377,0.4395,1.0486,0.5275,1.5105,1.4024,2.0691,0.5087,0.4815,-0.2770,
12.061508,0.4395,1.0486,0.5275,1.5105,1.4024,2.0691,0.8261,0.5502,-0.2924,
12.081132,0.4012,1.1805,0.4256,1.5105,1.4024,2.0691,0.8261,0.5502,-0.2924,
12.083140,0.4012,1.1805,0.4256,1.2983,2.5841,1.2529,0.8261,0.5502,-0.2924,
12.084697,0.4012,1.1805,0.4256,1.2983,2.5841,1.2529,1.0045,0.5880,-0.4810,
12.100670,0.4012,1.1805,0.4256,1.2983,2.5841,1.2529,1.1345,0.3318,-0.6999,
12.120382,0.2345,0.9855,0.2985,1.2983,2.5841,1.2529,1.1345,0.3318,-0.6999,
12.122085,0.2345,0.9855,0.2985,-0.0694,0.4972,0.3491,1.1345,0.3318,-0.6999,
12.123158,0.2345,0.9855,0.2985,-0.0694,0.4972,0.3491,1.2064,0.0794,-0.8016,
12.142120,0.2345,0.9855,0.2985,-0.0694,0.4972,0.3491,1.1361,0.0804,-0.8085,
12.160622,0.1840,1.0608,0.1334,-0.0694,0.4972,0.3491,1.1361,0.0804,-0.8085,
12.162791,0.1840,1.0608,0.1334,-0.2604,1.0529,-0.8438,1.1361,0.0804,-0.8085,
12.164675,0.1840,1.0608,0.1334,-0.2604,1.0529,-0.8438,0.8570,0.1454,-0.7265,
12.180685,0.1840,1.0608,0.1334,-0.2604,1.0529,-0.8438,0.4123,0.2668,-0.5678,
12.200903,0.1055,1.1082,0.1197,-0.2604,1.0529,-0.8438,0.4123,0.2668,-0.5678,
12.203868,0.1055,1.1082,0.1197,-0.7695,1.4157,-0.7554,0.4123,0.2668,-0.5678,
12.205512,0.1055,1.1082,0.1197,-0.7695,1.4157,-0.7554,0.0304,0.2115,-0.3196,
12.220873,0.1055,1.1082,0.1197,-0.7695,1.4157,-0.7554,-0.0543,0.2940,0.0842,
12.241616,0.2050,0.9064,0.2013,-0.7695,1.4157,-0.7554,-0.0543,0.2940,0.0842,
12.243844,0.2050,0.9064,0.2013,0.2673,-0.5692,0.0228,-0.0543,0.2940,0.0842,
12.245705,0.2050,0.9064,0.2013,0.2673,-0.5692,0.0228,-0.0575,0.3366,0.2216,
12.260683,0.2050,0.9064,0.2013,0.2673,-0.5692,0.0228,0.0368,0.0202,0.2301,
12.280619,0.1517,0.7214,0.1742,0.2673,-0.5692,0.0228,0.0368,0.0202,0.2301,
12.283833,0.1517,0.7214,0.1742,-0.3261,-2.3648,-0.2595,0.0368,0.0202,0.2301,
12.286217,0.1517,0.7214,0.1742,-0.3261,-2.3648,-0.2595,0.0463,-0.0826,0.3505,
12.300904,0.1517,0.7214,0.1742,-0.3261,-2.3648,-0.2595,-0.0309,-0.0607,0.3079,
12.320710,0.1962,1.0129,0.2094,-0.3261,-2.3648,-0.2595,-0.0309,-0.0607,0.3079,
12.323223,0.1962,1.0129,0.2094,-0.0194,0.5155,0.0934,-0.0309,-0.0607,0.3079,
12.324845,0.1962,1.0129,0.2094,-0.0194,0.5155,0.0934,-0.0490,-0.1843,0.2232,
12.342730,0.1962,1.0129,0.2094,-0.0194,0.5155,0.0934,-0.1044,-0.2551,0.3931,
12.360322,0.1749,1.2990,0.2582,-0.0194,0.5155,0.0934,-0.1044,-0.2551,0.3931,
12.363142,0.1749,1.2990,0.2582,-0.3606,3.3499,0.5610,-0.1044,-0.2551,0.3931,
12.365128,0.1749,1.2990,0.2582,-0.3606,3.3499,0.5610,-0.1071,-0.2913,0.5747,
12.380712,0.1749,1.2990,0.2582,-0.3606,3.3499,0.5610,-0.1113,-0.3148,0.6876,
12.400579,0.1976,1.3720,0.2853,-0.3606,3.3499,0.5610,-0.1113,-0.3148,0.6876,
12.403578,0.1976,1.3720,0.2853,-0.3975,4.1300,0.8127,-0.1113,-0.3148,0.6876,
12.405620,0.1976,1.3720,0.2853,-0.3975,4.1300,0.8127,-0.3254,-0.4266,0.8581,
12.421045,0.1976,1.3720,0.2853,-0.3975,4.1300,0.8127,-0.6365,-0.5049,0.9518,
12.439834,0.4485,0.9929,0.3401,-0.3975,4.1300,0.8127,-0.6365,-0.5049,0.9518,
12.442539,0.4485,0.9929,0.3401,1.6889,0.5446,1.2183,-0.6365,-0.5049,0.9518,
12.444319,0.4485,0.9929,0.3401,1.6889,0.5446,1.2183,-0.8938,-0.5294,0.7542,
12.461246,0.4485,0.9929,0.3401,1.6889,0.5446,1.2183,-1.0472,-0.6605,0.5497,
12.480360,0.4869,0.6437,0.3037,1.6889,0.5446,1.2183,-1.0472,-0.6605,0.5497,
12.483155,0.4869,0.6437,0.3037,1.7570,-2.7065,0.5659,-1.0472,-0.6605,0.5497,
12.485128,0.4869,0.6437,0.3037,1.7570,-2.7065,0.5659,-1.2256,-0.9545,0.3824,
12.499983,0.4869,0.6437,0.3037,1.7570,-2.7065,0.5659,-1.4855,-1.2778,0.1044,
12.519875,0.3415,0.7383,0.2631,1.7570,-2.7065,0.5659,-1.4855,-1.2778,0.1044,
12.522411,0.3415,0.7383,0.2631,0.1184,-1.6047,-0.1783,-1.4855,-1.2778,0.1044,
12.524520,0.3415,0.7383,0.2631,0.1184,-1.6047,-0.1783,-1.5638,-1.4253,0.1486,
12.541819,0.3415,0.7383,0.2631,0.1184,-1.6047,-0.1783,-1.2203,-1.4674,0.1459,
12.560448,0.3870,0.8204,0.0877,0.1184,-1.6047,-0.1783,-1.2203,-1.4674,0.1459,
12.563581,0.3870,0.8204,0.0877,0.3370,-0.6204,-2.1792,-1.2203,-1.4674,0.1459,
12.565790,0.3870,0.8204,0.0877,0.3370,-0.6204,-2.1792,-0.6514,-0.9321,-0.0154,
12.580698,0.3870,0.8204,0.0877,0.3370,-0.6204,-2.1792,-0.6860,-0.3483,-0.1598,
12.599994,0.2494,0.6811,0.1722,0.3370,-0.6204,-2.1792,-0.6860,-0.3483,-0.1598,
12.602796,0.2494,0.6811,0.1722,-1.0596,-1.9145,-1.4918,-0.6860,-0.3483,-0.1598,
12.604884,0.2494,0.6811,0.1722,-1.0596,-1.9145,-1.4918,-0.5950,-0.1534,-0.2626,
12.620110,0.2494,0.6811,0.1722,-1.0596,-1.9145,-1.4918,-0.4911,-0.1475,-0.1816,
12.640627,0.3420,0.8204,0.2963,-1.0596,-1.9145,-1.4918,-0.4911,-0.1475,-0.1816,
12.643585,0.3420,0.8204,0.2963,-0.0958,-0.5099,-0.4406,-0.4911,-0.1475,-0.1816,
12.645772,0.3420,0.8204,0.2963,-0.0958,-0.5099,-0.4406,-0.4229,-0.0128,-0.0565,
12.660119,0.3420,0.8204,0.2963,-0.0958,-0.5099,-0.4406,-0.3009,0.1395,-0.0698,
12.679875,0.3608,0.6670,0.3574,-0.0958,-0.5099,-0.4406,-0.3009,0.1395,-0.0698,
12.682247,0.3608,0.6670,0.3574,0.1188,-1.9729,0.0259,-0.3009,0.1395,-0.0698,
12.683953,0.3608,0.6670,0.3574,0.1188,-1.9729,0.0259,0.0245,0.3526,-0.2162,
12.700103,0.3608,0.6670,0.3574,0.1188,-1.9729,0.0259,0.5023,0.5060,-0.3755,
12.719746,0.2069,0.6867,0.1459,0.1188,-1.9729,0.0259,0.5023,0.5060,-0.3755,
12.721955,0.2069,0.6867,0.1459,-1.2290,-1.8548,-2.0148,0.5023,0.5060,-0.3755,
12.723865,0.2069,0.6867,0.1459,-1.2290,-1.8548,-2.0148,0.7702,0.6669,-0.4831,
12.740426,0.2069,0.6867,0.1459,-1.2290,-1.8548,-2.0148,0.6834,0.6775,-0.3483,
12.759896,0.2111,0.6533,0.1331,-1.2290,-1.8548,-2.0148,0.6834,0.6775,-0.3483,
12.762235,0.2111,0.6533,0.1331,-0.9544,-2.3326,-1.9719,0.6834,0.6775,-0.3483,
12.764123,0.2111,0.6533,0.1331,-0.9544,-2.3326,-1.9719,0.5225,0.7329,-0.1720,
12.780289,0.2111,0.6533,0.1331,-0.9544,-2.3326,-1.9719,0.3073,0.6354,-0.1822,
12.799836,0.2704,0.8385,0.2729,-0.9544,-2.3326,-1.9719,0.3073,0.6354,-0.1822,
12.802441,0.2704,0.8385,0.2729,-0.2220,-0.5924,-0.5377,0.3073,0.6354,-0.1822,
12.804064,0.2704,0.8385,0.2729,-0.2220,-0.5924,-0.5377,0.0735,0.4868,-0.0831,
12.820069,0.2704,0.8385,0.2729,-0.2220,-0.5924,-0.5377,0.0905,0.5843,-0.0437,
12.840282,0.4212,1.2206,0.4732,-0.2220,-0.5924,-0.5377,0.0905,0.5843,-0.0437,
12.842717,0.4212,1.2206,0.4732,1.3428,3.1346,1.3968,0.0905,0.5843,-0.0437,
12.844408,0.4212,1.2206,0.4732,1.3428,3.1346,1.3968,0.3031,0.6946,-0.1497,
12.859836,0.4212,1.2206,0.4732,1.3428,3.1346,1.3968,0.4208,0.6690,-0.2631,
12.879692,0.3403,1.2701,0.5692,1.3428,3.1346,1.3968,0.4208,0.6690,-0.2631,
12.882355,0.3403,1.2701,0.5692,0.7110,3.5519,2.3920,0.4208,0.6690,-0.2631,
12.884408,0.3403,1.2701,0.5692,0.7110,3.5519,2.3920,0.6274,0.5593,-0.3558,
12.899955,0.3403,1.2701,0.5692,0.7110,3.5519,2.3920,0.9486,0.3888,-0.3888,
12.919342,0.2069,0.9418,0.4324,0.7110,3.5519,2.3920,0.9486,0.3888,-0.3888,
12.921265,0.2069,0.9418,0.4324,-0.4043,0.1997,1.2855,0.9486,0.3888,-0.3888,
12.922951,0.2069,0.9418,0.4324,-0.4043,0.1997,1.2855,1.1191,0.1039,-0.3835,
12.940510,0.2069,0.9418,0.4324,-0.4043,0.1997,1.2855,1.0450,-0.0032,-0.3419,
12.959278,0.2182,0.6975,0.2675,-0.4043,0.1997,1.2855,1.0450,-0.0032,-0.3419,
12.961585,0.2182,0.6975,0.2675,-0.1646,-2.3356,0.0215,1.0450,-0.0032,-0.3419,
12.963220,0.2182,0.6975,0.2675,-0.1646,-2.3356,0.0215,0.8714,-0.0016,-0.3196,
12.980035,0.2182,0.6975,0.2675,-0.1646,-2.3356,0.0215,0.7372,-0.0224,-0.3521,
13.000010,0.1972,0.9667,0.0677,-0.1646,-2.3356,0.0215,0.7372,-0.0224,-0.3521,
13.001891,0.1972,0.9667,0.0677,-0.2494,0.1946,-1.6403,0.7372,-0.0224,-0.3521,
13.003078,0.1972,0.9667,0.0677,-0.2494,0.1946,-1.6403,0.6445,0.2700,-0.3004,
13.019330,0.1972,0.9667,0.0677,-0.2494,0.1946,-1.6403,0.5673,0.8080,-0.0597,
13.039765,0.0403,1.2039,0.0799,-0.2494,0.1946,-1.6403,0.5673,0.8080,-0.0597,
13.041248,0.0403,1.2039,0.0799,-1.6628,2.4466,-1.3326,0.5673,0.8080,-0.0597,
13.042245,0.0403,1.2039,0.0799,-1.6628,2.4466,-1.3326,0.3121,0.8155,0.1017,
13.060351,0.0403,1.2039,0.0799,-1.6628,2.4466,-1.3326,0.0357,0.1348,0.3372,
13.079708,0.1879,0.9504,0.3171,-1.6628,2.4466,-1.3326,0.0357,0.1348,0.3372,
13.083403,0.1879,0.9504,0.3171,-0.2461,-0.0374,1.0159,0.0357,0.1348,0.3372,
13.085531,0.1879,0.9504,0.3171,-0.2461,-0.0374,1.0159,-0.0767,-0.1071,0.5087,
13.099551,0.1879,0.9504,0.3171,-0.2461,-0.0374,1.0159,-0.0724,-0.3744,0.4410,
13.119927,0.2450,0.9782,0.3655,-0.2461,-0.0374,1.0159,-0.0724,-0.3744,0.4410,
13.122227,0.2450,0.9782,0.3655,0.1251,0.2839,1.4718,-0.0724,-0.3744,0.4410,
13.123692,0.2450,0.9782,0.3655,0.1251,0.2839,1.4718,0.0421,-0.3409,0.3377,
13.142071,0.2450,0.9782,0.3655,0.1251,0.2839,1.4718,0.1891,-0.0943,0.3787,
13.159887,0.0899,1.3000,0.2707,0.1251,0.2839,1.4718,0.1891,-0.0943,0.3787,
13.162024,0.0899,1.3000,0.2707,-1.5463,3.4611,0.6060,0.1891,-0.0943,0.3787,
13.163658,0.0899,1.3000,0.2707,-1.5463,3.4611,0.6060,0.2961,0.0959,0.5310,
13.179228,0.0899,1.3000,0.2707,-1.5463,3.4611,0.6060,0.1827,0.1726,0.7622,
13.199585,0.2074,1.0105,0.1942,-1.5463,3.4611,0.6060,0.1827,0.1726,0.7622,
13.202497,0.2074,1.0105,0.1942,-0.6231,0.6705,-0.0685,0.1827,0.1726,0.7622,
13.204434,0.2074,1.0105,0.1942,-0.6231,0.6705,-0.0685,-0.2285,-0.0554,0.8341,
13.219774,0.2074,1.0105,0.1942,-0.6231,0.6705,-0.0685,-0.6514,-0.3489,0.8703,
13.238664,0.3916,0.8778,0.2314,-0.6231,0.6705,-0.0685,-0.6514,-0.3489,0.8703,
13.240914,0.3916,0.8778,0.2314,0.8624,-0.5003,0.1557,-0.6514,-0.3489,0.8703,
13.242739,0.3916,0.8778,0.2314,0.8624,-0.5003,0.1557,-0.8847,-0.3691,0.8266,
13.259449,0.3916,0.8778,0.2314,0.8624,-0.5003,0.1557,-1.2069,-0.6226,0.6525,
13.279118,0.5177,0.8226,0.2113,0.8624,-0.5003,0.1557,-1.2069,-0.6226,0.6525,
13.282078,0.5177,0.8226,0.2113,1.7752,-0.8521,-0.3465,-1.2069,-0.6226,0.6525,
13.284498,0.5177,0.8226,0.2113,1.7752,-0.8521,-0.3465,-1.6453,-0.9870,0.5294,
13.300778,0.5177,0.8226,0.2113,1.7752,-0.8521,-0.3465,-1.9627,-1.1835,0.1981,
13.319534,0.4256,0.6946,0.3323,1.7752,-0.8521,-0.3465,-1.9627,-1.1835,0.1981,
13.321881,0.4256,0.6946,0.3323,0.6175,-1.8614,0.3563,-1.9627,-1.1835,0.1981,
13.323554,0.4256,0.6946,0.3323,0.6175,-1.8614,0.3563,-1.8557,-1.1824,0.0293,
13.340721,0.4256,0.6946,0.3323,0.6175,-1.8614,0.3563,-1.4450,-0.6786,0.1129,
13.358986,0.4168,0.7591,0.2641,0.6175,-1.8614,0.3563,-1.4450,-0.6786,0.1129,
13.361795,0.4168,0.7591,0.2641,0.3848,-1.0133,-0.7354,-1.4450,-0.6786,0.1129,
13.363743,0.4168,0.7591,0.2641,0.3848,-1.0133,-0.7354,-1.2565,-0.2945,-0.1289,
13.378822,0.4168,0.7591,0.2641,0.3848,-1.0133,-0.7354,-0.9747,0.0698,-0.2786,
13.399309,0.1859,0.6936,0.2795,0.3848,-1.0133,-0.7354,-0.9747,0.0698,-0.2786,
13.402347,0.1859,0.6936,0.2795,-1.8247,-1.5290,-0.9416,-0.9747,0.0698,-0.2786,
13.404431,0.1859,0.6936,0.2795,-1.8247,-1.5290,-0.9416,-0.7100,0.2125,-0.2061,
13.419090,0.1859,0.6936,0.2795,-1.8247,-1.5290,-0.9416,-0.6226,0.2466,-0.0831,
13.439254,0.3051,0.4979,0.4361,-1.8247,-1.5290,-0.9416,-0.6226,0.2466,-0.0831,
13.442641,0.3051,0.4979,0.4361,-0.5734,-3.3663,0.3394,-0.6226,0.2466,-0.0831,
13.444487,0.3051,0.4979,0.4361,-0.5734,-3.3663,0.3394,-0.3606,0.3989,-0.0298,
13.459163,0.3051,0.4979,0.4361,-0.5734,-3.3663,0.3394,0.2477,0.3941,-0.1933,
13.479315,0.2416,0.7244,0.2602,-0.5734,-3.3663,0.3394,0.2477,0.3941,-0.1933,
13.481676,0.2416,0.7244,0.2602,-1.0959,-1.1537,-1.4588,0.2477,0.3941,-0.1933,
13.483511,0.2416,0.7244,0.2602,-1.0959,-1.1537,-1.4588,0.6844,0.5545,-0.2961,
13.499105,0.2416,0.7244,0.2602,-1.0959,-1.1537,-1.4588,0.8277,0.6967,-0.2929,
13.518859,0.2731,0.7522,0.1947,-1.0959,-1.1537,-1.4588,0.8277,0.6967,-0.2929,
13.521261,0.2731,0.7522,0.1947,-0.5910,-1.0389,-1.9328,0.8277,0.6967,-0.2929,
13.523232,0.2731,0.7522,0.1947,-0.5910,-1.0389,-1.9328,0.8021,0.7888,-0.2764,
13.538973,0.2731,0.7522,0.1947,-0.5910,-1.0389,-1.9328,0.6562,0.8298,-0.2700,
13.558595,0.3440,0.8218,0.2937,-0.5910,-1.0389,-1.9328,0.6562,0.8298,-0.2700,
13.560923,0.3440,0.8218,0.2937,0.3175,-0.5008,-0.8182,0.6562,0.8298,-0.2700,
13.562714,0.3440,0.8218,0.2937,0.3175,-0.5008,-0.8182,0.4043,0.7393,-0.2690,
13.579012,0.3440,0.8218,0.2937,0.3175,-0.5008,-0.8182,0.3116,0.7595,-0.2743,
13.598987,0.3718,1.0146,0.4952,0.3175,-0.5008,-0.8182,0.3116,0.7595,-0.2743,
13.602342,0.3718,1.0146,0.4952,0.7767,1.3086,1.1932,0.3116,0.7595,-0.2743,
13.603924,0.3718,1.0146,0.4952,0.7767,1.3086,1.1932,0.3867,0.7739,-0.3009,
13.619370,0.3718,1.0146,0.4952,0.7767,1.3086,1.1932,0.4858,0.6056,-0.3585,
13.638839,0.3132,1.0300,0.5416,0.7767,1.3086,1.1932,0.4858,0.6056,-0.3585,
13.640973,0.3132,1.0300,0.5416,0.4150,1.3614,1.7209,0.4858,0.6056,-0.3585,
13.642531,0.3132,1.0300,0.5416,0.4150,1.3614,1.7209,0.6834,0.5135,-0.3649,
13.658789,0.3132,1.0300,0.5416,0.4150,1.3614,1.7209,0.9768,0.4922,-0.4064,
13.678469,0.2800,0.9846,0.3875,0.4150,1.3614,1.7209,0.9768,0.4922,-0.4064,
13.680806,0.2800,0.9846,0.3875,0.2936,0.7628,0.4491,0.9768,0.4922,-0.4064,
13.682647,0.2800,0.9846,0.3875,0.2936,0.7628,0.4491,1.1420,0.3782,-0.4836,
13.698576,0.2800,0.9846,0.3875,0.2936,0.7628,0.4491,1.1148,0.2839,-0.5699,
13.718035,0.2270,1.0158,0.2524,0.2936,0.7628,0.4491,1.1148,0.2839,-0.5699,
13.719706,0.2270,1.0158,0.2524,0.0027,0.8788,-0.5028,1.1148,0.2839,-0.5699,
13.720743,0.2270,1.0158,0.2524,0.0027,0.8788,-0.5028,0.8938,0.2700,-0.6764,
13.739098,0.2270,1.0158,0.2524,0.0027,0.8788,-0.5028,0.7265,0.2786,-0.6365,
13.758737,0.1087,1.0046,0.2333,0.0027,0.8788,-0.5028,0.7265,0.2786,-0.6365,
13.760918,0.1087,1.0046,0.2333,-0.8847,0.6221,-0.4167,0.7265,0.2786,-0.6365,
13.762607,0.1087,1.0046,0.2333,-0.8847,0.6221,-0.4167,0.6285,0.2812,-0.4362,
13.778629,0.1087,1.0046,0.2333,-0.8847,0.6221,-0.4167,0.4613,0.2935,-0.1097,
13.798333,0.1994,1.0263,0.2255,-0.8847,0.6221,-0.4167,0.4613,0.2935,-0.1097,
13.801450,0.1994,1.0263,0.2255,0.1344,0.7577,-0.3129,0.4613,0.2935,-0.1097,
13.802940,0.1994,1.0263,0.2255,0.1344,0.7577,-0.3129,0.1752,0.1917,0.1571,
13.818351,0.1994,1.0263,0.2255,0.1344,0.7577,-0.3129,0.0399,0.0826,0.2013,
13.838643,0.2538,0.9066,0.3110,0.1344,0.7577,-0.3129,0.0399,0.0826,0.2013,
13.841833,0.2538,0.9066,0.3110,0.6081,-0.4098,0.5484,0.0399,0.0826,0.2013,
13.843653,0.2538,0.9066,0.3110,0.6081,-0.4098,0.5484,0.1268,0.0314,0.1273,
13.858766,0.2538,0.9066,0.3110,0.6081,-0.4098,0.5484,0.2898,-0.0282,0.0474,
13.879287,0.1510,0.9012,0.2328,0.6081,-0.4098,0.5484,0.2898,-0.0282,0.0474,
13.881444,0.1510,0.9012,0.2328,-0.4319,-0.4755,-0.1440,0.2898,-0.0282,0.0474,
13.883367,0.1510,0.9012,0.2328,-0.4319,-0.4755,-0.1440,0.3734,-0.1113,0.0879,
13.898857,0.1510,0.9012,0.2328,-0.4319,-0.4755,-0.1440,0.2951,-0.1933,0.2487,
13.918449,0.1656,1.2425,0.1871,-0.4319,-0.4755,-0.1440,0.2951,-0.1933,0.2487,
13.920857,0.1656,1.2425,0.1871,-0.3652,2.8509,-0.4555,0.2951,-0.1933,0.2487,
13.922661,0.1656,1.2425,0.1871,-0.3652,2.8509,-0.4555,0.1326,-0.2136,0.4767,
13.939336,0.1656,1.2425,0.1871,-0.3652,2.8509,-0.4555,-0.0543,-0.4218,0.6157,
13.959618,0.1896,1.1140,0.2863,-0.3652,2.8509,-0.4555,-0.0543,-0.4218,0.6157,
13.961953,0.1896,1.1140,0.2863,-0.3624,1.6339,0.5580,-0.0543,-0.4218,0.6157,
13.963684,0.1896,1.1140,0.2863,-0.3624,1.6339,0.5580,-0.1859,-0.4511,0.7627,
13.978443,0.1896,1.1140,0.2863,-0.3624,1.6339,0.5580,-0.3100,-0.3979,0.7787,
13.998357,0.2260,1.0315,0.2802,-0.3624,1.6339,0.5580,-0.3100,-0.3979,0.7787,
14.001070,0.2260,1.0315,0.2802,-0.3285,0.9205,0.4470,-0.3100,-0.3979,0.7787,
14.002609,0.2260,1.0315,0.2802,-0.3285,0.9205,0.4470,-0.5039,-0.5183,0.8091,
14.018227,0.2260,1.0315,0.2802,-0.3285,0.9205,0.4470,-0.7771,-0.4522,0.9737,
14.037911,0.5106,0.9513,0.2221,-0.3285,0.9205,0.4470,-0.7771,-0.4522,0.9737,
14.040168,0.5106,0.9513,0.2221,2.0902,0.2934,-0.3029,-0.7771,-0.4522,0.9737,
14.042253,0.5106,0.9513,0.2221,2.0902,0.2934,-0.3029,-1.2011,-0.6493,0.8650,
14.058310,0.5106,0.9513,0.2221,2.0902,0.2934,-0.3029,-1.6256,-1.0594,0.5321,
14.078254,0.6166,0.5705,0.2731,2.0902,0.2934,-0.3029,-1.6256,-1.0594,0.5321,
14.080642,0.6166,0.5705,0.2731,2.7470,-3.1891,-0.1913,-1.6256,-1.0594,0.5321,
14.082288,0.6166,0.5705,0.2731,2.7470,-3.1891,-0.1913,-1.8674,-1.2192,0.1049,
14.098352,0.6166,0.5705,0.2731,2.7470,-3.1891,-0.1913,-1.8536,-1.1388,-0.0197,
14.118225,0.3755,0.9071,0.3064,2.7470,-3.1891,-0.1913,-1.8536,-1.1388,-0.0197,
14.120444,0.3755,0.9071,0.3064,0.1957,0.3489,-0.3272,-1.8536,-1.1388,-0.0197,
14.121990,0.3755,0.9071,0.3064,0.1957,0.3489,-0.3272,-1.5851,-0.8416,0.0708,
14.140349,0.3755,0.9071,0.3064,0.1957,0.3489,-0.3272,-1.2927,-0.5214,-0.0740,
14.158376,0.3965,0.6999,0.2670,0.1957,0.3489,-0.3272,-1.2927,-0.5214,-0.0740,
14.161701,0.3965,0.6999,0.2670,0.2967,-1.4797,-1.0910,-1.2927,-0.5214,-0.0740,
14.163429,0.3965,0.6999,0.2670,0.2967,-1.4797,-1.0910,-1.1627,-0.3883,-0.3143,
14.178359,0.3965,0.6999,0.2670,0.2967,-1.4797,-1.0910,-1.1052,-0.1081,-0.3654,
14.198035,0.2387,0.5849,0.3508,0.2967,-1.4797,-1.0910,-1.1052,-0.1081,-0.3654,
14.200330,0.2387,0.5849,0.3508,-1.1756,-2.4803,-0.6092,-1.1052,-0.1081,-0.3654,
14.202397,0.2387,0.5849,0.3508,-1.1756,-2.4803,-0.6092,-0.7665,0.0815,-0.3489,
14.218142,0.2387,0.5849,0.3508,-1.1756,-2.4803,-0.6092,-0.4064,0.1145,-0.2903,
14.238569,0.2514,0.6567,0.3704,-1.1756,-2.4803,-0.6092,-0.4064,0.1145,-0.2903,
14.241150,0.2514,0.6567,0.3704,-0.9303,-1.7233,-0.6229,-0.4064,0.1145,-0.2903,
14.243060,0.2514,0.6567,0.3704,-0.9303,-1.7233,-0.6229,-0.0815,0.2402,-0.1843,
14.258524,0.2514,0.6567,0.3704,-0.9303,-1.7233,-0.6229,0.2754,0.3345,-0.2674,
14.278219,0.3003,0.6738,0.2682,-0.9303,-1.7233,-0.6229,0.2754,0.3345,-0.2674,
14.281067,0.3003,0.6738,0.2682,-0.3287,-1.6024,-1.6301,0.2754,0.3345,-0.2674,
14.283048,0.3003,0.6738,0.2682,-0.3287,-1.6024,-1.6301,0.5619,0.4048,-0.3611,
14.298155,0.3003,0.6738,0.2682,-0.3287,-1.6024,-1.6301,0.6573,0.5007,-0.3798,
14.317942,0.2890,0.7087,0.2384,-0.3287,-1.6024,-1.6301,0.6573,0.5007,-0.3798,
14.320983,0.2890,0.7087,0.2384,-0.2406,-1.4089,-1.7779,0.6573,0.5007,-0.3798,
14.323102,0.2890,0.7087,0.2384,-0.2406,-1.4089,-1.7779,0.6285,0.5704,-0.3563,
14.338491,0.2890,0.7087,0.2384,-0.2406,-1.4089,-1.7779,0.5561,0.6061,-0.3569,
14.357932,0.2751,0.8314,0.3371,-0.2406,-1.4089,-1.7779,0.5561,0.6061,-0.3569,
14.360271,0.2751,0.8314,0.3371,-0.1620,-0.3451,-0.6810,0.5561,0.6061,-0.3569,
14.362224,0.2751,0.8314,0.3371,-0.1620,-0.3451,-0.6810,0.5236,0.6019,-0.3116,
14.378229,0.2751,0.8314,0.3371,-0.1620,-0.3451,-0.6810,0.5545,0.5571,-0.1981,
14.398785,0.3892,1.0578,0.4547,-0.1620,-0.3451,-0.6810,0.5545,0.5571,-0.1981,
14.402961,0.3892,1.0578,0.4547,0.6105,1.8112,0.8907,0.5545,0.5571,-0.1981,
14.404971,0.3892,1.0578,0.4547,0.6105,1.8112,0.8907,0.5720,0.4799,-0.1614,
14.417317,0.3892,1.0578,0.4547,0.6105,1.8112,0.8907,0.5939,0.4282,-0.2530,
14.437579,0.3850,1.0613,0.4901,0.6105,1.8112,0.8907,0.5939,0.4282,-0.2530,
14.438942,0.3850,1.0613,0.4901,0.7045,1.7374,1.3814,0.5939,0.4282,-0.2530,
14.439880,0.3850,1.0613,0.4901,0.7045,1.7374,1.3814,0.7547,0.3356,-0.3979,
14.456881,0.3850,1.0613,0.4901,0.7045,1.7374,1.3814,1.0344,0.3025,-0.5039,
14.477466,0.3144,1.0310,0.3569,0.7045,1.7374,1.3814,1.0344,0.3025,-0.5039,
14.479552,0.3144,1.0310,0.3569,0.2122,1.2696,0.3513,1.0344,0.3025,-0.5039,
14.481152,0.3144,1.0310,0.3569,0.2122,1.2696,0.3513,1.2096,0.3276,-0.5939,
14.497346,0.3144,1.0310,0.3569,0.2122,1.2696,0.3513,1.1500,0.2956,-0.6818,
14.517506,0.1715,1.0510,0.2189,0.2122,1.2696,0.3513,1.1500,0.2956,-0.6818,
14.519946,0.1715,1.0510,0.2189,-0.9235,1.2570,-0.6144,1.1500,0.2956,-0.6818,
14.523166,0.1715,1.0510,0.2189,-0.9235,1.2570,-0.6144,0.8714,0.1358,-0.6258,
14.541424,0.1715,1.0510,0.2189,-0.9235,1.2570,-0.6144,0.6658,0.0229,-0.4325,
14.558459,0.1244,0.9755,0.2125,-0.9235,1.2570,-0.6144,0.6658,0.0229,-0.4325,
14.560738,0.1244,0.9755,0.2125,-1.1758,0.3817,-0.4060,0.6658,0.0229,-0.4325,
14.562569,0.1244,0.9755,0.2125,-1.1758,0.3817,-0.4060,0.5087,0.0991,-0.1678,
14.577601,0.1244,0.9755,0.2125,-1.1758,0.3817,-0.4060,0.3643,0.0959,0.1385,
14.597898,0.2555,0.9169,0.1864,-1.1758,0.3817,-0.4060,0.3643,0.0959,0.1385,
14.601815,0.2555,0.9169,0.1864,0.1287,-0.2378,-0.5096,0.3643,0.0959,0.1385,
14.603789,0.2555,0.9169,0.1864,0.1287,-0.2378,-0.5096,0.1816,0.0911,0.3494,
14.617987,0.2555,0.9169,0.1864,0.1287,-0.2378,-0.5096,-0.0053,-0.0208,0.2887,
14.638167,0.2404,0.8685,0.2853,0.1287,-0.2378,-0.5096,-0.0053,-0.0208,0.2887,
14.641729,0.2404,0.8685,0.2853,-0.1286,-0.6885,0.4815,-0.0053,-0.0208,0.2887,
14.643976,0.2404,0.8685,0.2853,-0.1286,-0.6885,0.4815,-0.0288,-0.1758,0.2296,
14.658669,0.2404,0.8685,0.2853,-0.1286,-0.6885,0.4815,0.0117,-0.2429,0.2056,
14.677199,0.1940,0.9569,0.2746,-0.1286,-0.6885,0.4815,0.0117,-0.2429,0.2056,
14.679330,0.1940,0.9569,0.2746,-0.6649,0.1990,0.3824,0.0117,-0.2429,0.2056,
14.681041,0.1940,0.9569,0.2746,-0.6649,0.1990,0.3824,0.0682,-0.2716,0.1609,
14.697226,0.1940,0.9569,0.2746,-0.6649,0.1990,0.3824,0.0495,-0.3281,0.2328,
14.717851,0.0726,1.1008,0.2162,-0.6649,0.1990,0.3824,0.0495,-0.3281,0.2328,
14.719909,0.0726,1.1008,0.2162,-1.9290,1.6173,-0.1379,0.0495,-0.3281,0.2328,
14.721876,0.0726,1.1008,0.2162,-1.9290,1.6173,-0.1379,-0.0458,-0.3750,0.4186,
14.738808,0.0726,1.1008,0.2162,-1.9290,1.6173,-0.1379,-0.2147,-0.4405,0.6120,
14.757709,0.1129,1.1934,0.2678,-1.9290,1.6173,-0.1379,-0.2147,-0.4405,0.6120,
14.759834,0.1129,1.1934,0.2678,-1.7588,2.5931,0.3645,-0.2147,-0.4405,0.6120,
14.761543,0.1129,1.1934,0.2678,-1.7588,2.5931,0.3645,-0.4266,-0.4703,0.8453,
14.776855,0.1129,1.1934,0.2678,-1.7588,2.5931,0.3645,-0.6951,-0.5955,0.9891,
14.797344,0.3904,0.9811,0.3313,-1.7588,2.5931,0.3645,-0.6951,-0.5955,0.9891,
14.800415,0.3904,0.9811,0.3313,0.5809,0.6766,0.8501,-0.6951,-0.5955,0.9891,
14.802162,0.3904,0.9811,0.3313,0.5809,0.6766,0.8501,-0.9955,-0.8016,1.0429,
14.817793,0.3904,0.9811,0.3313,0.5809,0.6766,0.8501,-1.2490,-0.9737,0.9119,
14.837329,0.5902,0.8597,0.3867,0.5809,0.6766,0.8501,-1.2490,-0.9737,0.9119,
14.839287,0.5902,0.8597,0.3867,2.1060,-0.2648,1.1210,-1.2490,-0.9737,0.9119,
14.840970,0.5902,0.8597,0.3867,2.1060,-0.2648,1.1210,-1.4919,-1.2027,0.6360,
14.857204,0.5902,0.8597,0.3867,2.1060,-0.2648,1.1210,-1.7667,-1.3502,0.2653,
14.877116,0.4024,0.7246,0.3833,2.1060,-0.2648,1.1210,-1.7667,-1.3502,0.2653,
14.879751,0.4024,0.7246,0.3833,-0.0306,-1.3318,0.7128,-1.7667,-1.3502,0.2653,
14.881632,0.4024,0.7246,0.3833,-0.0306,-1.3318,0.7128,-1.7433,-1.1404,0.1193,
14.897335,0.4024,0.7246,0.3833,-0.0306,-1.3318,0.7128,-1.3508,-0.6285,0.1129,
14.916976,0.4012,0.8399,0.3176,-0.0306,-1.3318,0.7128,-1.3508,-0.6285,0.1129,
14.919811,0.4012,0.8399,0.3176,-0.1879,0.0118,-0.2997,-1.3508,-0.6285,0.1129,
14.921738,0.4012,0.8399,0.3176,-0.1879,0.0118,-0.2997,-1.2703,-0.4746,0.0282,
14.940425,0.4012,0.8399,0.3176,-0.1879,0.0118,-0.2997,-1.1318,-0.1150,-0.0522,
14.957894,0.3567,0.6672,0.3999,-0.1879,0.0118,-0.2997,-1.1318,-0.1150,-0.0522,
14.960313,0.3567,0.6672,0.3999,-0.6602,-1.5117,0.1652,-1.1318,-0.1150,-0.0522,
14.962039,0.3567,0.6672,0.3999,-0.6602,-1.5117,0.1652,-0.7867,0.1012,-0.1816,
14.976761,0.3567,0.6672,0.3999,-0.6602,-1.5117,0.1652,-0.4155,0.0820,-0.2871,
14.996786,0.1632,0.5345,0.3638,-0.6602,-1.5117,0.1652,-0.4155,0.0820,-0.2871,
15.000521,0.1632,0.5345,0.3638,-2.4673,-2.7576,-0.3968,-0.4155,0.0820,-0.2871,
15.003229,0.1632,0.5345,0.3638,-2.4673,-2.7576,-0.3968,-0.0937,0.2093,-0.1566,
15.016416,0.1632,0.5345,0.3638,-2.4673,-2.7576,-0.3968,0.2605,0.2051,-0.0602,
15.036985,0.2448,0.6398,0.2042,-2.4673,-2.7576,-0.3968,0.2605,0.2051,-0.0602,
15.039743,0.2448,0.6398,0.2042,-1.6000,-1.7564,-1.9669,0.2605,0.2051,-0.0602,
15.041677,0.2448,0.6398,0.2042,-1.6000,-1.7564,-1.9669,0.4858,0.2583,-0.0719,
15.056249,0.2448,0.6398,0.2042,-1.6000,-1.7564,-1.9669,0.5918,0.3238,-0.1007,
15.076394,0.3215,0.7048,0.1957,-1.6000,-1.7564,-1.9669,0.5918,0.3238,-0.1007,
15.077777,0.3215,0.7048,0.1957,-0.7750,-1.2172,-1.9230,0.5918,0.3238,-0.1007,
15.078499,0.3215,0.7048,0.1957,-0.7750,-1.2172,-1.9230,0.6051,0.4400,-0.1486,
15.095861,0.3215,0.7048,0.1957,-0.7750,-1.2172,-1.9230,0.5380,0.6525,-0.1763,
15.116720,0.3374,0.7864,0.3247,-0.7750,-1.2172,-1.9230,0.5380,0.6525,-0.1763,
15.119279,0.3374,0.7864,0.3247,-0.4839,-0.5290,-0.5562,0.5380,0.6525,-0.1763,
15.121266,0.3374,0.7864,0.3247,-0.4839,-0.5290,-0.5562,0.4479,0.8234,-0.2088,
15.137427,0.3374,0.7864,0.3247,-0.4839,-0.5290,-0.5562,0.4735,0.8932,-0.2141,
15.156956,0.3125,0.9679,0.5155,-0.4839,-0.5290,-0.5562,0.4735,0.8932,-0.2141,
15.160102,0.3125,0.9679,0.5155,-0.5195,1.1476,1.3348,0.4735,0.8932,-0.2141,
15.162472,0.3125,0.9679,0.5155,-0.5195,1.1476,1.3348,0.6386,1.0029,-0.1736,
15.176470,0.3125,0.9679,0.5155,-0.5195,1.1476,1.3348,0.8027,0.8511,-0.1358,
15.196409,0.3716,1.0371,0.6110,-0.5195,1.1476,1.3348,0.8027,0.8511,-0.1358,
15.199104,0.3716,1.0371,0.6110,0.2492,1.6987,2.3807,0.8027,0.8511,-0.1358,
15.200731,0.3716,1.0371,0.6110,0.2492,1.6987,2.3807,0.9028,0.5513,-0.1459,
15.216068,0.3716,1.0371,0.6110,0.2492,1.6987,2.3807,1.0578,0.4005,-0.1965,
15.236783,0.4349,0.9494,0.5111,0.2492,1.6987,2.3807,1.0578,0.4005,-0.1965,
15.239577,0.4349,0.9494,0.5111,0.9942,0.6803,1.6727,1.0578,0.4005,-0.1965,
15.241359,0.4349,0.9494,0.5111,0.9942,0.6803,1.6727,1.3231,0.3819,-0.3723,
15.256362,0.4349,0.9494,0.5111,0.9942,0.6803,1.6727,1.5313,0.3680,-0.5768,
15.276166,0.2687,1.1206,0.2267,0.9942,0.6803,1.6727,1.5313,0.3680,-0.5768,
15.277906,0.2687,1.1206,0.2267,-0.4212,2.1213,-0.6632,1.5313,0.3680,-0.5768,
15.279234,0.2687,1.1206,0.2267,-0.4212,2.1213,-0.6632,1.4136,0.3238,-0.6876,
15.296385,0.2687,1.1206,0.2267,-0.4212,2.1213,-0.6632,1.0221,0.5220,-0.6338,
15.316469,0.1138,1.0610,0.1932,-0.4212,2.1213,-0.6632,1.0221,0.5220,-0.6338,
15.318437,0.1138,1.0610,0.1932,-1.6576,1.3294,-0.6041,1.0221,0.5220,-0.6338,
15.320301,0.1138,1.0610,0.1932,-1.6576,1.3294,-0.6041,0.5571,0.3989,-0.4325,
15.336689,0.1138,1.0610,0.1932,-1.6576,1.3294,-0.6041,0.3505,0.0447,-0.0996,
15.356566,0.1791,0.7950,0.2602,-1.6576,1.3294,-0.6041,0.3505,0.0447,-0.0996,
15.358750,0.1791,0.7950,0.2602,-0.8789,-1.3526,0.1765,0.3505,0.0447,-0.0996,
15.360632,0.1791,0.7950,0.2602,-0.8789,-1.3526,0.1765,0.2120,0.1763,0.1811,
15.375704,0.1791,0.7950,0.2602,-0.8789,-1.3526,0.1765,0.0687,0.1683,0.2008,
15.396569,0.2487,0.8365,0.2289,-0.8789,-1.3526,0.1765,0.0687,0.1683,0.2008,
15.398732,0.2487,0.8365,0.2289,-0.2427,-0.9388,-0.1042,0.0687,0.1683,0.2008,
15.400730,0.2487,0.8365,0.2289,-0.2427,-0.9388,-0.1042,0.0852,-0.0932,0.0932,
15.416816,0.2487,0.8365,0.2289,-0.2427,-0.9388,-0.1042,0.1028,0.0261,0.1294,
15.436495,0.2318,1.0837,0.2333,-0.2427,-0.9388,-0.1042,0.1028,0.0261,0.1294,
15.439150,0.2318,1.0837,0.2333,-0.4367,1.4833,-0.0248,0.1028,0.0261,0.1294,
15.440876,0.2318,1.0837,0.2333,-0.4367,1.4833,-0.0248,0.0293,-0.0240,0.1252,
15.456730,0.2318,1.0837,0.2333,-0.4367,1.4833,-0.0248,-0.0905,-0.2189,0.1838,
15.476358,0.1759,1.0261,0.3298,-0.4367,1.4833,-0.0248,-0.0905,-0.2189,0.1838,
15.479134,0.1759,1.0261,0.3298,-1.0373,0.9349,0.9172,-0.0905,-0.2189,0.1838,
15.480962,0.1759,1.0261,0.3298,-1.0373,0.9349,0.9172,-0.1784,-0.3089,0.2929,
15.496475,0.1759,1.0261,0.3298,-1.0373,0.9349,0.9172,-0.1811,-0.2706,0.4053,
15.516315,0.1112,1.2218,0.3506,-1.0373,0.9349,0.9172,-0.1811,-0.2706,0.4053,
15.518869,0.1112,1.2218,0.3506,-1.8255,2.9090,1.0882,-0.1811,-0.2706,0.4053,
15.520620,0.1112,1.2218,0.3506,-1.8255,2.9090,1.0882,-0.2040,-0.2759,0.5587,
15.535849,0.1112,1.2218,0.3506,-1.8255,2.9090,1.0882,-0.3702,-0.3846,0.7718,
15.556465,0.2507,0.9975,0.3506,-1.8255,2.9090,1.0882,-0.3702,-0.3846,0.7718,
15.559566,0.2507,0.9975,0.3506,-0.7292,0.8195,1.0251,-0.3702,-0.3846,0.7718,
15.561569,0.2507,0.9975,0.3506,-0.7292,0.8195,1.0251,-0.5678,-0.5161,0.8219,
15.576318,0.2507,0.9975,0.3506,-0.7292,0.8195,1.0251,-0.7510,-0.6019,0.8421,
15.595976,0.4322,0.8148,0.3105,-0.7292,0.8195,1.0251,-0.7510,-0.6019,0.8421,
15.598591,0.4322,0.8148,0.3105,0.7144,-0.7974,0.4645,-0.7510,-0.6019,0.8421,
15.600955,0.4322,0.8148,0.3105,0.7144,-0.7974,0.4645,-0.9816,-0.6647,0.7542,
15.615724,0.4322,0.8148,0.3105,0.7144,-0.7974,0.4645,-1.3103,-0.8559,0.5710,
15.635915,0.4913,0.7363,0.3218,0.7144,-0.7974,0.4645,-1.3103,-0.8559,0.5710,
15.637939,0.4913,0.7363,0.3218,0.9833,-1.3413,0.2792,-1.3103,-0.8559,0.5710,
