
time,gFx,gFy,gFz,ax,ay,az,wx,wy,wz,
0.029936,-0.0286,0.2426,1.1077,0.0000,0.0000,0.0000,0.0000,0.0000,0.0000,
0.034588,-0.0286,0.2426,1.1077,0.0000,0.0000,0.0000,0.8250,-0.1337,-0.3510,
0.041001,-0.0286,0.2426,1.1077,0.0000,0.0000,0.0000,0.8250,-0.1337,-0.3510,
0.059491,0.1009,0.0366,1.0190,0.0000,0.0000,0.0000,0.8250,-0.1337,-0.3510,
0.061156,0.1009,0.0366,1.0190,0.0231,0.0084,0.2335,0.8250,-0.1337,-0.3510,
0.062553,0.1009,0.0366,1.0190,0.0231,0.0084,0.2335,0.8250,-0.1337,-0.3510,
0.078391,0.1009,0.0366,1.0190,0.0231,0.0084,0.2335,0.8250,-0.1337,-0.3510,
0.099082,-0.0904,0.1984,0.8411,0.0231,0.0084,0.2335,0.8250,-0.1337,-0.3510,
0.101042,-0.0904,0.1984,0.8411,-1.0795,0.8472,-1.5000,0.8250,-0.1337,-0.3510,
0.103075,-0.0904,0.1984,0.8411,-1.0795,0.8472,-1.5000,0.5284,0.3292,0.9481,
0.119180,-0.0904,0.1984,0.8411,-1.0795,0.8472,-1.5000,0.0256,-0.2967,0.6514,
0.138650,0.0525,0.0967,0.8863,-1.0795,0.8472,-1.5000,0.0256,-0.2967,0.6514,
0.140887,0.0525,0.0967,0.8863,0.1621,-0.1346,-1.0542,0.0256,-0.2967,0.6514,
0.142942,0.0525,0.0967,0.8863,0.1621,-0.1346,-1.0542,0.0953,-0.3233,-0.0991,
0.158825,0.0525,0.0967,0.8863,0.1621,-0.1346,-1.0542,0.3712,0.2237,-0.6381,
0.178944,0.0618,0.2182,0.9435,0.1621,-0.1346,-1.0542,0.3712,0.2237,-0.6381,
0.181454,0.0618,0.2182,0.9435,0.1322,0.5573,-0.4204,0.3712,0.2237,-0.6381,
0.183294,0.0618,0.2182,0.9435,0.1322,0.5573,-0.4204,0.6551,0.4879,-0.7958,
0.198843,0.0618,0.2182,0.9435,0.1322,0.5573,-0.4204,0.7127,0.0639,-0.5289,
0.218675,-0.0440,0.2387,0.6804,0.1322,0.5573,-0.4204,0.7127,0.0639,-0.5289,
0.221204,-0.0440,0.2387,0.6804,-0.5132,0.1403,-2.8888,0.7127,0.0639,-0.5289,
0.223115,-0.0440,0.2387,0.6804,-0.5132,0.1403,-2.8888,-0.1140,0.5635,0.2700,
0.241153,-0.0440,0.2387,0.6804,-0.5132,0.1403,-2.8888,-1.2384,0.8128,0.4346,
0.259171,-0.1478,0.1691,1.2308,-0.5132,0.1403,-2.8888,-1.2384,0.8128,0.4346,
0.263096,-0.1478,0.1691,1.2308,-0.8745,-0.0864,2.4286,-1.2384,0.8128,0.4346,
0.265877,-0.1478,0.1691,1.2308,-0.8745,-0.0864,2.4286,-1.5590,0.8432,-0.0080,
0.279080,-0.1478,0.1691,1.2308,-0.8745,-0.0864,2.4286,-0.6386,0.0352,-0.1332,
0.299152,0.0007,0.1331,1.3488,-0.8745,-0.0864,2.4286,-0.6386,0.0352,-0.1332,
0.301755,0.0007,0.1331,1.3488,0.2912,-0.0492,3.5098,-0.6386,0.0352,-0.1332,
0.303638,0.0007,0.1331,1.3488,0.2912,-0.0492,3.5098,0.5049,-0.5262,-0.1603,
0.318861,0.0007,0.1331,1.3488,0.2912,-0.0492,3.5098,0.9284,-0.6637,-0.1523,
0.338326,-0.0665,0.1886,1.0549,0.2912,-0.0492,3.5098,0.9284,-0.6637,-0.1523,
0.340408,-0.0665,0.1886,1.0549,-0.5884,0.2179,0.6682,0.9284,-0.6637,-0.1523,
0.342157,-0.0665,0.1886,1.0549,-0.5884,0.2179,0.6682,1.0280,-0.4501,-0.0059,
0.358261,-0.0665,0.1886,1.0549,-0.5884,0.2179,0.6682,0.8884,-0.5470,-0.0911,
0.378012,0.0059,0.2145,0.8690,-0.5884,0.2179,0.6682,0.8884,-0.5470,-0.0911,
0.380060,0.0059,0.2145,0.8690,-0.0568,0.1081,-1.0849,0.8884,-0.5470,-0.0911,
0.381922,0.0059,0.2145,0.8690,-0.0568,0.1081,-1.0849,0.6583,-0.6754,-0.2072,
0.397863,0.0059,0.2145,0.8690,-0.0568,0.1081,-1.0849,0.6285,-0.8000,-0.2589,
0.418655,-0.1395,0.2116,1.0327,-0.0568,0.1081,-1.0849,0.6285,-0.8000,-0.2589,
0.420780,-0.1395,0.2116,1.0327,-1.7171,-0.1605,0.5779,0.6285,-0.8000,-0.2589,
0.422691,-0.1395,0.2116,1.0327,-1.7171,-0.1605,0.5779,0.6828,-0.7942,-0.4005,
0.437878,-0.1395,0.2116,1.0327,-1.7171,-0.1605,0.5779,0.6386,-0.1736,-0.4378,
0.458013,0.1356,0.2392,0.9271,-1.7171,-0.1605,0.5779,0.6386,-0.1736,-0.4378,
0.460842,0.1356,0.2392,0.9271,0.8478,-0.1339,-0.3903,0.6386,-0.1736,-0.4378,
0.462929,0.1356,0.2392,0.9271,0.8478,-0.1339,-0.3903,0.4783,0.4682,-0.3910,
0.478638,0.1356,0.2392,0.9271,0.8478,-0.1339,-0.3903,0.5944,0.0799,-0.4501,
0.498594,-0.0550,0.3027,0.9616,0.8478,-0.1339,-0.3903,0.5944,0.0799,-0.4501,
0.501107,-0.0550,0.3027,0.9616,-0.8545,0.2875,-0.0048,0.5944,0.0799,-0.4501,
0.502972,-0.0550,0.3027,0.9616,-0.8545,0.2875,-0.0048,0.7127,0.0378,-0.4762,
0.517941,-0.0550,0.3027,0.9616,-0.8545,0.2875,-0.0048,0.2040,-0.0660,-0.3979,
0.537931,-0.1544,0.2800,0.8194,-0.8545,0.2875,-0.0048,0.2040,-0.0660,-0.3979,
0.541154,-0.1544,0.2800,0.8194,-1.7662,-0.1105,-1.3485,0.2040,-0.0660,-0.3979,
0.543637,-0.1544,0.2800,0.8194,-1.7662,-0.1105,-1.3485,-0.4597,0.0208,-0.5369,
0.557656,-0.1544,0.2800,0.8194,-1.7662,-0.1105,-1.3485,-0.4293,0.0075,-0.4724,
0.577811,0.1603,0.3122,1.1785,-1.7662,-0.1105,-1.3485,-0.4293,0.0075,-0.4724,
0.580589,0.1603,0.3122,1.1785,1.3786,0.3683,2.1215,-0.4293,0.0075,-0.4724,
0.582362,0.1603,0.3122,1.1785,1.3786,0.3683,2.1215,0.1827,-0.0304,-0.4559,
0.598672,0.1603,0.3122,1.1785,1.3786,0.3683,2.1215,1.0541,0.3414,-0.7143,
0.618034,0.0296,0.2555,0.8932,1.3786,0.3683,2.1215,1.0541,0.3414,-0.7143,
0.620480,0.0296,0.2555,0.8932,0.2134,-0.4126,-0.6093,1.0541,0.3414,-0.7143,
0.622053,0.0296,0.2555,0.8932,0.2134,-0.4126,-0.6093,1.2464,0.4277,-1.0472,
0.638762,0.0296,0.2555,0.8932,0.2134,-0.4126,-0.6093,1.9782,2.0309,-0.7633,
0.657484,-0.1190,0.3938,0.5365,0.2134,-0.4126,-0.6093,1.9782,2.0309,-0.7633,
0.658887,-0.1190,0.3938,0.5365,-0.6744,0.3504,-3.8865,1.9782,2.0309,-0.7633,
0.659888,-0.1190,0.3938,0.5365,-0.6744,0.3504,-3.8865,1.8882,2.7910,-0.4916,
0.677825,-0.1190,0.3938,0.5365,-0.6744,0.3504,-3.8865,1.0509,2.0469,-0.2738,
0.698061,0.0215,0.2988,0.9284,-0.6744,0.3504,-3.8865,1.0509,2.0469,-0.2738,
0.700119,0.0215,0.2988,0.9284,1.6278,-1.0947,0.2674,1.0509,2.0469,-0.2738,
0.701863,0.0215,0.2988,0.9284,1.6278,-1.0947,0.2674,0.5609,1.8120,-0.2631,
0.718304,0.0215,0.2988,0.9284,1.6278,-1.0947,0.2674,0.7531,1.8317,-0.3925,
0.737654,-0.0515,0.4065,1.2352,1.6278,-1.0947,0.2674,0.7531,1.8317,-0.3925,
0.739799,-0.0515,0.4065,1.2352,1.5805,-0.2340,3.5011,0.7531,1.8317,-0.3925,
0.741581,-0.0515,0.4065,1.2352,1.5805,-0.2340,3.5011,1.7055,2.0549,-0.3649,
0.758312,-0.0515,0.4065,1.2352,1.5805,-0.2340,3.5011,2.8091,2.5002,-0.3936,
0.777772,-0.0689,0.4561,0.9232,1.5805,-0.2340,3.5011,2.8091,2.5002,-0.3936,
0.779915,-0.0689,0.4561,0.9232,2.1985,-0.4419,1.0611,2.8091,2.5002,-0.3936,
0.781642,-0.0689,0.4561,0.9232,2.1985,-0.4419,1.0611,3.5532,2.2466,-0.5790,
0.798365,-0.0689,0.4561,0.9232,2.1985,-0.4419,1.0611,3.4115,1.5782,-0.7904,
0.817901,-0.2485,0.5363,0.4556,2.1985,-0.4419,1.0611,3.4115,1.5782,-0.7904,
0.820132,-0.2485,0.5363,0.4556,1.1681,-0.6147,-2.5156,3.4115,1.5782,-0.7904,
0.821684,-0.2485,0.5363,0.4556,1.1681,-0.6147,-2.5156,2.8224,1.2650,-0.9300,
0.837755,-0.2485,0.5363,0.4556,1.1681,-0.6147,-2.5156,2.5700,1.5761,-0.9816,
0.858209,-0.5912,0.6973,0.6723,1.1681,-0.6147,-2.5156,2.5700,1.5761,-0.9816,
0.860265,-0.5912,0.6973,0.6723,-1.6075,0.4242,0.4593,2.5700,1.5761,-0.9816,
0.861623,-0.5912,0.6973,0.6723,-1.6075,0.4242,0.4593,2.6323,1.2698,-0.8453,
0.878224,-0.5912,0.6973,0.6723,-1.6075,0.4242,0.4593,2.4320,0.6147,-0.6386,
0.898454,-0.5470,0.6606,0.3650,-1.6075,0.4242,0.4593,2.4320,0.6147,-0.6386,
0.900467,-0.5470,0.6606,0.3650,-0.7622,-0.3759,-1.7245,2.4320,0.6147,-0.6386,
0.902478,-0.5470,0.6606,0.3650,-0.7622,-0.3759,-1.7245,2.1422,0.4602,-0.5140,
0.918408,-0.5470,0.6606,0.3650,-0.7622,-0.3759,-1.7245,2.1012,1.0296,-0.5060,
0.937607,-0.5321,0.7398,0.4104,-0.7622,-0.3759,-1.7245,2.1012,1.0296,-0.5060,
0.940630,-0.5321,0.7398,0.4104,-0.3289,0.0839,-0.5552,2.1012,1.0296,-0.5060,
0.942803,-0.5321,0.7398,0.4104,-0.3289,0.0839,-0.5552,2.2264,1.3891,-0.5811,
0.957750,-0.5321,0.7398,0.4104,-0.3289,0.0839,-0.5552,1.9340,0.8187,-0.6722,
0.978304,-0.8118,0.7449,0.1502,-0.3289,0.0839,-0.5552,1.9340,0.8187,-0.6722,
0.980371,-0.8118,0.7449,0.1502,-2.6707,-0.0662,-2.2661,1.9340,0.8187,-0.6722,
0.982431,-0.8118,0.7449,0.1502,-2.6707,-0.0662,-2.2661,1.3454,-0.1795,-0.4991,
0.998315,-0.8118,0.7449,0.1502,-2.6707,-0.0662,-2.2661,0.9172,-0.3638,-0.2413,
1.018335,-0.6543,0.7569,0.1666,-2.6707,-0.0662,-2.2661,0.9172,-0.3638,-0.2413,
1.020896,-0.6543,0.7569,0.1666,-1.0203,-0.0211,-1.7987,0.9172,-0.3638,-0.2413,
1.022884,-0.6543,0.7569,0.1666,-1.0203,-0.0211,-1.7987,0.7856,0.2312,-0.0181,
1.038016,-0.6543,0.7569,0.1666,-1.0203,-0.0211,-1.7987,0.8048,0.6365,0.0075,
1.057387,-0.6420,0.7024,0.3203,-1.0203,-0.0211,-1.7987,0.8048,0.6365,0.0075,
1.060568,-0.6420,0.7024,0.3203,-0.8102,-0.6378,0.0480,0.8048,0.6365,0.0075,
1.062759,-0.6420,0.7024,0.3203,-0.8102,-0.6378,0.0480,0.7175,0.2274,-0.0959,
1.077959,-0.6420,0.7024,0.3203,-0.8102,-0.6378,0.0480,0.5694,-0.2344,-0.0905,
1.098350,-0.6452,0.7297,0.2394,-0.8102,-0.6378,0.0480,0.5694,-0.2344,-0.0905,
1.101165,-0.6452,0.7297,0.2394,-0.7818,-0.4066,-0.5416,0.5694,-0.2344,-0.0905,
1.103358,-0.6452,0.7297,0.2394,-0.7818,-0.4066,-0.5416,0.7079,0.0932,-0.0405,
1.117294,-0.6452,0.7297,0.2394,-0.7818,-0.4066,-0.5416,1.1446,1.1638,0.0937,
1.137605,-0.6335,0.7735,0.2619,-0.7818,-0.4066,-0.5416,1.1446,1.1638,0.0937,
1.140499,-0.6335,0.7735,0.2619,-0.5891,-0.0682,0.0964,1.1446,1.1638,0.0937,
1.142354,-0.6335,0.7735,0.2619,-0.5891,-0.0682,0.0964,1.4706,1.5665,0.1087,
1.157241,-0.6335,0.7735,0.2619,-0.5891,-0.0682,0.0964,1.2836,0.9587,0.0842,
1.177649,-0.6132,0.7837,-0.0193,-0.5891,-0.0682,0.0964,1.2836,0.9587,0.0842,
1.179785,-0.6132,0.7837,-0.0193,-0.2939,-0.0944,-1.9361,1.2836,0.9587,0.0842,
1.181759,-0.6132,0.7837,-0.0193,-0.2939,-0.0944,-1.9361,0.8767,0.2407,0.0186,
1.198046,-0.6132,0.7837,-0.0193,-0.2939,-0.0944,-1.9361,0.4820,-0.0783,-0.0575,
1.218012,-0.5687,0.7803,-0.0115,-0.2939,-0.0944,-1.9361,0.4820,-0.0783,-0.0575,
1.220455,-0.5687,0.7803,-0.0115,0.1636,-0.1647,-1.6059,0.4820,-0.0783,-0.0575,
1.222299,-0.5687,0.7803,-0.0115,0.1636,-0.1647,-1.6059,0.2562,0.1294,-0.0192,
1.237404,-0.5687,0.7803,-0.0115,0.1636,-0.1647,-1.6059,0.2892,0.2152,0.0362,
1.257168,-0.5626,0.8302,0.0242,0.1636,-0.1647,-1.6059,0.2892,0.2152,0.0362,
1.259320,-0.5626,0.8302,0.0242,0.2333,0.3031,-1.1026,0.2892,0.2152,0.0362,
1.261081,-0.5626,0.8302,0.0242,0.2333,0.3031,-1.1026,0.1886,-0.1023,0.0916,
1.277704,-0.5626,0.8302,0.0242,0.2333,0.3031,-1.1026,-0.0943,-0.5428,-0.0282,
1.297149,-0.5954,0.8221,0.0518,0.2333,0.3031,-1.1026,-0.0943,-0.5428,-0.0282,
1.300186,-0.5954,0.8221,0.0518,-0.1117,0.2106,-0.8562,-0.0943,-0.5428,-0.0282,
1.302708,-0.5954,0.8221,0.0518,-0.1117,0.2106,-0.8562,-0.2109,-0.3883,-0.0208,
1.317756,-0.5954,0.8221,0.0518,-0.1117,0.2106,-0.8562,0.1284,0.2658,0.0623,
1.337213,-0.5580,0.8416,0.1092,-0.1117,0.2106,-0.8562,0.1284,0.2658,0.0623,
1.340306,-0.5580,0.8416,0.1092,0.2414,0.3930,-0.2966,0.1284,0.2658,0.0623,
1.342248,-0.5580,0.8416,0.1092,0.2414,0.3930,-0.2966,0.3089,0.3696,0.0666,
1.359839,-0.5580,0.8416,0.1092,0.2414,0.3930,-0.2966,0.2445,0.0916,-0.0506,
1.377803,-0.6113,0.8153,0.1339,0.2414,0.3930,-0.2966,0.2445,0.0916,-0.0506,
1.380123,-0.6113,0.8153,0.1339,-0.2712,0.1173,0.0909,0.2445,0.0916,-0.0506,
1.381847,-0.6113,0.8153,0.1339,-0.2712,0.1173,0.0909,0.2418,-0.1214,-0.0293,
1.397460,-0.6113,0.8153,0.1339,-0.2712,0.1173,0.0909,0.2386,-0.0660,0.0527,
1.417604,-0.4649,0.8148,0.0239,-0.2712,0.1173,0.0909,0.2386,-0.0660,0.0527,
1.419760,-0.4649,0.8148,0.0239,1.1444,0.0886,-0.9171,0.2386,-0.0660,0.0527,
1.421502,-0.4649,0.8148,0.0239,1.1444,0.0886,-0.9171,0.2008,0.2360,-0.0064,
1.437455,-0.4649,0.8148,0.0239,1.1444,0.0886,-0.9171,0.1252,0.3441,-0.1012,
1.457246,-0.5656,0.8685,0.0708,1.1444,0.0886,-0.9171,0.1252,0.3441,-0.1012,
1.459378,-0.5656,0.8685,0.0708,0.1737,0.6087,-0.3262,0.1252,0.3441,-0.1012,
1.461084,-0.5656,0.8685,0.0708,0.1737,0.6087,-0.3262,0.0170,0.2333,-0.1150,
1.476977,-0.5656,0.8685,0.0708,0.1737,0.6087,-0.3262,-0.0868,0.0714,-0.0293,
1.496857,-0.6242,0.9303,0.1749,0.1737,0.6087,-0.3262,-0.0868,0.0714,-0.0293,
1.499776,-0.6242,0.9303,0.1749,-0.3779,1.2282,0.7165,-0.0868,0.0714,-0.0293,
1.502032,-0.6242,0.9303,0.1749,-0.3779,1.2282,0.7165,-0.1049,-0.0959,0.0943,
1.518192,-0.6242,0.9303,0.1749,-0.3779,1.2282,0.7165,0.1108,0.1401,0.2748,
1.536956,-0.2883,1.0271,0.1717,-0.3779,1.2282,0.7165,0.1108,0.1401,0.2748,
1.540124,-0.2883,1.0271,0.1717,2.8320,2.1172,0.6857,0.1108,0.1401,0.2748,
1.541977,-0.2883,1.0271,0.1717,2.8320,2.1172,0.6857,0.5422,0.6242,0.4767,
1.557076,-0.2883,1.0271,0.1717,2.8320,2.1172,0.6857,1.0365,1.1334,0.1417,
1.576962,-0.3569,1.0175,-0.0293,2.8320,2.1172,0.6857,1.0365,1.1334,0.1417,
1.579770,-0.3569,1.0175,-0.0293,2.0612,1.9118,-0.8367,1.0365,1.1334,0.1417,
1.582005,-0.3569,1.0175,-0.0293,2.0612,1.9118,-0.8367,1.0930,0.9854,0.4815,
1.597617,-0.3569,1.0175,-0.0293,2.0612,1.9118,-0.8367,0.5667,0.1140,0.8197,
1.617148,-0.2719,0.9907,-0.0100,2.0612,1.9118,-0.8367,0.5667,0.1140,0.8197,
1.619480,-0.2719,0.9907,-0.0100,2.6474,1.4668,-0.2613,0.5667,0.1140,0.8197,
1.621034,-0.2719,0.9907,-0.0100,2.6474,1.4668,-0.2613,0.1790,0.1641,1.0775,
1.637241,-0.2719,0.9907,-0.0100,2.6474,1.4668,-0.2613,0.1135,0.2189,1.2852,
1.657506,-0.3208,1.0097,0.2392,2.6474,1.4668,-0.2613,0.1135,0.2189,1.2852,
1.659633,-0.3208,1.0097,0.2392,1.7455,1.3947,2.2499,0.1135,0.2189,1.2852,
1.661324,-0.3208,1.0097,0.2392,1.7455,1.3947,2.2499,0.4155,0.0911,1.5569,
1.677232,-0.3208,1.0097,0.2392,1.7455,1.3947,2.2499,0.5875,-0.2503,1.8243,
1.698655,-0.3884,0.8482,0.0889,1.7455,1.3947,2.2499,0.5875,-0.2503,1.8243,
1.701553,-0.3884,0.8482,0.0889,0.4690,-0.5127,0.8942,0.5875,-0.2503,1.8243,
1.703622,-0.3884,0.8482,0.0889,0.4690,-0.5127,0.8942,0.4980,-0.4165,1.9952,
1.716992,-0.3884,0.8482,0.0889,0.4690,-0.5127,0.8942,0.5843,-0.5305,1.9478,
1.737068,-0.4344,0.7820,0.1620,0.4690,-0.5127,0.8942,0.5843,-0.5305,1.9478,
1.739455,-0.4344,0.7820,0.1620,-0.6755,-1.4648,1.6950,0.5843,-0.5305,1.9478,
1.741215,-0.4344,0.7820,0.1620,-0.6755,-1.4648,1.6950,0.7425,-0.5065,1.6048,
1.758826,-0.4344,0.7820,0.1620,-0.6755,-1.4648,1.6950,0.7782,-0.4197,1.4546,
1.776913,-0.5490,0.8768,0.0464,-0.6755,-1.4648,1.6950,0.7782,-0.4197,1.4546,
1.780297,-0.5490,0.8768,0.0464,-2.3014,-0.7139,0.7367,0.7782,-0.4197,1.4546,
1.782444,-0.5490,0.8768,0.0464,-2.3014,-0.7139,0.7367,0.5449,-0.8740,1.6054,
1.796555,-0.5490,0.8768,0.0464,-2.3014,-0.7139,0.7367,0.1150,-1.2591,1.6645,
1.817010,-0.4891,0.7627,-0.0325,-2.3014,-0.7139,0.7367,0.1150,-1.2591,1.6645,
1.820072,-0.4891,0.7627,-0.0325,-2.2701,-1.9978,-0.0430,0.1150,-1.2591,1.6645,
1.822446,-0.4891,0.7627,-0.0325,-2.2701,-1.9978,-0.0430,-0.3499,-1.1638,1.4040,
1.836714,-0.4891,0.7627,-0.0325,-2.2701,-1.9978,-0.0430,-0.7393,-1.1553,0.9454,
1.857068,-0.4727,0.8841,0.0308,-2.2701,-1.9978,-0.0430,-0.7393,-1.1553,0.9454,
1.859941,-0.4727,0.8841,0.0308,-2.4832,-0.9034,0.2558,-0.7393,-1.1553,0.9454,
1.861852,-0.4727,0.8841,0.0308,-2.4832,-0.9034,0.2558,-0.9497,-1.0653,0.4543,
1.876852,-0.4727,0.8841,0.0308,-2.4832,-0.9034,0.2558,-1.1057,-1.0008,0.1225,
1.897115,-0.4918,0.9210,0.0220,-2.4832,-0.9034,0.2558,-1.1057,-1.0008,0.1225,
1.899433,-0.4918,0.9210,0.0220,-2.7012,-0.5350,-0.3023,-1.1057,-1.0008,0.1225,
1.901409,-0.4918,0.9210,0.0220,-2.7012,-0.5350,-0.3023,-1.2490,-1.3081,-0.0032,
1.916877,-0.4918,0.9210,0.0220,-2.7012,-0.5350,-0.3023,-1.2421,-1.3555,-0.1321,
1.937251,-0.4639,0.9491,0.0750,-2.7012,-0.5350,-0.3023,-1.2421,-1.3555,-0.1321,
1.941218,-0.4639,0.9491,0.0750,-2.3784,-0.2003,-0.3535,-1.2421,-1.3555,-0.1321,
1.943441,-0.4639,0.9491,0.0750,-2.3784,-0.2003,-0.3535,-1.0669,-0.9694,-0.2684,
1.956441,-0.4639,0.9491,0.0750,-2.3784,-0.2003,-0.3535,-0.8400,-0.8053,-0.4155,
1.976464,-0.4806,0.9645,0.0462,-2.3784,-0.2003,-0.3535,-0.8400,-0.8053,-0.4155,
1.979313,-0.4806,0.9645,0.0462,-2.4140,0.0379,-1.0545,-0.8400,-0.8053,-0.4155,
1.981281,-0.4806,0.9645,0.0462,-2.4140,0.0379,-1.0545,-0.6131,-0.7984,-0.5262,
1.996739,-0.4806,0.9645,0.0462,-2.4140,0.0379,-1.0545,-0.5433,-0.7675,-0.7350,
2.016625,-0.4588,0.9203,0.0217,-2.4140,0.0379,-1.0545,-0.5433,-0.7675,-0.7350,
2.019554,-0.4588,0.9203,0.0217,-1.9695,-0.2907,-1.5520,-0.5433,-0.7675,-0.7350,
2.021426,-0.4588,0.9203,0.0217,-1.9695,-0.2907,-1.5520,-0.5033,-0.5784,-0.9550,
2.037294,-0.4588,0.9203,0.0217,-1.9695,-0.2907,-1.5520,-0.2738,-0.3366,-1.1974,
2.056971,-0.4703,0.8675,0.1371,-1.9695,-0.2907,-1.5520,-0.2738,-0.3366,-1.1974,
2.059305,-0.4703,0.8675,0.1371,-1.6639,-0.6530,-0.5771,-0.2738,-0.3366,-1.1974,
2.061231,-0.4703,0.8675,0.1371,-1.6639,-0.6530,-0.5771,0.0884,-0.3052,-1.4392,
2.077000,-0.4703,0.8675,0.1371,-1.6639,-0.6530,-0.5771,0.3808,-0.5731,-1.5872,
2.096291,-0.4786,0.8118,0.0645,-1.6639,-0.6530,-0.5771,0.3808,-0.5731,-1.5872,
2.099054,-0.4786,0.8118,0.0645,-1.1858,-1.0138,-1.2208,0.3808,-0.5731,-1.5872,
2.100903,-0.4786,0.8118,0.0645,-1.1858,-1.0138,-1.2208,0.5033,-0.8650,-1.6751,
2.116509,-0.4786,0.8118,0.0645,-1.1858,-1.0138,-1.2208,0.5326,-0.8730,-1.7406,
2.136923,-0.4847,0.8289,0.0535,-1.1858,-1.0138,-1.2208,0.5326,-0.8730,-1.7406,
2.139191,-0.4847,0.8289,0.0535,-0.6802,-0.6222,-1.2419,0.5326,-0.8730,-1.7406,
2.141210,-0.4847,0.8289,0.0535,-0.6802,-0.6222,-1.2419,0.4911,-0.7398,-1.8307,
2.156240,-0.4847,0.8289,0.0535,-0.6802,-0.6222,-1.2419,0.4634,-0.5513,-1.9031,
2.176490,-0.5287,0.8612,0.0708,-0.6802,-0.6222,-1.2419,0.4634,-0.5513,-1.9031,
2.178798,-0.5287,0.8612,0.0708,-0.5035,-0.0151,-0.9819,0.4634,-0.5513,-1.9031,
2.180842,-0.5287,0.8612,0.0708,-0.5035,-0.0151,-0.9819,0.4527,-0.4868,-1.8663,
2.196827,-0.5287,0.8612,0.0708,-0.5035,-0.0151,-0.9819,0.1651,-0.3047,-1.7678,
2.216749,-0.5629,0.8582,-0.0569,-0.5035,-0.0151,-0.9819,0.1651,-0.3047,-1.7678,
2.219090,-0.5629,0.8582,-0.0569,-0.2651,0.2835,-2.1521,0.1651,-0.3047,-1.7678,
2.220906,-0.5629,0.8582,-0.0569,-0.2651,0.2835,-2.1521,-0.2732,-0.1364,-1.7593,
2.237167,-0.5629,0.8582,-0.0569,-0.2651,0.2835,-2.1521,-0.4565,-0.0575,-1.7641,
2.256486,-0.5624,0.8138,0.0459,-0.2651,0.2835,-2.1521,-0.4565,-0.0575,-1.7641,
2.258750,-0.5624,0.8138,0.0459,0.2754,0.2369,-1.2242,-0.4565,-0.0575,-1.7641,
2.260551,-0.5624,0.8138,0.0459,0.2754,0.2369,-1.2242,-0.4192,0.0426,-1.8392,
2.276393,-0.5624,0.8138,0.0459,0.2754,0.2369,-1.2242,-0.1518,0.1305,-1.8674,
2.296843,-0.6626,0.7945,0.0740,0.2754,0.2369,-1.2242,-0.1518,0.1305,-1.8674,
2.299048,-0.6626,0.7945,0.0740,-0.1631,0.4902,-0.9696,-0.1518,0.1305,-1.8674,
2.300895,-0.6626,0.7945,0.0740,-0.1631,0.4902,-0.9696,0.1843,0.0170,-1.7593,
2.316639,-0.6626,0.7945,0.0740,-0.1631,0.4902,-0.9696,0.4975,-0.3169,-1.6309,
2.337188,-0.6108,0.7466,-0.1148,-0.1631,0.4902,-0.9696,0.4975,-0.3169,-1.6309,
2.339344,-0.6108,0.7466,-0.1148,0.7894,0.4031,-2.6983,0.4975,-0.3169,-1.6309,
2.341093,-0.6108,0.7466,-0.1148,0.7894,0.4031,-2.6983,0.7553,-0.6200,-1.3337,
2.356456,-0.6108,0.7466,-0.1148,0.7894,0.4031,-2.6983,0.5784,-0.3478,-1.3167,
2.376134,-0.5956,0.6645,-0.0220,0.7894,0.4031,-2.6983,0.5784,-0.3478,-1.3167,
2.378064,-0.5956,0.6645,-0.0220,1.2512,-0.0981,-1.7091,0.5784,-0.3478,-1.3167,
2.379927,-0.5956,0.6645,-0.0220,1.2512,-0.0981,-1.7091,0.5412,0.2109,-1.3097,
2.395495,-0.5956,0.6645,-0.0220,1.2512,-0.0981,-1.7091,0.9800,0.3537,-1.1558,
2.416387,-0.7122,0.5912,0.2238,1.2512,-0.0981,-1.7091,0.9800,0.3537,-1.1558,
2.418557,-0.7122,0.5912,0.2238,0.4330,-0.5119,0.9818,0.9800,0.3537,-1.1558,
2.420221,-0.7122,0.5912,0.2238,0.4330,-0.5119,0.9818,1.8067,-0.0021,-1.0115,
2.435551,-0.7122,0.5912,0.2238,0.4330,-0.5119,0.9818,2.3233,-0.0794,-0.9507,
2.456100,-0.7842,0.6303,-0.0103,0.4330,-0.5119,0.9818,2.3233,-0.0794,-0.9507,
2.458022,-0.7842,0.6303,-0.0103,-0.0430,0.0724,-0.8067,2.3233,-0.0794,-0.9507,
2.459791,-0.7842,0.6303,-0.0103,-0.0430,0.0724,-0.8067,2.2866,-0.3952,-0.7420,
2.475942,-0.7842,0.6303,-0.0103,-0.0430,0.0724,-0.8067,1.6304,-0.3084,-0.7265,
2.495885,-0.5243,0.5394,0.0608,-0.0430,0.0724,-0.8067,1.6304,-0.3084,-0.7265,
2.497931,-0.5243,0.5394,0.0608,2.6735,-0.6325,0.2526,1.6304,-0.3084,-0.7265,
2.499671,-0.5243,0.5394,0.0608,2.6735,-0.6325,0.2526,0.3457,1.0812,-0.6376,
2.516016,-0.5243,0.5394,0.0608,2.6735,-0.6325,0.2526,-0.5529,0.9667,-0.2354,
2.536910,-0.7283,0.3596,0.2384,2.6735,-0.6325,0.2526,-0.5529,0.9667,-0.2354,
2.538789,-0.7283,0.3596,0.2384,0.7832,-2.2581,2.2918,-0.5529,0.9667,-0.2354,
2.540460,-0.7283,0.3596,0.2384,0.7832,-2.2581,2.2918,-0.4309,0.3851,0.2562,
2.555995,-0.7283,0.3596,0.2384,0.7832,-2.2581,2.2918,0.0490,0.3079,0.4985,
2.575255,-0.6987,0.4410,0.0899,0.7832,-2.2581,2.2918,0.0490,0.3079,0.4985,
2.576839,-0.6987,0.4410,0.0899,0.9852,-1.5793,0.9011,0.0490,0.3079,0.4985,
2.577809,-0.6987,0.4410,0.0899,0.9852,-1.5793,0.9011,0.4549,-0.0240,0.5704,
2.595972,-0.6987,0.4410,0.0899,0.9852,-1.5793,0.9011,0.9412,-0.3627,0.6567,
2.615350,-0.7517,0.5651,0.1263,0.9852,-1.5793,0.9011,0.9412,-0.3627,0.6567,
2.616905,-0.7517,0.5651,0.1263,0.3194,-0.5510,1.3656,0.9412,-0.3627,0.6567,
2.618287,-0.7517,0.5651,0.1263,0.3194,-0.5510,1.3656,1.4141,-0.6631,1.0125,
2.635199,-0.7517,0.5651,0.1263,0.3194,-0.5510,1.3656,1.4573,-0.8426,1.1814,
2.655177,-0.6430,0.6601,-0.0735,0.3194,-0.5510,1.3656,1.4573,-0.8426,1.1814,
2.656894,-0.6430,0.6601,-0.0735,1.1170,0.0607,-0.4618,1.4573,-0.8426,1.1814,
2.657992,-0.6430,0.6601,-0.0735,1.1170,0.0607,-0.4618,1.1947,-1.1180,1.4477,
2.675864,-0.6430,0.6601,-0.0735,1.1170,0.0607,-0.4618,1.0482,-1.4093,2.0544,
2.695801,-0.3999,0.7383,-0.0963,1.1170,0.0607,-0.4618,1.0482,-1.4093,2.0544,
2.697782,-0.3999,0.7383,-0.0963,3.0456,0.3343,-0.7511,1.0482,-1.4093,2.0544,
2.699601,-0.3999,0.7383,-0.0963,3.0456,0.3343,-0.7511,1.1755,-0.9705,2.3106,
2.715728,-0.3999,0.7383,-0.0963,3.0456,0.3343,-0.7511,1.3737,-0.3989,2.4544,
2.736611,-0.5871,0.9582,-0.1336,3.0456,0.3343,-0.7511,1.3737,-0.3989,2.4544,
2.738611,-0.5871,0.9582,-0.1336,0.5180,1.8606,-0.9240,1.3737,-0.3989,2.4544,
2.740308,-0.5871,0.9582,-0.1336,0.5180,1.8606,-0.9240,1.7635,-0.3212,2.5598,
2.755656,-0.5871,0.9582,-0.1336,0.5180,1.8606,-0.9240,2.3079,0.2045,2.7633,
2.775094,-0.7454,0.9919,-0.3349,0.5180,1.8606,-0.9240,2.3079,0.2045,2.7633,
2.776738,-0.7454,0.9919,-0.3349,-1.8653,1.6230,-2.2752,2.3079,0.2045,2.7633,
2.777816,-0.7454,0.9919,-0.3349,-1.8653,1.6230,-2.2752,2.4490,-0.1065,2.6094,
2.795562,-0.7454,0.9919,-0.3349,-1.8653,1.6230,-2.2752,1.9825,-1.3007,2.4789,
2.815328,-0.8903,1.0627,-0.3616,-1.8653,1.6230,-2.2752,1.9825,-1.3007,2.4789,
2.817431,-0.8903,1.0627,-0.3616,-4.0870,1.9242,-1.9388,1.9825,-1.3007,2.4789,
2.819444,-0.8903,1.0627,-0.3616,-4.0870,1.9242,-1.9388,1.4813,-3.1899,2.7431,
2.834984,-0.8903,1.0627,-0.3616,-4.0870,1.9242,-1.9388,1.5894,-3.7913,2.6680,
2.854927,-0.2008,1.2882,-0.3220,-4.0870,1.9242,-1.9388,1.5894,-3.7913,2.6680,
2.857004,-0.2008,1.2882,-0.3220,1.9509,3.7685,-1.6121,1.5894,-3.7913,2.6680,
2.858854,-0.2008,1.2882,-0.3220,1.9509,3.7685,-1.6121,2.0251,-2.7702,1.5590,
2.875402,-0.2008,1.2882,-0.3220,1.9509,3.7685,-1.6121,1.9367,-1.9729,0.6381,
2.894851,-0.3711,1.0798,-0.3770,1.9509,3.7685,-1.6121,1.9367,-1.9729,0.6381,
2.896775,-0.3711,1.0798,-0.3770,0.0522,1.6946,-1.8051,1.9367,-1.9729,0.6381,
2.898602,-0.3711,1.0798,-0.3770,0.0522,1.6946,-1.8051,1.2128,-1.3492,0.2152,
2.915466,-0.3711,1.0798,-0.3770,0.0522,1.6946,-1.8051,0.6088,-0.5475,-0.0964,
2.935007,-0.2443,0.9311,-0.2045,0.0522,1.6946,-1.8051,0.6088,-0.5475,-0.0964,
2.937096,-0.2443,0.9311,-0.2045,1.3484,0.2997,0.0671,0.6088,-0.5475,-0.0964,
2.938799,-0.2443,0.9311,-0.2045,1.3484,0.2997,0.0671,0.5667,0.4740,-0.1822,
2.954554,-0.2443,0.9311,-0.2045,1.3484,0.2997,0.0671,0.4607,1.0551,-0.1768,
2.976003,-0.2143,0.9765,-0.5047,1.3484,0.2997,0.0671,0.4607,1.0551,-0.1768,
2.977849,-0.2143,0.9765,-0.5047,1.6375,0.8171,-2.5806,0.4607,1.0551,-0.1768,
2.979596,-0.2143,0.9765,-0.5047,1.6375,0.8171,-2.5806,-0.1374,1.0717,-0.1177,
2.995201,-0.2143,0.9765,-0.5047,1.6375,0.8171,-2.5806,-0.5720,0.7132,0.1550,
3.015309,-0.2968,0.8382,-0.1803,1.6375,0.8171,-2.5806,-0.5720,0.7132,0.1550,
3.017530,-0.2968,0.8382,-0.1803,0.7118,-0.5810,0.6204,-0.5720,0.7132,0.1550,
3.019408,-0.2968,0.8382,-0.1803,0.7118,-0.5810,0.6204,-0.3526,0.3574,0.4922,
3.035706,-0.2968,0.8382,-0.1803,0.7118,-0.5810,0.6204,0.0250,0.2147,0.4852,
3.054563,-0.3137,0.8841,-0.3210,0.7118,-0.5810,0.6204,0.0250,0.2147,0.4852,
3.056491,-0.3137,0.8841,-0.3210,0.3304,-0.2156,-0.7541,0.0250,0.2147,0.4852,
3.058486,-0.3137,0.8841,-0.3210,0.3304,-0.2156,-0.7541,0.0565,0.1886,0.3190,
3.075358,-0.3137,0.8841,-0.3210,0.3304,-0.2156,-0.7541,-0.1832,0.2551,0.4240,
3.094996,-0.4161,0.6608,-0.1011,0.3304,-0.2156,-0.7541,-0.1832,0.2551,0.4240,
3.097084,-0.4161,0.6608,-0.1011,-0.8255,-2.4591,1.4075,-0.1832,0.2551,0.4240,
3.098916,-0.4161,0.6608,-0.1011,-0.8255,-2.4591,1.4075,-0.2743,0.7718,0.5625,
3.114981,-0.4161,0.6608,-0.1011,-0.8255,-2.4591,1.4075,-0.0037,1.3667,1.1329,
3.134657,-0.2946,0.8539,-0.1512,-0.8255,-2.4591,1.4075,-0.0037,1.3667,1.1329,
3.136793,-0.2946,0.8539,-0.1512,-0.0417,-0.6839,0.9960,-0.0037,1.3667,1.1329,
3.138708,-0.2946,0.8539,-0.1512,-0.0417,-0.6839,0.9960,0.0181,0.7111,1.3769,
3.154798,-0.2946,0.8539,-0.1512,-0.0417,-0.6839,0.9960,0.3979,0.8453,1.4408,
3.174873,-0.4046,0.9806,-0.4867,-0.0417,-0.6839,0.9960,0.3979,0.8453,1.4408,
3.177335,-0.4046,0.9806,-0.4867,-1.6669,0.4521,-2.1201,0.3979,0.8453,1.4408,
3.179276,-0.4046,0.9806,-0.4867,-1.6669,0.4521,-2.1201,0.5076,1.3476,1.3428,
3.195430,-0.4046,0.9806,-0.4867,-1.6669,0.4521,-2.1201,0.1214,0.8378,1.5697,
3.214505,-0.2939,0.9298,-0.4285,-1.6669,0.4521,-2.1201,0.1214,0.8378,1.5697,
3.217278,-0.2939,0.9298,-0.4285,-1.1964,-0.1126,-1.3296,0.1214,0.8378,1.5697,
3.219686,-0.2939,0.9298,-0.4285,-1.1964,-0.1126,-1.3296,-0.1790,-0.1907,1.7673,
3.234742,-0.2939,0.9298,-0.4285,-1.1964,-0.1126,-1.3296,-0.2232,-0.6983,1.7976,
3.254903,-0.1163,1.1106,-0.3486,-1.1964,-0.1126,-1.3296,-0.2232,-0.6983,1.7976,
3.257166,-0.1163,1.1106,-0.3486,-0.0599,1.5405,-0.6410,-0.2232,-0.6983,1.7976,
3.259140,-0.1163,1.1106,-0.3486,-0.0599,1.5405,-0.6410,-0.0884,-0.7803,1.8323,
3.274609,-0.1163,1.1106,-0.3486,-0.0599,1.5405,-0.6410,-0.3302,-1.4376,1.8264,
3.294685,0.2240,1.0131,-0.3213,-0.0599,1.5405,-0.6410,-0.3302,-1.4376,1.8264,
3.297180,0.2240,1.0131,-0.3213,2.7079,0.5071,-0.4764,-0.3302,-1.4376,1.8264,
3.298824,0.2240,1.0131,-0.3213,2.7079,0.5071,-0.4764,-0.7542,-2.0879,1.6954,
3.314563,0.2240,1.0131,-0.3213,2.7079,0.5071,-0.4764,-0.5081,-0.7531,1.2256,
3.335108,0.3200,0.9799,0.0139,2.7079,0.5071,-0.4764,-0.5081,-0.7531,1.2256,
3.337127,0.3200,0.9799,0.0139,3.2014,0.0935,2.5309,-0.5081,-0.7531,1.2256,
3.338908,0.3200,0.9799,0.0139,3.2014,0.0935,2.5309,-0.0415,0.4165,0.5646,
3.354646,0.3200,0.9799,0.0139,3.2014,0.0935,2.5309,0.2099,0.6221,-0.1944,
3.374670,0.2138,1.1150,-0.2763,3.2014,0.0935,2.5309,0.2099,0.6221,-0.1944,
3.377665,0.2138,1.1150,-0.2763,2.0292,1.4248,-0.2849,0.2099,0.6221,-0.1944,
3.379633,0.2138,1.1150,-0.2763,2.0292,1.4248,-0.2849,0.1108,0.8559,-0.6546,
3.394796,0.2138,1.1150,-0.2763,2.0292,1.4248,-0.2849,-0.1300,1.1963,-1.0610,
3.414484,0.0105,0.8773,-0.2739,2.0292,1.4248,-0.2849,-0.1300,1.1963,-1.0610,
3.417642,0.0105,0.8773,-0.2739,0.2232,-0.9048,-0.2631,-0.1300,1.1963,-1.0610,
3.419643,0.0105,0.8773,-0.2739,0.2232,-0.9048,-0.2631,-0.2775,1.6922,-1.2815,
3.435309,0.0105,0.8773,-0.2739,0.2232,-0.9048,-0.2631,-0.2349,1.6852,-1.2778,
3.454532,-0.1226,0.8372,-0.3261,0.2232,-0.9048,-0.2631,-0.2349,1.6852,-1.2778,
3.457740,-0.1226,0.8372,-0.3261,-0.7663,-1.3048,-0.8415,-0.2349,1.6852,-1.2778,
3.460105,-0.1226,0.8372,-0.3261,-0.7663,-1.3048,-0.8415,-0.2519,0.7686,-0.7420,
3.474474,-0.1226,0.8372,-0.3261,-0.7663,-1.3048,-0.8415,-0.3292,0.0325,-0.2668,
3.494354,-0.1229,0.8905,-0.2651,-0.7663,-1.3048,-0.8415,-0.3292,0.0325,-0.2668,
3.496803,-0.1229,0.8905,-0.2651,-0.6151,-0.7969,-0.3347,-0.3292,0.0325,-0.2668,
3.498808,-0.1229,0.8905,-0.2651,-0.6151,-0.7969,-0.3347,-0.3835,-0.3734,-0.0666,
3.514676,-0.1229,0.8905,-0.2651,-0.6151,-0.7969,-0.3347,-0.4128,-0.4240,0.0016,
3.534820,-0.0562,0.9985,-0.2111,-0.6151,-0.7969,-0.3347,-0.4128,-0.4240,0.0016,
3.537245,-0.0562,0.9985,-0.2111,0.0827,0.2298,0.0446,-0.4128,-0.4240,0.0016,
3.538976,-0.0562,0.9985,-0.2111,0.0827,0.2298,0.0446,-0.4868,-0.4218,-0.1236,
3.556076,-0.0562,0.9985,-0.2111,0.0827,0.2298,0.0446,-0.7313,-0.2541,-0.2493,
3.574842,-0.0992,0.9186,-0.2783,0.0827,0.2298,0.0446,-0.7313,-0.2541,-0.2493,
3.576930,-0.0992,0.9186,-0.2783,-0.2398,-0.5921,-0.8342,-0.7313,-0.2541,-0.2493,
3.579016,-0.0992,0.9186,-0.2783,-0.2398,-0.5921,-0.8342,-1.0168,0.4943,-0.2695,
3.594692,-0.0992,0.9186,-0.2783,-0.2398,-0.5921,-0.8342,-0.6748,0.2882,-0.3302,
3.614527,-0.1024,1.0696,0.0476,-0.2398,-0.5921,-0.8342,-0.6748,0.2882,-0.3302,
3.617783,-0.1024,1.0696,0.0476,-0.1822,0.8361,2.0343,-0.6748,0.2882,-0.3302,
3.619316,-0.1024,1.0696,0.0476,-0.1822,0.8361,2.0343,-0.2786,-0.5987,-0.2168,
3.634905,-0.1024,1.0696,0.0476,-0.1822,0.8361,2.0343,-0.1981,-0.8879,0.0905,
3.654855,-0.1138,0.9665,-0.1160,-0.1822,0.8361,2.0343,-0.1981,-0.8879,0.0905,
3.657121,-0.1138,0.9665,-0.1160,-0.2238,-0.1873,0.3060,-0.1981,-0.8879,0.0905,
3.659162,-0.1138,0.9665,-0.1160,-0.2238,-0.1873,0.3060,-0.3611,-0.3776,0.2802,
3.675297,-0.1138,0.9665,-0.1160,-0.2238,-0.1873,0.3060,-0.4698,-0.0240,0.2328,
3.695654,-0.0980,0.9203,-0.1251,-0.2238,-0.1873,0.3060,-0.4698,-0.0240,0.2328,
3.698001,-0.0980,0.9203,-0.1251,-0.1532,-0.6709,0.0496,-0.4698,-0.0240,0.2328,
3.699915,-0.0980,0.9203,-0.1251,-0.1532,-0.6709,0.0496,-0.5055,-0.0069,0.2253,
3.715019,-0.0980,0.9203,-0.1251,-0.1532,-0.6709,0.0496,-0.5300,-0.0341,0.2956,
3.734327,-0.1253,0.8822,-0.1622,-0.1532,-0.6709,0.0496,-0.5300,-0.0341,0.2956,
3.736777,-0.1253,0.8822,-0.1622,-0.5144,-1.0753,-0.5094,-0.5300,-0.0341,0.2956,
3.738869,-0.1253,0.8822,-0.1622,-0.5144,-1.0753,-0.5094,-0.5619,0.0469,0.3457,
3.756088,-0.1253,0.8822,-0.1622,-0.5144,-1.0753,-0.5094,-0.6013,0.1800,0.3696,
3.774916,-0.1490,1.0092,-0.1678,-0.5144,-1.0753,-0.5094,-0.6013,0.1800,0.3696,
3.778217,-0.1490,1.0092,-0.1678,-0.1946,0.2856,-0.1233,-0.6013,0.1800,0.3696,
3.780273,-0.1490,1.0092,-0.1678,-0.1946,0.2856,-0.1233,-0.6748,0.2344,0.3787,
3.794554,-0.1490,1.0092,-0.1678,-0.1946,0.2856,-0.1233,-0.7553,0.2280,0.4085,
3.814000,-0.1586,1.0095,-0.1036,-0.1946,0.2856,-0.1233,-0.7553,0.2280,0.4085,
3.816939,-0.1586,1.0095,-0.1036,-0.4434,0.2308,0.2431,-0.7553,0.2280,0.4085,
3.818639,-0.1586,1.0095,-0.1036,-0.4434,0.2308,0.2431,-0.7515,0.2583,0.3840,
3.834372,-0.1586,1.0095,-0.1036,-0.4434,0.2308,0.2431,-0.7207,0.3483,0.2535,
3.853769,-0.1121,0.9120,-0.1048,-0.4434,0.2308,0.2431,-0.7207,0.3483,0.2535,
3.856862,-0.1121,0.9120,-0.1048,0.2004,-0.7064,0.1881,-0.7207,0.3483,0.2535,
3.858594,-0.1121,0.9120,-0.1048,0.2004,-0.7064,0.1881,-0.7068,0.4671,0.1358,
3.874678,-0.1121,0.9120,-0.1048,0.2004,-0.7064,0.1881,-0.6754,0.4634,0.1092,
3.894005,-0.0428,1.1514,-0.0384,0.2004,-0.7064,0.1881,-0.6754,0.4634,0.1092,
3.897393,-0.0428,1.1514,-0.0384,0.8045,1.6021,0.5922,-0.6754,0.4634,0.1092,
3.899323,-0.0428,1.1514,-0.0384,0.8045,1.6021,0.5922,-0.4996,0.3846,0.0527,
3.913624,-0.0428,1.1514,-0.0384,0.8045,1.6021,0.5922,-0.3553,0.1800,0.0154,
3.934438,0.0635,1.0505,-0.0445,0.8045,1.6021,0.5922,-0.3553,0.1800,0.0154,
3.936666,0.0635,1.0505,-0.0445,1.8014,0.5935,0.3766,-0.3553,0.1800,0.0154,
3.938303,0.0635,1.0505,-0.0445,1.8014,0.5935,0.3766,-0.3281,-0.0868,0.0277,
3.954417,0.0635,1.0505,-0.0445,1.8014,0.5935,0.3766,-0.3425,-0.3574,0.0799,
3.974021,0.1542,1.1048,-0.0288,1.8014,0.5935,0.3766,-0.3425,-0.3574,0.0799,
3.976343,0.1542,1.1048,-0.0288,2.6565,1.1101,0.3871,-0.3425,-0.3574,0.0799,
3.977913,0.1542,1.1048,-0.0288,2.6565,1.1101,0.3871,-0.3430,-0.5454,0.1273,
3.994519,0.1542,1.1048,-0.0288,2.6565,1.1101,0.3871,-0.3388,-0.6077,0.1481,
4.013910,0.1546,1.0122,-0.0266,2.6565,1.1101,0.3871,-0.3388,-0.6077,0.1481,
4.017418,0.1546,1.0122,-0.0266,2.5810,0.1839,0.2478,-0.3388,-0.6077,0.1481,
4.019418,0.1546,1.0122,-0.0266,2.5810,0.1839,0.2478,-0.3973,-0.4815,0.1747,
4.034591,0.1546,1.0122,-0.0266,2.5810,0.1839,0.2478,-0.5278,-0.1955,0.1491,
4.053964,0.0288,0.9565,0.0117,2.5810,0.1839,0.2478,-0.5278,-0.1955,0.1491,
4.056270,0.0288,0.9565,0.0117,1.2305,-0.3825,0.4246,-0.5278,-0.1955,0.1491,
4.058025,0.0288,0.9565,0.0117,1.2305,-0.3825,0.4246,-0.6642,0.0879,0.0836,
4.073728,0.0288,0.9565,0.0117,1.2305,-0.3825,0.4246,-0.8176,0.2290,-0.0048,
4.093872,-0.0760,1.0344,0.0657,1.2305,-0.3825,0.4246,-0.8176,0.2290,-0.0048,
4.096951,-0.0760,1.0344,0.0657,0.1550,0.3718,0.6642,-0.8176,0.2290,-0.0048,
4.098723,-0.0760,1.0344,0.0657,0.1550,0.3718,0.6642,-0.9635,0.1358,-0.0352,
4.114414,-0.0760,1.0344,0.0657,0.1550,0.3718,0.6642,-1.0493,-0.2056,0.0272,
4.134029,-0.0147,0.9731,0.1581,0.1550,0.3718,0.6642,-1.0493,-0.2056,0.0272,
4.136387,-0.0147,0.9731,0.1581,0.7224,-0.2245,1.1600,-1.0493,-0.2056,0.0272,
4.138084,-0.0147,0.9731,0.1581,0.7224,-0.2245,1.1600,-1.0392,-0.6493,0.0975,
4.156704,-0.0147,0.9731,0.1581,0.7224,-0.2245,1.1600,-0.9188,-0.9870,0.1150,
4.174170,0.0943,0.9843,0.2145,0.7224,-0.2245,1.1600,-0.9188,-0.9870,0.1150,
4.176307,0.0943,0.9843,0.2145,1.6825,-0.0967,1.2831,-0.9188,-0.9870,0.1150,
4.177946,0.0943,0.9843,0.2145,1.6825,-0.0967,1.2831,-0.7372,-1.1654,0.0666,
4.193963,0.0943,0.9843,0.2145,1.6825,-0.0967,1.2831,-0.5529,-1.1217,0.0336,
4.213615,0.0799,0.9811,0.2284,1.6825,-0.0967,1.2831,-0.5529,-1.1217,0.0336,
4.215920,0.0799,0.9811,0.2284,1.4300,-0.1051,1.1116,-0.5529,-1.1217,0.0336,
4.217663,0.0799,0.9811,0.2284,1.4300,-0.1051,1.1116,-0.3143,-0.8634,0.0053,
4.233782,0.0799,0.9811,0.2284,1.4300,-0.1051,1.1116,-0.0479,-0.6242,0.0043,
4.253495,0.0723,1.0061,0.2372,1.4300,-0.1051,1.1116,-0.0479,-0.6242,0.0043,
4.255756,0.0723,1.0061,0.2372,1.2785,0.1482,1.0840,-0.0479,-0.6242,0.0043,
4.257413,0.0723,1.0061,0.2372,1.2785,0.1482,1.0840,0.1965,-0.4751,0.0032,
4.273614,0.0723,1.0061,0.2372,1.2785,0.1482,1.0840,0.3585,-0.4682,0.0298,
4.293781,0.0921,1.0283,0.1798,1.2785,0.1482,1.0840,0.3585,-0.4682,0.0298,
4.296570,0.0921,1.0283,0.1798,1.4082,0.3529,0.5989,0.3585,-0.4682,0.0298,
4.298391,0.0921,1.0283,0.1798,1.4082,0.3529,0.5989,0.4772,-0.4144,0.0320,
4.313699,0.0921,1.0283,0.1798,1.4082,0.3529,0.5989,0.6216,-0.1907,0.0469,
4.333855,0.0110,1.0378,0.1300,1.4082,0.3529,0.5989,0.6216,-0.1907,0.0469,
4.336172,0.0110,1.0378,0.1300,0.5609,0.4227,0.3022,0.6216,-0.1907,0.0469,
4.337752,0.0110,1.0378,0.1300,0.5609,0.4227,0.3022,0.8304,0.2690,0.0810,
4.353366,0.0110,1.0378,0.1300,0.5609,0.4227,0.3022,1.0466,0.5577,0.1017,
4.373034,-0.0169,0.9721,0.1007,0.5609,0.4227,0.3022,1.0466,0.5577,0.1017,
4.375560,-0.0169,0.9721,0.1007,0.2424,-0.2517,0.3613,1.0466,0.5577,0.1017,
4.377168,-0.0169,0.9721,0.1007,0.2424,-0.2517,0.3613,1.1729,0.3856,0.2344,
4.392862,-0.0169,0.9721,0.1007,0.2424,-0.2517,0.3613,1.2208,0.0921,0.3441,
4.412781,0.0782,0.9315,0.0024,0.2424,-0.2517,0.3613,1.2208,0.0921,0.3441,
4.414866,0.0782,0.9315,0.0024,1.0427,-0.6721,-0.1488,1.2208,0.0921,0.3441,
4.415962,0.0782,0.9315,0.0024,1.0427,-0.6721,-0.1488,1.2394,0.0517,0.3318,
4.433498,0.0782,0.9315,0.0024,1.0427,-0.6721,-0.1488,1.1990,0.1939,0.3095,
4.453705,0.1803,0.9653,-0.1617,1.0427,-0.6721,-0.1488,1.1990,0.1939,0.3095,
4.456710,0.1803,0.9653,-0.1617,1.8822,-0.3418,-1.2812,1.1990,0.1939,0.3095,
4.458010,0.1803,0.9653,-0.1617,1.8822,-0.3418,-1.2812,1.0429,0.3041,0.2977,
4.473229,0.1803,0.9653,-0.1617,1.8822,-0.3418,-1.2812,0.7851,0.4000,0.1875,
4.493295,0.2516,0.9975,-0.3340,1.8822,-0.3418,-1.2812,0.7851,0.4000,0.1875,
4.496566,0.2516,0.9975,-0.3340,2.4178,-0.0063,-2.5777,0.7851,0.4000,0.1875,
4.498760,0.2516,0.9975,-0.3340,2.4178,-0.0063,-2.5777,0.4698,0.4400,0.0341,
4.513671,0.2516,0.9975,-0.3340,2.4178,-0.0063,-2.5777,0.1678,0.2860,-0.0863,
4.533005,0.1512,0.8878,-0.2587,2.4178,-0.0063,-2.5777,0.1678,0.2860,-0.0863,
4.534410,0.1512,0.8878,-0.2587,1.3860,-1.0683,-1.6800,0.1678,0.2860,-0.0863,
4.536329,0.1512,0.8878,-0.2587,1.3860,-1.0683,-1.6800,-0.0059,0.0000,-0.1204,
4.552412,0.1512,0.8878,-0.2587,1.3860,-1.0683,-1.6800,-0.1294,-0.3004,-0.1497,
4.572990,0.1717,0.9315,-0.1730,1.3860,-1.0683,-1.6800,-0.1294,-0.3004,-0.1497,
4.573990,0.1717,0.9315,-0.1730,1.5993,-0.6394,-0.8352,-0.1294,-0.3004,-0.1497,
4.574736,0.1717,0.9315,-0.1730,1.5993,-0.6394,-0.8352,-0.2541,-0.4405,-0.1992,
4.592705,0.1717,0.9315,-0.1730,1.5993,-0.6394,-0.8352,-0.3435,-0.4442,-0.2471,
4.613399,0.1534,0.9870,-0.1065,1.5993,-0.6394,-0.8352,-0.3435,-0.4442,-0.2471,
4.615808,0.1534,0.9870,-0.1065,1.4673,-0.1037,-0.2733,-0.3435,-0.4442,-0.2471,
4.617573,0.1534,0.9870,-0.1065,1.4673,-0.1037,-0.2733,-0.3766,-0.3143,-0.3350,
4.633662,0.1534,0.9870,-0.1065,1.4673,-0.1037,-0.2733,-0.3739,-0.1944,-0.4362,
4.652796,0.0960,0.9814,-0.1305,1.4673,-0.1037,-0.2733,-0.3739,-0.1944,-0.4362,
4.655190,0.0960,0.9814,-0.1305,1.0123,-0.1672,-0.6265,-0.3739,-0.1944,-0.4362,
4.656992,0.0960,0.9814,-0.1305,1.0123,-0.1672,-0.6265,-0.3798,-0.1358,-0.5300,
4.672691,0.0960,0.9814,-0.1305,1.0123,-0.1672,-0.6265,-0.4272,-0.1097,-0.5992,
4.692880,0.0777,0.9543,-0.1673,1.0123,-0.1672,-0.6265,-0.4272,-0.1097,-0.5992,
4.695200,0.0777,0.9543,-0.1673,1.0120,-0.4375,-1.1129,-0.4272,-0.1097,-0.5992,
4.696951,0.0777,0.9543,-0.1673,1.0120,-0.4375,-1.1129,-0.4463,0.0032,-0.6402,
4.712591,0.0777,0.9543,-0.1673,1.0120,-0.4375,-1.1129,-0.4224,0.1198,-0.6631,
4.733071,0.1278,0.9384,-0.1891,1.0120,-0.4375,-1.1129,-0.4224,0.1198,-0.6631,
4.735978,0.1278,0.9384,-0.1891,1.7073,-0.5919,-1.4549,-0.4224,0.1198,-0.6631,
4.737640,0.1278,0.9384,-0.1891,1.7073,-0.5919,-1.4549,-0.4288,0.1225,-0.7127,
4.752362,0.1278,0.9384,-0.1891,1.7073,-0.5919,-1.4549,-0.4799,0.0953,-0.7878,
4.773140,0.1090,0.9965,-0.1747,1.7073,-0.5919,-1.4549,-0.4799,0.0953,-0.7878,
4.777605,0.1090,0.9965,-0.1747,-0.0543,0.1720,-0.0184,-0.4799,0.0953,-0.7878,
4.779903,0.1090,0.9965,-0.1747,-0.0543,0.1720,-0.0184,-0.5619,0.0037,-0.8501,
4.793022,0.1090,0.9965,-0.1747,-0.0543,0.1720,-0.0184,-0.6344,-0.1348,-0.8677,
4.812805,0.0139,1.2054,-0.0472,-0.0543,0.1720,-0.0184,-0.6344,-0.1348,-0.8677,
4.815778,0.0139,1.2054,-0.0472,-0.5929,2.1212,0.8449,-0.6344,-0.1348,-0.8677,
4.817677,0.0139,1.2054,-0.0472,-0.5929,2.1212,0.8449,-0.8469,-0.5065,-0.8693,
4.833112,0.0139,1.2054,-0.0472,-0.5929,2.1212,0.8449,-1.3630,-0.9582,-0.9044,
4.853315,-0.2138,1.2523,0.0384,-0.5929,2.1212,0.8449,-1.3630,-0.9582,-0.9044,
4.856862,-0.2138,1.2523,0.0384,-2.4478,2.5131,1.2686,-1.3630,-0.9582,-0.9044,
4.858508,-0.2138,1.2523,0.0384,-2.4478,2.5131,1.2686,-2.2514,-1.2107,-0.8847,
4.872823,-0.2138,1.2523,0.0384,-2.4478,2.5131,1.2686,-2.9929,-1.1990,-0.4778,
4.892793,-0.0454,0.7549,0.4073,-2.4478,2.5131,1.2686,-2.9929,-1.1990,-0.4778,
4.895090,-0.0454,0.7549,0.4073,-0.4914,-2.4070,3.8192,-2.9929,-1.1990,-0.4778,
4.896897,-0.0454,0.7549,0.4073,-0.4914,-2.4070,3.8192,-3.1409,-1.2645,0.2381,
4.912516,-0.0454,0.7549,0.4073,-0.4914,-2.4070,3.8192,-3.0333,-1.4727,0.6152,
4.932493,0.2211,0.6557,0.8553,-0.4914,-2.4070,3.8192,-3.0333,-1.4727,0.6152,
4.935180,0.2211,0.6557,0.8553,1.9037,-3.2735,6.9609,-3.0333,-1.4727,0.6152,
4.936928,0.2211,0.6557,0.8553,1.9037,-3.2735,6.9609,-2.3995,-0.4165,0.1284,
4.955696,0.2211,0.6557,0.8553,1.9037,-3.2735,6.9609,-2.0682,0.2631,-0.6930,
4.973219,-0.3809,0.6525,1.1260,1.9037,-3.2735,6.9609,-2.0682,0.2631,-0.6930,
4.977428,-0.3809,0.6525,1.1260,-3.8830,-3.1351,8.7271,-2.0682,0.2631,-0.6930,
4.980405,-0.3809,0.6525,1.1260,-3.8830,-3.1351,8.7271,-1.7311,-0.0820,-1.1164,
4.991636,-0.3809,0.6525,1.1260,-3.8830,-3.1351,8.7271,-0.9246,-0.4229,-0.8378,
5.012653,-0.2597,0.8223,0.7818,-3.8830,-3.1351,8.7271,-0.9246,-0.4229,-0.8378,
5.015269,-0.2597,0.8223,0.7818,-2.3533,-1.3343,4.8506,-0.9246,-0.4229,-0.8378,
5.017058,-0.2597,0.8223,0.7818,-2.3533,-1.3343,4.8506,-0.1944,-0.3601,-0.3302,
5.032978,-0.2597,0.8223,0.7818,-2.3533,-1.3343,4.8506,-0.0783,-0.0815,-0.0154,
5.052443,-0.1236,0.6958,0.5064,-2.3533,-1.3343,4.8506,-0.0783,-0.0815,-0.0154,
5.055205,-0.1236,0.6958,0.5064,-0.9501,-2.5307,2.0151,-0.0783,-0.0815,-0.0154,
5.057184,-0.1236,0.6958,0.5064,-0.9501,-2.5307,2.0151,-0.3111,0.0533,0.0474,
5.072550,-0.1236,0.6958,0.5064,-0.9501,-2.5307,2.0151,-0.4953,0.0996,-0.0288,
5.092223,-0.1945,0.7810,0.5829,-0.9501,-2.5307,2.0151,-0.4953,0.0996,-0.0288,
5.095090,-0.1945,0.7810,0.5829,-1.6021,-1.6180,2.5340,-0.4953,0.0996,-0.0288,
5.096836,-0.1945,0.7810,0.5829,-1.6021,-1.6180,2.5340,-0.4368,0.0948,-0.1587,
5.112415,-0.1945,0.7810,0.5829,-1.6021,-1.6180,2.5340,-0.3292,0.0607,-0.2535,
5.132905,-0.2030,0.8106,0.5123,-1.6021,-1.6180,2.5340,-0.3292,0.0607,-0.2535,
5.135708,-0.2030,0.8106,0.5123,-1.5596,-1.2487,1.6324,-0.3292,0.0607,-0.2535,
5.137395,-0.2030,0.8106,0.5123,-1.5596,-1.2487,1.6324,-0.3574,0.0133,-0.2780,
5.151913,-0.2030,0.8106,0.5123,-1.5596,-1.2487,1.6324,-0.4346,0.1332,-0.3238,
5.173257,-0.2746,0.8170,0.5592,-1.5596,-1.2487,1.6324,-0.4346,0.1332,-0.3238,
5.175676,-0.2746,0.8170,0.5592,-2.0878,-1.0955,1.8796,-0.4346,0.1332,-0.3238,
5.177516,-0.2746,0.8170,0.5592,-2.0878,-1.0955,1.8796,-0.4155,0.2663,-0.3925,
5.192102,-0.2746,0.8170,0.5592,-2.0878,-1.0955,1.8796,-0.3350,0.2370,-0.4432,
5.212182,-0.2897,0.8177,0.5775,-2.0878,-1.0955,1.8796,-0.3350,0.2370,-0.4432,
5.215644,-0.2897,0.8177,0.5775,-0.6108,0.0679,0.3616,-0.3350,0.2370,-0.4432,
5.217153,-0.2897,0.8177,0.5775,-0.6108,0.0679,0.3616,-0.2248,0.2567,-0.4613,
5.231989,-0.2897,0.8177,0.5775,-0.6108,0.0679,0.3616,-0.1182,0.3047,-0.5220,
5.252592,-0.2717,0.7642,0.5450,-0.6108,0.0679,0.3616,-0.1182,0.3047,-0.5220,
5.254922,-0.2717,0.7642,0.5450,-0.2157,-0.3701,0.0107,-0.1182,0.3047,-0.5220,
5.256919,-0.2717,0.7642,0.5450,-0.2157,-0.3701,0.0107,-0.0762,0.2711,-0.5337,
5.272488,-0.2717,0.7642,0.5450,-0.2157,-0.3701,0.0107,-0.0868,0.3601,-0.4527,
5.292831,-0.3056,0.7415,0.4920,-0.2157,-0.3701,0.0107,-0.0868,0.3601,-0.4527,
5.295258,-0.3056,0.7415,0.4920,-0.2225,-0.4796,-0.5150,-0.0868,0.3601,-0.4527,
5.297274,-0.3056,0.7415,0.4920,-0.2225,-0.4796,-0.5150,-0.0863,0.4490,-0.4043,
5.312193,-0.3056,0.7415,0.4920,-0.2225,-0.4796,-0.5150,-0.0575,0.3574,-0.3654,
5.332176,-0.3645,0.8018,0.4849,-0.2225,-0.4796,-0.5150,-0.0575,0.3574,-0.3654,
5.334897,-0.3645,0.8018,0.4849,-0.4292,0.0809,-0.3281,-0.0575,0.3574,-0.3654,
5.336682,-0.3645,0.8018,0.4849,-0.4292,0.0809,-0.3281,0.0277,0.2519,-0.2631,
5.356066,-0.3645,0.8018,0.4849,-0.4292,0.0809,-0.3281,0.1518,0.2226,-0.2258,
5.372835,-0.2929,0.7745,0.4468,-0.4292,0.0809,-0.3281,0.1518,0.2226,-0.2258,
5.376325,-0.2929,0.7745,0.4468,0.2463,-0.3045,-0.5341,0.1518,0.2226,-0.2258,
5.378179,-0.2929,0.7745,0.4468,0.2463,-0.3045,-0.5341,0.1774,0.0378,-0.2157,
5.392644,-0.2929,0.7745,0.4468,0.2463,-0.3045,-0.5341,0.1364,-0.0820,-0.1662,
5.412070,-0.2553,0.7793,0.4571,0.2463,-0.3045,-0.5341,0.1364,-0.0820,-0.1662,
5.414890,-0.2553,0.7793,0.4571,0.6666,-0.2651,-0.3866,0.1364,-0.0820,-0.1662,
5.416507,-0.2553,0.7793,0.4571,0.6666,-0.2651,-0.3866,0.0671,-0.0804,-0.1486,
5.432211,-0.2553,0.7793,0.4571,0.6666,-0.2651,-0.3866,0.0330,-0.1529,-0.1374,
5.452521,-0.2651,0.7566,0.5297,0.6666,-0.2651,-0.3866,0.0330,-0.1529,-0.1374,
5.455336,-0.2651,0.7566,0.5297,0.5853,-0.4793,0.3202,0.0330,-0.1529,-0.1374,
5.457462,-0.2651,0.7566,0.5297,0.5853,-0.4793,0.3202,0.0794,-0.1907,-0.1289,
5.472310,-0.2651,0.7566,0.5297,0.5853,-0.4793,0.3202,0.1790,-0.2013,-0.1140,
5.492839,-0.3042,0.7288,0.4593,0.5853,-0.4793,0.3202,0.1790,-0.2013,-0.1140,
5.496990,-0.3042,0.7288,0.4593,0.1117,-0.7407,-0.4457,0.1790,-0.2013,-0.1140,
5.499094,-0.3042,0.7288,0.4593,0.1117,-0.7407,-0.4457,0.2173,-0.1433,-0.0911,
5.512213,-0.3042,0.7288,0.4593,0.1117,-0.7407,-0.4457,0.1896,-0.1481,-0.0751,
5.532975,-0.3037,0.7881,0.4896,0.1117,-0.7407,-0.4457,0.1896,-0.1481,-0.0751,
5.535399,-0.3037,0.7881,0.4896,0.0947,-0.1806,-0.1277,0.1896,-0.1481,-0.0751,
5.537298,-0.3037,0.7881,0.4896,0.0947,-0.1806,-0.1277,0.0900,-0.1193,-0.0549,
5.552151,-0.3037,0.7881,0.4896,0.0947,-0.1806,-0.1277,0.0836,-0.0889,-0.0964,
5.572374,-0.3110,0.7544,0.5226,0.0947,-0.1806,-0.1277,0.0836,-0.0889,-0.0964,
5.574867,-0.3110,0.7544,0.5226,0.0270,-0.5078,0.1928,0.0836,-0.0889,-0.0964,
5.576632,-0.3110,0.7544,0.5226,0.0270,-0.5078,0.1928,0.1609,0.0027,-0.1459,
5.592776,-0.3110,0.7544,0.5226,0.0270,-0.5078,0.1928,0.1236,0.0852,-0.1454,
5.612190,-0.3518,0.8065,0.4566,0.0270,-0.5078,0.1928,0.1236,0.0852,-0.1454,
5.615186,-0.3518,0.8065,0.4566,-0.3108,-0.0054,-0.4020,0.1236,0.0852,-0.1454,
5.617028,-0.3518,0.8065,0.4566,-0.3108,-0.0054,-0.4020,0.0426,0.1380,-0.0788,
5.632045,-0.3518,0.8065,0.4566,-0.3108,-0.0054,-0.4020,-0.0602,0.1768,0.0101,
5.651712,-0.2897,0.7806,0.5380,-0.3108,-0.0054,-0.4020,-0.0602,0.1768,0.0101,
5.655245,-0.2897,0.7806,0.5380,0.3290,-0.2432,0.3899,-0.0602,0.1768,0.0101,
5.657045,-0.2897,0.7806,0.5380,0.3290,-0.2432,0.3899,-0.0703,0.1097,0.0421,
5.671494,-0.2897,0.7806,0.5380,0.3290,-0.2432,0.3899,-0.0762,0.0511,0.0905,
5.691617,-0.2863,0.7788,0.5116,0.3290,-0.2432,0.3899,-0.0762,0.0511,0.0905,
5.693877,-0.2863,0.7788,0.5116,0.3377,-0.2465,0.0936,-0.0762,0.0511,0.0905,
5.695722,-0.2863,0.7788,0.5116,0.3377,-0.2465,0.0936,0.0128,0.0650,0.1369,
5.711676,-0.2863,0.7788,0.5116,0.3377,-0.2465,0.0936,0.0325,0.0762,0.1784,
5.732171,-0.3506,0.8072,0.4918,0.3377,-0.2465,0.0936,0.0325,0.0762,0.1784,
5.736027,-0.3506,0.8072,0.4918,-0.3234,0.0110,-0.0879,0.0325,0.0762,0.1784,
5.737957,-0.3506,0.8072,0.4918,-0.3234,0.0110,-0.0879,-0.0314,0.0634,0.2178,
5.754056,-0.3506,0.8072,0.4918,-0.3234,0.0110,-0.0879,-0.0911,0.0213,0.2338,
5.772423,-0.3110,0.8096,0.5365,-0.3234,0.0110,-0.0879,-0.0911,0.0213,0.2338,
5.774820,-0.3110,0.8096,0.5365,0.0061,0.0286,0.3238,-0.0911,0.0213,0.2338,
5.776414,-0.3110,0.8096,0.5365,0.0061,0.0286,0.3238,-0.0852,0.0394,0.2503,
5.792032,-0.3110,0.8096,0.5365,0.0061,0.0286,0.3238,-0.0591,0.0847,0.2589,
5.811394,-0.2785,0.8135,0.4871,0.0061,0.0286,0.3238,-0.0591,0.0847,0.2589,
5.813548,-0.2785,0.8135,0.4871,0.2558,0.0504,-0.1753,-0.0591,0.0847,0.2589,
5.815273,-0.2785,0.8135,0.4871,0.2558,0.0504,-0.1753,-0.0953,0.0788,0.2631,
5.832281,-0.2785,0.8135,0.4871,0.2558,0.0504,-0.1753,-0.1310,0.0474,0.2530,
5.851395,-0.2529,0.8272,0.5174,0.2558,0.0504,-0.1753,-0.1310,0.0474,0.2530,
5.853716,-0.2529,0.8272,0.5174,0.4197,0.1708,0.0915,-0.1310,0.0474,0.2530,
5.855304,-0.2529,0.8272,0.5174,0.4197,0.1708,0.0915,-0.1337,-0.0442,0.2354,
5.871034,-0.2529,0.8272,0.5174,0.4197,0.1708,0.0915,-0.0506,-0.0959,0.2104,
5.890802,-0.2453,0.8587,0.4666,0.4197,0.1708,0.0915,-0.0506,-0.0959,0.2104,
5.892689,-0.2453,0.8587,0.4666,0.3664,0.4317,-0.4023,-0.0506,-0.0959,0.2104,
5.894010,-0.2453,0.8587,0.4666,0.3664,0.4317,-0.4023,0.0383,-0.0943,0.1747,
5.912223,-0.2453,0.8587,0.4666,0.3664,0.4317,-0.4023,0.0266,-0.0985,0.1534,
5.930360,-0.2678,0.8519,0.4908,0.3664,0.4317,-0.4023,0.0266,-0.0985,0.1534,
5.932301,-0.2678,0.8519,0.4908,0.0574,0.3152,-0.1342,0.0266,-0.0985,0.1534,
5.934011,-0.2678,0.8519,0.4908,0.0574,0.3152,-0.1342,0.0581,-0.2168,0.1268,
5.950849,-0.2678,0.8519,0.4908,0.0574,0.3152,-0.1342,0.1507,-0.2754,0.1507,
5.971063,-0.2773,0.8907,0.4837,0.0574,0.3152,-0.1342,0.1507,-0.2754,0.1507,
5.973291,-0.2773,0.8907,0.4837,-0.1292,0.6372,-0.1574,0.1507,-0.2754,0.1507,
5.975037,-0.2773,0.8907,0.4837,-0.1292,0.6372,-0.1574,0.2067,-0.2258,0.1870,
5.992762,-0.2773,0.8907,0.4837,-0.1292,0.6372,-0.1574,0.2807,-0.2690,0.1348,
6.011132,-0.2937,0.8722,0.4588,-0.1292,0.6372,-0.1574,0.2807,-0.2690,0.1348,
6.014467,-0.2937,0.8722,0.4588,-0.3619,0.3739,-0.3032,0.2807,-0.2690,0.1348,
6.016124,-0.2937,0.8722,0.4588,-0.3619,0.3739,-0.3032,0.3995,-0.3009,0.0788,
6.031092,-0.2937,0.8722,0.4588,-0.3619,0.3739,-0.3032,0.4069,-0.2429,0.1332,
6.051777,-0.2824,0.8563,0.4532,-0.3619,0.3739,-0.3032,0.4069,-0.2429,0.1332,
6.053997,-0.2824,0.8563,0.4532,-0.3291,0.1301,-0.2460,0.4069,-0.2429,0.1332,
6.055872,-0.2824,0.8563,0.4532,-0.3291,0.1301,-0.2460,0.4053,-0.2093,0.1502,
6.072580,-0.2824,0.8563,0.4532,-0.3291,0.1301,-0.2460,0.3888,-0.2104,0.1555,
6.090728,-0.2700,0.8939,0.4671,-0.3291,0.1301,-0.2460,0.3888,-0.2104,0.1555,
6.093019,-0.2700,0.8939,0.4671,-0.0132,0.4222,0.1376,0.3888,-0.2104,0.1555,
6.094905,-0.2700,0.8939,0.4671,-0.0132,0.4222,0.1376,0.4101,-0.2525,0.1614,
6.111208,-0.2700,0.8939,0.4671,-0.0132,0.4222,0.1376,0.4692,-0.2120,0.1545,
6.131580,-0.2707,0.9479,0.4449,-0.0132,0.4222,0.1376,0.4692,-0.2120,0.1545,
6.133991,-0.2707,0.9479,0.4449,-0.1112,0.8540,0.0525,0.4692,-0.2120,0.1545,
6.135731,-0.2707,0.9479,0.4449,-0.1112,0.8540,0.0525,0.4804,-0.1768,0.1475,
6.152030,-0.2707,0.9479,0.4449,-0.1112,0.8540,0.0525,0.4543,-0.1065,0.1715,
6.171895,-0.3154,0.9594,0.4473,-0.1112,0.8540,0.0525,0.4543,-0.1065,0.1715,
6.174171,-0.3154,0.9594,0.4473,-0.6210,0.8730,0.2215,0.4543,-0.1065,0.1715,
6.175942,-0.3154,0.9594,0.4473,-0.6210,0.8730,0.2215,0.4032,-0.0005,0.2541,
6.190880,-0.3154,0.9594,0.4473,-0.6210,0.8730,0.2215,0.3830,0.0325,0.2908,
6.210722,-0.2934,0.9440,0.4307,-0.6210,0.8730,0.2215,0.3830,0.0325,0.2908,
6.212975,-0.2934,0.9440,0.4307,-0.4837,0.6353,0.1941,0.3830,0.0325,0.2908,
6.214707,-0.2934,0.9440,0.4307,-0.4837,0.6353,0.1941,0.4437,0.0517,0.3329,
6.230990,-0.2934,0.9440,0.4307,-0.4837,0.6353,0.1941,0.5012,-0.1001,0.3441,
6.251390,-0.1981,0.9066,0.3511,-0.4837,0.6353,0.1941,0.5012,-0.1001,0.3441,
6.253469,-0.1981,0.9066,0.3511,0.3339,0.1632,-0.4226,0.5012,-0.1001,0.3441,
6.255335,-0.1981,0.9066,0.3511,0.3339,0.1632,-0.4226,0.4948,-0.2780,0.3510,
6.271550,-0.1981,0.9066,0.3511,0.3339,0.1632,-0.4226,0.4687,-0.3356,0.3696,
6.291312,-0.1400,0.8956,0.3288,0.3339,0.1632,-0.4226,0.4687,-0.3356,0.3696,
6.295225,-0.1400,0.8956,0.3288,0.7289,-0.0503,-0.4967,0.4687,-0.3356,0.3696,
6.297736,-0.1400,0.8956,0.3288,0.7289,-0.0503,-0.4967,0.4565,-0.3334,0.3894,
6.310810,-0.1400,0.8956,0.3288,0.7289,-0.0503,-0.4967,0.4549,-0.3766,0.3862,
6.330749,-0.1263,0.8968,0.3731,0.7289,-0.0503,-0.4967,0.4549,-0.3766,0.3862,
6.333953,-0.1263,0.8968,0.3731,0.4458,-0.1460,-0.0183,0.4549,-0.3766,0.3862,
6.336072,-0.1263,0.8968,0.3731,0.4458,-0.1460,-0.0183,0.4522,-0.4165,0.3622,
6.351241,-0.1263,0.8968,0.3731,0.4458,-0.1460,-0.0183,0.4884,-0.4575,0.3089,
6.370553,-0.0943,0.8837,0.3755,0.4458,-0.1460,-0.0183,0.4884,-0.4575,0.3089,
6.372730,-0.0943,0.8837,0.3755,0.4542,-0.3015,-0.0572,0.4884,-0.4575,0.3089,
6.374627,-0.0943,0.8837,0.3755,0.4542,-0.3015,-0.0572,0.5273,-0.4698,0.2205,
6.390272,-0.0943,0.8837,0.3755,0.4542,-0.3015,-0.0572,0.5209,-0.4692,0.1726,
6.410401,-0.0589,0.9139,0.3352,0.4542,-0.3015,-0.0572,0.5209,-0.4692,0.1726,
6.412829,-0.0589,0.9139,0.3352,0.4881,-0.1098,-0.2977,0.5209,-0.4692,0.1726,
6.414316,-0.0589,0.9139,0.3352,0.4881,-0.1098,-0.2977,0.5108,-0.4826,0.1518,
6.430210,-0.0589,0.9139,0.3352,0.4881,-0.1098,-0.2977,0.5587,-0.4778,0.1348,
6.450776,-0.0804,0.9513,0.2917,0.4881,-0.1098,-0.2977,0.5587,-0.4778,0.1348,
6.452951,-0.0804,0.9513,0.2917,0.1573,0.1725,-0.5392,0.5587,-0.4778,0.1348,
6.454858,-0.0804,0.9513,0.2917,0.1573,0.1725,-0.5392,0.6067,-0.3393,0.1220,
6.470803,-0.0804,0.9513,0.2917,0.1573,0.1725,-0.5392,0.6152,-0.2642,0.1449,
6.490309,-0.0552,0.9684,0.2555,0.1573,0.1725,-0.5392,0.6152,-0.2642,0.1449,
6.492489,-0.0552,0.9684,0.2555,0.3016,0.2415,-0.6445,0.6152,-0.2642,0.1449,
6.494178,-0.0552,0.9684,0.2555,0.3016,0.2415,-0.6445,0.5811,-0.2844,0.1891,
6.510719,-0.0552,0.9684,0.2555,0.3016,0.2415,-0.6445,0.4975,-0.2903,0.1832,
6.530555,0.0039,1.0119,0.2792,0.3016,0.2415,-0.6445,0.4975,-0.2903,0.1832,
6.533635,0.0039,1.0119,0.2792,0.7212,0.5833,-0.1942,0.4975,-0.2903,0.1832,
6.535633,0.0039,1.0119,0.2792,0.7212,0.5833,-0.1942,0.4272,-0.2977,0.1598,
6.551282,0.0039,1.0119,0.2792,0.7212,0.5833,-0.1942,0.3936,-0.3015,0.1752,
6.569879,0.0537,0.9977,0.2939,0.7212,0.5833,-0.1942,0.3936,-0.3015,0.1752,
6.572045,0.0537,0.9977,0.2939,1.0267,0.3886,0.0944,0.3936,-0.3015,0.1752,
6.573580,0.0537,0.9977,0.2939,1.0267,0.3886,0.0944,0.3515,-0.2743,0.1704,
6.590394,0.0537,0.9977,0.2939,1.0267,0.3886,0.0944,0.2722,-0.2184,0.1028,
6.610535,0.0577,0.8609,0.3056,1.0267,0.3886,0.0944,0.2722,-0.2184,0.1028,
6.612596,0.0577,0.8609,0.3056,0.8849,-0.9787,0.2731,0.2722,-0.2184,0.1028,
6.614416,0.0577,0.8609,0.3056,0.8849,-0.9787,0.2731,0.2823,-0.3467,0.0091,
6.629902,0.0577,0.8609,0.3056,0.8849,-0.9787,0.2731,0.3734,-0.4874,-0.0282,
6.649809,-0.0086,0.9110,0.2086,0.8849,-0.9787,0.2731,0.3734,-0.4874,-0.0282,
6.652486,-0.0086,0.9110,0.2086,0.1514,-0.5222,-0.5649,0.3734,-0.4874,-0.0282,
6.653945,-0.0086,0.9110,0.2086,0.1514,-0.5222,-0.5649,0.3798,-0.3201,-0.0362,
6.669914,-0.0086,0.9110,0.2086,0.1514,-0.5222,-0.5649,0.3457,-0.2120,-0.0176,
6.690213,0.0049,0.9071,0.2231,0.1514,-0.5222,-0.5649,0.3457,-0.2120,-0.0176,
6.693100,0.0049,0.9071,0.2231,0.2612,-0.5970,-0.2896,0.3457,-0.2120,-0.0176,
6.695002,0.0049,0.9071,0.2231,0.2612,-0.5970,-0.2896,0.3505,-0.4000,-0.0282,
6.710062,0.0049,0.9071,0.2231,0.2612,-0.5970,-0.2896,0.3771,-0.4266,-0.0330,
6.730987,-0.0349,0.9723,0.1996,0.2612,-0.5970,-0.2896,0.3771,-0.4266,-0.0330,
6.733986,-0.0349,0.9723,0.1996,-0.1874,0.0013,-0.3615,0.3771,-0.4266,-0.0330,
6.736276,-0.0349,0.9723,0.1996,-0.1874,0.0013,-0.3615,0.4788,-0.1262,-0.0346,
6.755514,-0.0349,0.9723,0.1996,-0.1874,0.0013,-0.3615,0.6333,0.1534,-0.0836,
6.772727,-0.1356,1.0896,0.2135,-0.1874,0.0013,-0.3615,0.6333,0.1534,-0.0836,
6.775179,-0.1356,1.0896,0.2135,-1.1382,1.1020,-0.0125,0.6333,0.1534,-0.0836,
6.777058,-0.1356,1.0896,0.2135,-1.1382,1.1020,-0.0125,0.7995,0.2525,-0.0735,
6.790239,-0.1356,1.0896,0.2135,-1.1382,1.1020,-0.0125,0.9097,0.2791,0.0059,
6.809872,-0.1700,1.1106,0.1962,-1.1382,1.1020,-0.0125,0.9097,0.2791,0.0059,
6.812522,-0.1700,1.1106,0.1962,-1.4346,1.2423,0.1465,0.9097,0.2791,0.0059,
6.814171,-0.1700,1.1106,0.1962,-1.4346,1.2423,0.1465,0.9683,0.2573,0.1550,
6.830410,-0.1700,1.1106,0.1962,-1.4346,1.2423,0.1465,0.9907,0.1886,0.3302,
6.850075,-0.0999,0.9750,0.1735,-1.4346,1.2423,0.1465,0.9907,0.1886,0.3302,
6.852396,-0.0999,0.9750,0.1735,-0.8070,-0.1485,0.2938,0.9907,0.1886,0.3302,
6.854354,-0.0999,0.9750,0.1735,-0.8070,-0.1485,0.2938,1.0370,0.1747,0.5364,
6.869989,-0.0999,0.9750,0.1735,-0.8070,-0.1485,0.2938,1.0839,0.2802,0.6903,
6.890197,0.0330,0.9486,0.1209,-0.8070,-0.1485,0.2938,1.0839,0.2802,0.6903,
6.892433,0.0330,0.9486,0.1209,0.2875,-0.4570,0.1681,1.0839,0.2802,0.6903,
6.894367,0.0330,0.9486,0.1209,0.2875,-0.4570,0.1681,1.1654,0.3116,0.7846,
6.909400,0.0330,0.9486,0.1209,0.2875,-0.4570,0.1681,1.2762,0.2935,0.7542,
6.930476,0.1779,0.9127,-0.0178,0.2875,-0.4570,0.1681,1.2762,0.2935,0.7542,
6.932677,0.1779,0.9127,-0.0178,1.4120,-0.8409,-0.7253,1.2762,0.2935,0.7542,
6.934559,0.1779,0.9127,-0.0178,1.4120,-0.8409,-0.7253,1.2709,0.3601,0.6019,
6.949368,0.1779,0.9127,-0.0178,1.4120,-0.8409,-0.7253,1.1457,0.4432,0.4341,
6.969648,0.2152,0.8810,-0.1449,1.4120,-0.8409,-0.7253,1.1457,0.4432,0.4341,
6.972248,0.2152,0.8810,-0.1449,1.5714,-1.1580,-1.5020,1.1457,0.4432,0.4341,
6.973835,0.2152,0.8810,-0.1449,1.5714,-1.1580,-1.5020,0.9673,0.4868,0.2770,
6.989996,0.2152,0.8810,-0.1449,1.5714,-1.1580,-1.5020,0.7776,0.4895,0.1406,
7.010677,0.1654,0.9745,-0.2162,1.5714,-1.1580,-1.5020,0.7776,0.4895,0.1406,
7.014578,0.1654,0.9745,-0.2162,0.9799,-0.2316,-1.8528,0.7776,0.4895,0.1406,
7.016395,0.1654,0.9745,-0.2162,0.9799,-0.2316,-1.8528,0.5561,0.5582,0.0692,
7.029727,0.1654,0.9745,-0.2162,0.9799,-0.2316,-1.8528,0.3372,0.5209,0.0304,
7.050173,0.1209,0.9868,-0.1717,0.9799,-0.2316,-1.8528,0.3372,0.5209,0.0304,
7.053114,0.1209,0.9868,-0.1717,0.4960,-0.1016,-1.2281,0.3372,0.5209,0.0304,
7.055052,0.1209,0.9868,-0.1717,0.4960,-0.1016,-1.2281,0.1614,0.3643,0.0160,
7.069735,0.1209,0.9868,-0.1717,0.4960,-0.1016,-1.2281,0.0234,0.2961,0.0032,
7.090060,0.0985,0.9460,-0.0997,0.4960,-0.1016,-1.2281,0.0234,0.2961,0.0032,
7.092534,0.0985,0.9460,-0.0997,0.2521,-0.4975,-0.4752,0.0234,0.2961,0.0032,
7.094434,0.0985,0.9460,-0.0997,0.2521,-0.4975,-0.4752,-0.0927,0.1875,0.0245,
7.110403,0.0985,0.9460,-0.0997,0.2521,-0.4975,-0.4752,-0.1870,0.1571,0.0900,
7.129731,0.1942,0.9325,-0.0379,0.2521,-0.4975,-0.4752,-0.1870,0.1571,0.0900,
7.132552,0.1942,0.9325,-0.0379,1.1456,-0.6282,0.0810,-0.1870,0.1571,0.0900,
7.134256,0.1942,0.9325,-0.0379,1.1456,-0.6282,0.0810,-0.1603,0.1875,0.0613,
7.149524,0.1942,0.9325,-0.0379,1.1456,-0.6282,0.0810,-0.1273,0.1518,-0.0602,
7.169312,0.2147,0.9389,-0.0139,1.1456,-0.6282,0.0810,-0.1273,0.1518,-0.0602,
7.171977,0.2147,0.9389,-0.0139,0.2873,-0.4204,0.4100,-0.1273,0.1518,-0.0602,
7.173773,0.2147,0.9389,-0.0139,0.2873,-0.4204,0.4100,-0.1007,0.1433,-0.1917,
7.190417,0.2147,0.9389,-0.0139,0.2873,-0.4204,0.4100,-0.0863,0.0826,-0.2663,
7.209462,0.0806,0.9760,-0.0877,0.2873,-0.4204,0.4100,-0.0863,0.0826,-0.2663,
7.212510,0.0806,0.9760,-0.0877,-0.9318,-0.0761,-0.3519,-0.0863,0.0826,-0.2663,
7.214631,0.0806,0.9760,-0.0877,-0.9318,-0.0761,-0.3519,-0.1007,0.1049,-0.2706,
7.230045,0.0806,0.9760,-0.0877,-0.9318,-0.0761,-0.3519,-0.1811,0.0943,-0.2578,
7.249843,0.0941,0.9550,-0.0730,-0.9318,-0.0761,-0.3519,-0.1811,0.0943,-0.2578,
7.253939,0.0941,0.9550,-0.0730,-0.2772,-0.3479,-0.0023,-0.1811,0.0943,-0.2578,
7.256137,0.0941,0.9550,-0.0730,-0.2772,-0.3479,-0.0023,-0.1848,0.0543,-0.2658,
7.269194,0.0941,0.9550,-0.0730,-0.2772,-0.3479,-0.0023,-0.2759,0.0996,-0.2706,
7.289455,0.1165,0.9775,-0.0357,-0.2772,-0.3479,-0.0023,-0.2759,0.0996,-0.2706,
7.293281,0.1165,0.9775,-0.0357,0.0063,-0.1434,0.2426,-0.2759,0.0996,-0.2706,
7.295302,0.1165,0.9775,-0.0357,0.0063,-0.1434,0.2426,-0.3611,0.1108,-0.2423,
7.309176,0.1165,0.9775,-0.0357,0.0063,-0.1434,0.2426,-0.3063,-0.0096,-0.3057,
7.329635,0.1314,0.9938,-0.0362,0.0063,-0.1434,0.2426,-0.3063,-0.0096,-0.3057,
7.331901,0.1314,0.9938,-0.0362,0.0623,0.0212,0.1143,-0.3063,-0.0096,-0.3057,
7.333475,0.1314,0.9938,-0.0362,0.0623,0.0212,0.1143,-0.3164,-0.0245,-0.3734,
7.349291,0.1314,0.9938,-0.0362,0.0623,0.0212,0.1143,-0.3244,-0.0469,-0.3920,
7.369172,0.1207,0.8929,-0.0056,0.0623,0.0212,0.1143,-0.3244,-0.0469,-0.3920,
7.371349,0.1207,0.8929,-0.0056,0.0960,-0.9894,0.2883,-0.3244,-0.0469,-0.3920,
7.372998,0.1207,0.8929,-0.0056,0.0960,-0.9894,0.2883,-0.3148,-0.2088,-0.4751,
7.389040,0.1207,0.8929,-0.0056,0.0960,-0.9894,0.2883,-0.4432,-0.3265,-0.4991,
7.409210,0.0765,1.0647,-0.0327,0.0960,-0.9894,0.2883,-0.4432,-0.3265,-0.4991,
7.412810,0.0765,1.0647,-0.0327,-0.1465,0.6705,-0.1130,-0.4432,-0.3265,-0.4991,
7.414928,0.0765,1.0647,-0.0327,-0.1465,0.6705,-0.1130,-1.0045,-0.0879,-0.3020,
7.428812,0.0765,1.0647,-0.0327,-0.1465,0.6705,-0.1130,-1.2954,-0.6125,0.0080,
7.449649,-0.0012,1.3649,0.1029,-0.1465,0.6705,-0.1130,-1.2954,-0.6125,0.0080,
7.453590,-0.0012,1.3649,0.1029,-0.8517,3.6085,0.7788,-1.2954,-0.6125,0.0080,
7.455666,-0.0012,1.3649,0.1029,-0.8517,3.6085,0.7788,-1.5271,-0.9827,0.3190,
7.472397,-0.0012,1.3649,0.1029,-0.8517,3.6085,0.7788,-1.5851,-0.5428,0.4565,
7.489228,-0.0359,0.7938,0.2201,-0.8517,3.6085,0.7788,-1.5851,-0.5428,0.4565,
7.492835,-0.0359,0.7938,0.2201,-1.3254,-1.9451,1.3394,-1.5851,-0.5428,0.4565,
7.495420,-0.0359,0.7938,0.2201,-1.3254,-1.9451,1.3394,-1.4722,-0.3036,0.3009,
7.509193,-0.0359,0.7938,0.2201,-1.3254,-1.9451,1.3394,-1.3758,-0.2429,0.2056,
7.529495,0.1710,0.7388,0.2961,-1.3254,-1.9451,1.3394,-1.3758,-0.2429,0.2056,
7.532661,0.1710,0.7388,0.2961,0.5935,-2.4112,1.5412,-1.3758,-0.2429,0.2056,
7.534341,0.1710,0.7388,0.2961,0.5935,-2.4112,1.5412,-1.2831,-0.4591,0.2232,
7.550051,0.1710,0.7388,0.2961,0.5935,-2.4112,1.5412,-1.7012,-0.6424,0.0202,
7.569330,0.1388,0.9032,0.4168,0.5935,-2.4112,1.5412,-1.7012,-0.6424,0.0202,
7.571694,0.1388,0.9032,0.4168,0.1954,-0.6933,2.1574,-1.7012,-0.6424,0.0202,
7.573693,0.1388,0.9032,0.4168,0.1954,-0.6933,2.1574,-1.8631,-0.6056,-0.1656,
7.589222,0.1388,0.9032,0.4168,0.1954,-0.6933,2.1574,-1.6847,-0.3979,-0.2402,
7.609040,-0.0618,1.0232,0.6572,0.1954,-0.6933,2.1574,-1.6847,-0.3979,-0.2402,
7.612274,-0.0618,1.0232,0.6572,-1.7220,0.6398,3.8316,-1.6847,-0.3979,-0.2402,
7.613778,-0.0618,1.0232,0.6572,-1.7220,0.6398,3.8316,-1.4093,-0.5412,-0.0762,
7.629380,-0.0618,1.0232,0.6572,-1.7220,0.6398,3.8316,-0.9534,-0.5321,-0.1087,
7.649091,-0.0002,0.8436,0.7231,-1.7220,0.6398,3.8316,-0.9534,-0.5321,-0.1087,
7.653059,-0.0002,0.8436,0.7231,-1.1331,-0.9830,4.0328,-0.9534,-0.5321,-0.1087,
7.654809,-0.0002,0.8436,0.7231,-1.1331,-0.9830,4.0328,-0.4240,-0.5140,-0.1667,
7.670883,-0.0002,0.8436,0.7231,-1.1331,-0.9830,4.0328,-0.1848,-0.4378,-0.1166,
7.689373,-0.0349,0.7769,0.4632,-1.1331,-0.9830,4.0328,-0.1848,-0.4378,-0.1166,
7.691697,-0.0349,0.7769,0.4632,-1.4370,-1.5834,1.3164,-0.1848,-0.4378,-0.1166,
7.693516,-0.0349,0.7769,0.4632,-1.4370,-1.5834,1.3164,-0.1609,-0.4687,-0.0309,
7.709478,-0.0349,0.7769,0.4632,-1.4370,-1.5834,1.3164,-0.0937,-0.4916,0.0639,
7.729055,-0.0271,0.9169,0.3393,-1.4370,-1.5834,1.3164,-0.0937,-0.4916,0.0639,
7.731831,-0.0271,0.9169,0.3393,-1.3857,-0.1851,0.0365,-0.0937,-0.4916,0.0639,
7.733511,-0.0271,0.9169,0.3393,-1.3857,-0.1851,0.0365,0.0043,-0.4804,0.1209,
7.748936,-0.0271,0.9169,0.3393,-1.3857,-0.1851,0.0365,-0.0245,-0.5880,0.1246,
7.768541,0.0696,0.8744,0.3420,-1.3857,-0.1851,0.0365,-0.0245,-0.5880,0.1246,
7.771213,0.0696,0.8744,0.3420,0.4582,-0.3517,-0.7156,-0.0245,-0.5880,0.1246,
7.773177,0.0696,0.8744,0.3420,0.4582,-0.3517,-0.7156,-0.1369,-0.7430,0.0959,
7.789571,0.0696,0.8744,0.3420,0.4582,-0.3517,-0.7156,-0.2317,-0.7494,0.0714,
7.814200,0.1595,0.8578,0.4205,0.4582,-0.3517,-0.7156,-0.2317,-0.7494,0.0714,
7.817367,0.1595,0.8578,0.4205,1.1763,-0.4824,-0.0046,-0.2317,-0.7494,0.0714,
7.819314,0.1595,0.8578,0.4205,1.1763,-0.4824,-0.0046,-0.2525,-0.5396,-0.0309,
7.828914,0.1595,0.8578,0.4205,1.1763,-0.4824,-0.0046,-0.1609,-0.2988,-0.2008,
7.848843,0.1187,0.8570,0.4209,1.1763,-0.4824,-0.0046,-0.1609,-0.2988,-0.2008,
7.851930,0.1187,0.8570,0.4209,0.7335,-0.4561,-0.0670,-0.1609,-0.2988,-0.2008,
7.853934,0.1187,0.8570,0.4209,0.7335,-0.4561,-0.0670,0.0149,-0.2461,-0.4234,
7.868966,0.1187,0.8570,0.4209,0.7335,-0.4561,-0.0670,0.1097,-0.3228,-0.6392,
7.888977,0.0425,0.8961,0.3682,0.7335,-0.4561,-0.0670,0.1097,-0.3228,-0.6392,
7.891466,0.0425,0.8961,0.3682,0.1153,-0.0926,-0.5540,0.1097,-0.3228,-0.6392,
7.893188,0.0425,0.8961,0.3682,0.1153,-0.0926,-0.5540,0.1076,-0.3712,-0.8016,
7.909241,0.0425,0.8961,0.3682,0.1153,-0.0926,-0.5540,0.1150,-0.3702,-0.8469,
7.928780,-0.0232,0.8961,0.3547,0.1153,-0.0926,-0.5540,0.1150,-0.3702,-0.8469,
7.931922,-0.0232,0.8961,0.3547,-0.3039,-0.1202,-0.6365,0.1150,-0.3702,-0.8469,
7.934071,-0.0232,0.8961,0.3547,-0.3039,-0.1202,-0.6365,0.1097,-0.2631,-0.8176,
7.948524,-0.0232,0.8961,0.3547,-0.3039,-0.1202,-0.6365,0.0911,-0.1688,-0.7499,
7.968929,-0.0777,0.9386,0.3757,-0.3039,-0.1202,-0.6365,0.0911,-0.1688,-0.7499,
7.972007,-0.0777,0.9386,0.3757,-0.6112,0.1407,-0.0733,0.0911,-0.1688,-0.7499,
7.973902,-0.0777,0.9386,0.3757,-0.6112,0.1407,-0.0733,0.0820,-0.1609,-0.6796,
7.989020,-0.0777,0.9386,0.3757,-0.6112,0.1407,-0.0733,0.0852,-0.1949,-0.6461,
8.008501,-0.2565,0.9951,0.4080,-0.6112,0.1407,-0.0733,0.0852,-0.1949,-0.6461,
8.011219,-0.2565,0.9951,0.4080,-1.3828,0.7466,0.2834,0.0852,-0.1949,-0.6461,
8.012901,-0.2565,0.9951,0.4080,-1.3828,0.7466,0.2834,0.1087,-0.0778,-0.4969,
8.028791,-0.2565,0.9951,0.4080,-1.3828,0.7466,0.2834,0.0916,0.0687,-0.2264,
8.049091,-0.2326,1.0031,0.4197,-1.3828,0.7466,0.2834,0.0916,0.0687,-0.2264,
8.051353,-0.2326,1.0031,0.4197,-1.0152,0.8287,0.4337,0.0916,0.0687,-0.2264,
8.053074,-0.2326,1.0031,0.4197,-1.0152,0.8287,0.4337,0.1742,0.1715,0.0208,
8.068214,-0.2326,1.0031,0.4197,-1.0152,0.8287,0.4337,0.3073,0.1859,0.1268,
8.088438,-0.0740,0.9420,0.3582,-1.0152,0.8287,0.4337,0.3073,0.1859,0.1268,
8.091392,-0.0740,0.9420,0.3582,0.5377,0.1916,-0.0740,0.3073,0.1859,0.1268,
8.092981,-0.0740,0.9420,0.3582,0.5377,0.1916,-0.0740,0.3680,0.1475,0.1257,
8.108239,-0.0740,0.9420,0.3582,0.5377,0.1916,-0.0740,0.3744,0.1161,0.0863,
8.128352,-0.0498,0.9408,0.3161,0.5377,0.1916,-0.0740,0.3744,0.1161,0.0863,
8.130646,-0.0498,0.9408,0.3161,0.7439,0.1203,-0.3438,0.3744,0.1161,0.0863,
8.132337,-0.0498,0.9408,0.3161,0.7439,0.1203,-0.3438,0.3467,0.1028,0.0602,
8.148118,-0.0498,0.9408,0.3161,0.7439,0.1203,-0.3438,0.3047,0.1055,0.0533,
8.168782,-0.0574,0.9464,0.3235,0.7439,0.1203,-0.3438,0.3047,0.1055,0.0533,
8.171074,-0.0574,0.9464,0.3235,0.1970,0.0748,-0.1388,0.3047,0.1055,0.0533,
8.172744,-0.0574,0.9464,0.3235,0.1970,0.0748,-0.1388,0.2924,0.0288,0.0799,
8.188228,-0.0574,0.9464,0.3235,0.1970,0.0748,-0.1388,0.2754,0.0000,0.1268,
8.208832,-0.0271,0.9648,0.3110,0.1970,0.0748,-0.1388,0.2754,0.0000,0.1268,
8.211167,-0.0271,0.9648,0.3110,0.2920,0.1955,-0.1344,0.2754,0.0000,0.1268,
8.212906,-0.0271,0.9648,0.3110,0.2920,0.1955,-0.1344,0.3057,-0.0458,0.1507,
8.228582,-0.0271,0.9648,0.3110,0.2920,0.1955,-0.1344,0.3270,0.0501,0.1273,
8.248627,-0.0655,1.0075,0.2797,0.2920,0.1955,-0.1344,0.3270,0.0501,0.1273,
8.252145,-0.0655,1.0075,0.2797,-0.1308,0.5695,-0.3151,0.3270,0.0501,0.1273,
8.254192,-0.0655,1.0075,0.2797,-0.1308,0.5695,-0.3151,0.3441,0.1806,0.1779,
8.268121,-0.0655,1.0075,0.2797,-0.1308,0.5695,-0.3151,0.3862,0.1555,0.2168,
8.288818,-0.0599,0.9821,0.2438,-0.1308,0.5695,-0.3151,0.3862,0.1555,0.2168,
8.291204,-0.0599,0.9821,0.2438,-0.1144,0.2653,-0.5001,0.3862,0.1555,0.2168,
8.293143,-0.0599,0.9821,0.2438,-0.1144,0.2653,-0.5001,0.3840,0.1071,0.2200,
8.308144,-0.0599,0.9821,0.2438,-0.1144,0.2653,-0.5001,0.3180,0.1720,0.2184,
8.328047,-0.0327,0.9286,0.2455,-0.1144,0.2653,-0.5001,0.3180,0.1720,0.2184,
8.331933,-0.0327,0.9286,0.2455,0.0911,-0.3059,-0.3367,0.3180,0.1720,0.2184,
8.333884,-0.0327,0.9286,0.2455,0.0911,-0.3059,-0.3367,0.3148,0.1491,0.2461,
8.347839,-0.0327,0.9286,0.2455,0.0911,-0.3059,-0.3367,0.3217,0.1390,0.2626,
8.368113,0.0049,0.8854,0.2612,0.0911,-0.3059,-0.3367,0.3217,0.1390,0.2626,
8.371337,0.0049,0.8854,0.2612,0.3770,-0.7670,-0.0636,0.3217,0.1390,0.2626,
8.373558,0.0049,0.8854,0.2612,0.3770,-0.7670,-0.0636,0.2882,0.2024,0.2562,
8.388404,0.0049,0.8854,0.2612,0.3770,-0.7670,-0.0636,0.2866,0.1630,0.2381,
8.407862,0.0129,0.8775,0.2939,0.3770,-0.7670,-0.0636,0.2866,0.1630,0.2381,
8.411545,0.0129,0.8775,0.2939,0.3665,-0.8677,0.3352,0.2866,0.1630,0.2381,
8.413492,0.0129,0.8775,0.2939,0.3665,-0.8677,0.3352,0.3755,0.0208,0.2067,
8.428246,0.0129,0.8775,0.2939,0.3665,-0.8677,0.3352,0.4842,0.0660,0.1507,
8.447647,-0.0147,0.8744,0.1984,0.3665,-0.8677,0.3352,0.4842,0.0660,0.1507,
8.450026,-0.0147,0.8744,0.1984,0.0308,-0.9412,-0.4433,0.4842,0.0660,0.1507,
8.451936,-0.0147,0.8744,0.1984,0.0308,-0.9412,-0.4433,0.5491,0.1816,0.1092,
8.469014,-0.0147,0.8744,0.1984,0.0308,-0.9412,-0.4433,0.6072,0.2115,0.1150,
8.487916,0.0286,0.9135,0.1173,0.0308,-0.9412,-0.4433,0.6072,0.2115,0.1150,
8.490752,0.0286,0.9135,0.1173,0.4284,-0.6116,-1.0157,0.6072,0.2115,0.1150,
8.492498,0.0286,0.9135,0.1173,0.4284,-0.6116,-1.0157,0.6189,0.3116,0.1177,
8.508269,0.0286,0.9135,0.1173,0.4284,-0.6116,-1.0157,0.5774,0.4304,-0.1108,
8.528743,-0.0650,1.0671,0.1207,0.4284,-0.6116,-1.0157,0.5774,0.4304,-0.1108,
8.532406,-0.0650,1.0671,0.1207,-0.4573,0.8431,-0.7391,0.5774,0.4304,-0.1108,
8.534057,-0.0650,1.0671,0.1207,-0.4573,0.8431,-0.7391,0.4788,0.3899,-0.1129,
8.548068,-0.0650,1.0671,0.1207,-0.4573,0.8431,-0.7391,0.3393,0.3941,0.0565,
8.568490,0.0892,1.2228,0.2206,-0.4573,0.8431,-0.7391,0.3393,0.3941,0.0565,
8.570979,0.0892,1.2228,0.2206,1.0922,2.3382,0.4009,0.3393,0.3941,0.0565,
8.572615,0.0892,1.2228,0.2206,1.0922,2.3382,0.4009,0.1997,0.4927,0.1161,
8.588078,0.0892,1.2228,0.2206,1.0922,2.3382,0.4009,0.0858,0.4607,0.0091,
8.608668,0.1766,1.0420,0.3232,1.0922,2.3382,0.4009,0.0858,0.4607,0.0091,
8.610907,0.1766,1.0420,0.3232,1.9558,0.5562,1.4645,0.0858,0.4607,0.0091,
8.612553,0.1766,1.0420,0.3232,1.9558,0.5562,1.4645,0.0352,0.0389,0.0378,
8.628486,0.1766,1.0420,0.3232,1.9558,0.5562,1.4645,0.0676,-0.1891,0.0096,
8.647749,0.0613,0.8280,0.2394,1.9558,0.5562,1.4645,0.0676,-0.1891,0.0096,
8.649901,0.0613,0.8280,0.2394,0.7746,-1.5407,0.6352,0.0676,-0.1891,0.0096,
8.651706,0.0613,0.8280,0.2394,0.7746,-1.5407,0.6352,0.2237,-0.0884,-0.0458,
8.669706,0.0613,0.8280,0.2394,0.7746,-1.5407,0.6352,0.3558,0.0304,-0.1033,
8.688100,-0.0103,0.6977,0.0982,0.7746,-1.5407,0.6352,0.3558,0.0304,-0.1033,
8.691557,-0.0103,0.6977,0.0982,0.0999,-2.8354,-0.6370,0.3558,0.0304,-0.1033,
8.693751,-0.0103,0.6977,0.0982,0.0999,-2.8354,-0.6370,0.4250,0.0655,-0.1774,
8.707992,-0.0103,0.6977,0.0982,0.0999,-2.8354,-0.6370,0.3505,0.0927,-0.2466,
8.727486,-0.0953,0.9804,0.0875,0.0999,-2.8354,-0.6370,0.3505,0.0927,-0.2466,
8.730338,-0.0953,0.9804,0.0875,-0.6466,-0.0869,-0.5916,0.3505,0.0927,-0.2466,
8.732264,-0.0953,0.9804,0.0875,-0.6466,-0.0869,-0.5916,0.2951,0.0751,-0.2557,
8.747827,-0.0953,0.9804,0.0875,-0.6466,-0.0869,-0.5916,0.2605,0.3036,-0.2381,
8.767508,-0.0340,1.2606,0.1678,-0.6466,-0.0869,-0.5916,0.2605,0.3036,-0.2381,
8.770147,-0.0340,1.2606,0.1678,0.0076,2.6478,0.2876,0.2605,0.3036,-0.2381,
8.771517,-0.0340,1.2606,0.1678,0.0076,2.6478,0.2876,0.3185,0.3201,-0.1795,
8.787853,-0.0340,1.2606,0.1678,0.0076,2.6478,0.2876,0.3611,0.0666,-0.0975,
8.808174,0.1092,1.1988,0.1590,0.0076,2.6478,0.2876,0.3611,0.0666,-0.0975,
8.812024,0.1092,1.1988,0.1590,1.4745,2.0266,0.3361,0.3611,0.0666,-0.0975,
8.813918,0.1092,1.1988,0.1590,1.4745,2.0266,0.3361,0.2759,-0.0852,0.0272,
8.826997,0.1092,1.1988,0.1590,1.4745,2.0266,0.3361,0.1635,-0.0740,0.1012,
8.847618,0.0784,1.0004,0.1586,1.4745,2.0266,0.3361,0.1635,-0.0740,0.1012,
8.849730,0.0784,1.0004,0.1586,1.1372,0.0712,0.4131,0.1635,-0.0740,0.1012,
8.851429,0.0784,1.0004,0.1586,1.1372,0.0712,0.4131,0.1342,0.0240,0.1060,
8.868043,0.0784,1.0004,0.1586,1.1372,0.0712,0.4131,0.2013,0.1683,0.1033,
8.887980,-0.0332,0.9098,0.1156,1.1372,0.0712,0.4131,0.2013,0.1683,0.1033,
8.890273,-0.0332,0.9098,0.1156,-0.4769,-0.7961,-0.2175,0.2013,0.1683,0.1033,
8.892191,-0.0332,0.9098,0.1156,-0.4769,-0.7961,-0.2175,0.2605,0.2152,0.1438,
8.907457,-0.0332,0.9098,0.1156,-0.4769,-0.7961,-0.2175,0.3052,0.2929,0.1593,
8.927405,-0.0342,0.8192,0.0814,-0.4769,-0.7961,-0.2175,0.3052,0.2929,0.1593,
8.929869,-0.0342,0.8192,0.0814,-0.5299,-1.6980,-0.4444,0.3052,0.2929,0.1593,
8.931933,-0.0342,0.8192,0.0814,-0.5299,-1.6980,-0.4444,0.3760,0.3798,0.1454,
8.947503,-0.0342,0.8192,0.0814,-0.5299,-1.6980,-0.4444,0.4133,0.4661,0.1294,
8.967471,-0.0445,0.9638,0.0589,-0.5299,-1.6980,-0.4444,0.4133,0.4661,0.1294,
8.969789,-0.0445,0.9638,0.0589,-0.6561,-0.2984,-0.5121,0.4133,0.4661,0.1294,
8.971780,-0.0445,0.9638,0.0589,-0.6561,-0.2984,-0.5121,0.4437,0.6834,0.1241,
8.987694,-0.0445,0.9638,0.0589,-0.6561,-0.2984,-0.5121,0.5401,0.7207,0.0884,
9.007693,-0.0362,1.0319,0.0217,-0.6561,-0.2984,-0.5121,0.5401,0.7207,0.0884,
9.010558,-0.0362,1.0319,0.0217,-0.5713,0.3497,-0.6813,0.5401,0.7207,0.0884,
9.012495,-0.0362,1.0319,0.0217,-0.5713,0.3497,-0.6813,0.4927,0.6109,0.1246,
9.027074,-0.0362,1.0319,0.0217,-0.5713,0.3497,-0.6813,0.3649,0.6061,0.1976,
9.047833,0.0462,1.0307,0.0371,-0.5713,0.3497,-0.6813,0.3649,0.6061,0.1976,
9.050233,0.0462,1.0307,0.0371,0.4165,0.3071,-0.1321,0.3649,0.6061,0.1976,
9.051833,0.0462,1.0307,0.0371,0.4165,0.3071,-0.1321,0.3063,0.4932,0.2125,
9.069661,0.0462,1.0307,0.0371,0.4165,0.3071,-0.1321,0.2509,0.3723,0.2354,
9.087334,0.1468,1.0400,0.0374,0.4165,0.3071,-0.1321,0.2509,0.3723,0.2354,
9.089590,0.1468,1.0400,0.0374,1.3067,0.3941,-0.0233,0.2509,0.3723,0.2354,
9.091389,0.1468,1.0400,0.0374,1.3067,0.3941,-0.0233,0.1800,0.2759,0.2056,
9.107890,0.1468,1.0400,0.0374,1.3067,0.3941,-0.0233,0.1662,0.1625,0.0522,
9.126739,0.0796,0.9289,-0.0198,1.3067,0.3941,-0.0233,0.1662,0.1625,0.0522,
9.128481,0.0796,0.9289,-0.0198,0.5836,-0.6968,-0.5122,0.1662,0.1625,0.0522,
9.129372,0.0796,0.9289,-0.0198,0.5836,-0.6968,-0.5122,0.1481,0.1646,-0.1012,
9.146615,0.0796,0.9289,-0.0198,0.5836,-0.6968,-0.5122,0.0309,0.1806,-0.1161,
9.167467,0.0064,0.9589,-0.0428,0.5836,-0.6968,-0.5122,0.0309,0.1806,-0.1161,
9.169769,0.0064,0.9589,-0.0428,-0.0983,-0.4043,-0.6929,0.0309,0.1806,-0.1161,
9.171767,0.0064,0.9589,-0.0428,-0.0983,-0.4043,-0.6929,-0.0341,0.1886,-0.1332,
9.187765,0.0064,0.9589,-0.0428,-0.0983,-0.4043,-0.6929,-0.0959,0.2621,-0.1262,
9.208250,0.0049,0.9616,-0.0366,-0.0983,-0.4043,-0.6929,-0.0959,0.2621,-0.1262,
9.212434,0.0049,0.9616,-0.0366,-0.0637,-0.3782,-0.6461,-0.0959,0.2621,-0.1262,
9.214615,0.0049,0.9616,-0.0366,-0.0637,-0.3782,-0.6461,-0.2056,0.2929,-0.1129,
9.226512,0.0049,0.9616,-0.0366,-0.0637,-0.3782,-0.6461,-0.2807,0.2498,-0.1273,
9.247052,0.0393,0.9640,0.0159,-0.0637,-0.3782,-0.6461,-0.2807,0.2498,-0.1273,
9.249901,0.0393,0.9640,0.0159,0.3175,-0.3518,-0.2161,-0.2807,0.2498,-0.1273,
9.252184,0.0393,0.9640,0.0159,0.3175,-0.3518,-0.2161,-0.3302,0.1550,-0.1486,
9.268951,0.0393,0.9640,0.0159,0.3175,-0.3518,-0.2161,-0.4117,0.0304,-0.1949,
9.286949,0.1322,0.9633,0.0374,0.3175,-0.3518,-0.2161,-0.4117,0.0304,-0.1949,
9.289201,0.1322,0.9633,0.0374,1.2756,-0.3532,-0.1406,-0.4117,0.0304,-0.1949,
9.291099,0.1322,0.9633,0.0374,1.2756,-0.3532,-0.1406,-0.4384,-0.1369,-0.3063,
9.307616,0.1322,0.9633,0.0374,1.2756,-0.3532,-0.1406,-0.5081,-0.2301,-0.4192,
9.327056,0.0701,1.0210,0.0606,1.2756,-0.3532,-0.1406,-0.5081,-0.2301,-0.4192,
9.329427,0.0701,1.0210,0.0606,0.7742,0.2227,-0.0855,-0.5081,-0.2301,-0.4192,
9.331292,0.0701,1.0210,0.0606,0.7742,0.2227,-0.0855,-0.5997,-0.3622,-0.4549,
9.346864,0.0701,1.0210,0.0606,0.7742,0.2227,-0.0855,-0.7792,-0.3968,-0.3920,
9.366793,-0.1571,1.0302,0.1681,0.7742,0.2227,-0.0855,-0.7792,-0.3968,-0.3920,
9.369071,-0.1571,1.0302,0.1681,-1.2993,0.3388,0.6967,-0.7792,-0.3968,-0.3920,
9.370863,-0.1571,1.0302,0.1681,-1.2993,0.3388,0.6967,-0.7398,-0.4171,-0.2850,
9.387173,-0.1571,1.0302,0.1681,-1.2993,0.3388,0.6967,-0.3292,-0.1641,-0.1587,
9.407078,-0.1522,0.9999,0.1837,-1.2993,0.3388,0.6967,-0.3292,-0.1641,-0.1587,
9.410422,-0.1522,0.9999,0.1837,-1.1617,0.0679,0.6352,-0.3292,-0.1641,-0.1587,
9.412156,-0.1522,0.9999,0.1837,-1.1617,0.0679,0.6352,0.0751,0.1145,0.0863,
9.426775,-0.1522,0.9999,0.1837,-1.1617,0.0679,0.6352,-0.0261,-0.0218,0.1854,
9.447076,0.2128,0.9098,0.0767,-1.1617,0.0679,0.6352,-0.0261,-0.0218,0.1854,
9.450212,0.2128,0.9098,0.0767,2.3440,-0.8192,-0.4015,-0.0261,-0.0218,0.1854,
9.452531,0.2128,0.9098,0.0767,2.3440,-0.8192,-0.4015,-0.4655,-0.2972,0.1342,
9.471337,0.2128,0.9098,0.0767,2.3440,-0.8192,-0.4015,-0.6285,-0.6381,-0.1284,
9.486232,-0.0359,1.0305,0.1412,2.3440,-0.8192,-0.4015,-0.6285,-0.6381,-0.1284,
9.488751,-0.0359,1.0305,0.1412,-0.1317,0.3898,0.0206,-0.6285,-0.6381,-0.1284,
9.490202,-0.0359,1.0305,0.1412,-0.1317,0.3898,0.0206,-0.4080,-0.6461,-0.4746,
9.506257,-0.0359,1.0305,0.1412,-0.1317,0.3898,0.0206,-0.3052,-0.5694,-0.4985,
9.527203,-0.2309,1.0789,0.1356,-0.1317,0.3898,0.0206,-0.3052,-0.5694,-0.4985,
9.529952,-0.2309,1.0789,0.1356,-1.8768,0.8894,-0.1726,-0.3052,-0.5694,-0.4985,
9.532014,-0.2309,1.0789,0.1356,-1.8768,0.8894,-0.1726,-0.4112,-0.4964,-0.2178,
9.546180,-0.2309,1.0789,0.1356,-1.8768,0.8894,-0.1726,-0.5412,-0.6115,0.0181,
9.566904,-0.1290,1.0605,0.2736,-1.8768,0.8894,-0.1726,-0.5412,-0.6115,0.0181,
9.569871,-0.1290,1.0605,0.2736,-0.8665,0.7424,0.9865,-0.5412,-0.6115,0.0181,
9.571506,-0.1290,1.0605,0.2736,-0.8665,0.7424,0.9865,-0.4373,-0.5965,0.0362,
9.586582,-0.1290,1.0605,0.2736,-0.8665,0.7424,0.9865,-0.1470,-0.2653,0.0053,
9.606361,-0.1774,0.9738,0.2426,-0.8665,0.7424,0.9865,-0.1470,-0.2653,0.0053,
9.608519,-0.1774,0.9738,0.2426,-1.3577,-0.0858,0.5591,-0.1470,-0.2653,0.0053,
9.610374,-0.1774,0.9738,0.2426,-1.3577,-0.0858,0.5591,0.0836,0.0336,-0.0517,
9.626608,-0.1774,0.9738,0.2426,-1.3577,-0.0858,0.5591,0.1103,0.0799,0.0016,
9.646380,-0.1495,0.9665,0.1434,-1.3577,-0.0858,0.5591,0.1103,0.0799,0.0016,
9.648711,-0.1495,0.9665,0.1434,-1.0393,-0.1629,-0.3744,0.1103,0.0799,0.0016,
9.650692,-0.1495,0.9665,0.1434,-1.0393,-0.1629,-0.3744,0.0927,0.0629,0.0629,
9.668560,-0.1495,0.9665,0.1434,-1.0393,-0.1629,-0.3744,0.0799,0.1049,0.0852,
9.686496,-0.1004,0.9122,0.0921,-1.0393,-0.1629,-0.3744,0.0799,0.1049,0.0852,
9.689831,-0.1004,0.9122,0.0921,-0.5547,-0.7022,-0.8336,0.0799,0.1049,0.0852,
9.691742,-0.1004,0.9122,0.0921,-0.5547,-0.7022,-0.8336,0.0032,0.2061,0.0948,
9.705991,-0.1004,0.9122,0.0921,-0.5547,-0.7022,-0.8336,-0.0842,0.1369,0.1039,
9.726196,-0.0547,0.9147,0.1258,-0.5547,-0.7022,-0.8336,-0.0842,0.1369,0.1039,
9.729807,-0.0547,0.9147,0.1258,0.4365,-0.6935,-0.1667,-0.0842,0.1369,0.1039,
9.731797,-0.0547,0.9147,0.1258,0.4365,-0.6935,-0.1667,-0.1981,0.0144,0.0826,
9.746383,-0.0547,0.9147,0.1258,0.4365,-0.6935,-0.1667,-0.2993,-0.0975,0.0341,
9.766145,-0.0840,0.9098,0.2289,0.4365,-0.6935,-0.1667,-0.2993,-0.0975,0.0341,
9.768626,-0.0840,0.9098,0.2289,0.1240,-0.7283,0.7403,-0.2993,-0.0975,0.0341,
9.770361,-0.0840,0.9098,0.2289,0.1240,-0.7283,0.7403,-0.3286,-0.1380,0.0458,
9.785996,-0.0840,0.9098,0.2289,0.1240,-0.7283,0.7403,-0.2844,-0.0959,0.1507,
9.806875,-0.0953,1.0361,0.3005,0.1240,-0.7283,0.7403,-0.2844,-0.0959,0.1507,
9.809844,-0.0953,1.0361,0.3005,-0.0312,0.5290,1.2958,-0.2844,-0.0959,0.1507,
9.811852,-0.0953,1.0361,0.3005,-0.0312,0.5290,1.2958,-0.2051,0.0330,0.2162,
9.825966,-0.0953,1.0361,0.3005,-0.0312,0.5290,1.2958,-0.0905,0.1166,0.2077,
9.846727,-0.1231,1.0544,0.2819,-0.0312,0.5290,1.2958,-0.0905,0.1166,0.2077,
9.849040,-0.1231,1.0544,0.2819,-0.2159,0.8680,0.3974,-0.0905,0.1166,0.2077,
9.850842,-0.1231,1.0544,0.2819,-0.2159,0.8680,0.3974,0.0597,0.1087,0.1870,
9.866978,-0.1231,1.0544,0.2819,-0.2159,0.8680,0.3974,0.1651,0.1092,0.1992,
9.885917,-0.1087,0.9401,0.1783,-0.2159,0.8680,0.3974,0.1651,0.1092,0.1992,
9.888132,-0.1087,0.9401,0.1783,-0.1349,-0.2711,-0.5671,0.1651,0.1092,0.1992,
9.890057,-0.1087,0.9401,0.1783,-0.1349,-0.2711,-0.5671,0.2274,0.0858,0.2423,
9.905920,-0.1087,0.9401,0.1783,-0.1349,-0.2711,-0.5671,0.2115,0.1028,0.2413,
9.925992,-0.0877,0.9342,0.1471,-0.1349,-0.2711,-0.5671,0.2115,0.1028,0.2413,
9.928462,-0.0877,0.9342,0.1471,-0.0077,-0.3593,-0.7756,0.2115,0.1028,0.2413,
9.930457,-0.0877,0.9342,0.1471,-0.0077,-0.3593,-0.7756,0.1140,0.1571,0.2434,
9.945903,-0.0877,0.9342,0.1471,-0.0077,-0.3593,-0.7756,0.0570,0.1188,0.2381,
9.965486,-0.0071,0.9472,0.2201,-0.0077,-0.3593,-0.7756,0.0570,0.1188,0.2381,
9.967837,-0.0071,0.9472,0.2201,0.5259,-0.2935,0.1273,0.0570,0.1188,0.2381,
9.969563,-0.0071,0.9472,0.2201,0.5259,-0.2935,0.1273,0.0730,0.0399,0.1965,
9.985785,-0.0071,0.9472,0.2201,0.5259,-0.2935,0.1273,0.0815,0.0037,0.1635,
10.005712,0.0584,0.9098,0.2763,0.5259,-0.2935,0.1273,0.0815,0.0037,0.1635,
10.008420,0.0584,0.9098,0.2763,0.6613,-0.5968,0.3267,0.0815,0.0037,0.1635,
10.010163,0.0584,0.9098,0.2763,0.6613,-0.5968,0.3267,0.0799,-0.0495,0.1603,
10.025771,0.0584,0.9098,0.2763,0.6613,-0.5968,0.3267,0.1310,-0.0650,0.1140,
10.046396,-0.0076,0.9753,0.2587,0.6613,-0.5968,0.3267,0.1310,-0.0650,0.1140,
10.049275,-0.0076,0.9753,0.2587,-0.0398,0.0360,0.1888,0.1310,-0.0650,0.1140,
10.051201,-0.0076,0.9753,0.2587,-0.0398,0.0360,0.1888,0.2716,-0.0479,0.0634,
10.067888,-0.0076,0.9753,0.2587,-0.0398,0.0360,0.1888,0.3654,-0.0485,0.0607,
10.086200,0.0645,1.0388,0.1664,-0.0398,0.0360,0.1888,0.3654,-0.0485,0.0607,
10.088354,0.0645,1.0388,0.1664,0.6315,0.6280,-0.5894,0.3654,-0.0485,0.0607,
10.090016,0.0645,1.0388,0.1664,0.6315,0.6280,-0.5894,0.4442,-0.1033,0.0826,
10.105707,0.0645,1.0388,0.1664,0.6315,0.6280,-0.5894,0.4021,0.0240,0.0735,
10.125602,0.0232,1.0925,0.1197,0.6315,0.6280,-0.5894,0.4021,0.0240,0.0735,
10.128304,0.0232,1.0925,0.1197,0.1897,1.1167,-0.8756,0.4021,0.0240,0.0735,
10.129824,0.0232,1.0925,0.1197,0.1897,1.1167,-0.8756,0.3238,0.1262,0.1039,
10.145855,0.0232,1.0925,0.1197,0.1897,1.1167,-0.8756,0.2583,0.1784,0.1257,
10.165973,0.0454,0.9482,0.1048,0.1897,1.1167,-0.8756,0.2583,0.1784,0.1257,
10.168222,0.0454,0.9482,0.1048,0.3664,-0.3252,-0.8902,0.2583,0.1784,0.1257,
10.170037,0.0454,0.9482,0.1048,0.3664,-0.3252,-0.8902,0.1491,0.2898,0.1214,
10.186501,0.0454,0.9482,0.1048,0.3664,-0.3252,-0.8902,0.0724,0.2269,0.0831,
10.206534,0.0191,0.8710,0.1549,0.3664,-0.3252,-0.8902,0.0724,0.2269,0.0831,
10.209978,0.0191,0.8710,0.1549,0.0843,-1.0912,-0.3501,0.0724,0.2269,0.0831,
10.212372,0.0191,0.8710,0.1549,0.0843,-1.0912,-0.3501,0.0863,0.1534,0.0543,
10.225858,0.0191,0.8710,0.1549,0.0843,-1.0912,-0.3501,0.1529,0.2120,0.0320,
10.245331,0.0083,0.9557,0.1402,0.0843,-1.0912,-0.3501,0.1529,0.2120,0.0320,
10.248619,0.0083,0.9557,0.1402,-0.1115,-0.3264,-0.1050,0.1529,0.2120,0.0320,
10.251216,0.0083,0.9557,0.1402,-0.1115,-0.3264,-0.1050,0.1981,0.3100,-0.0005,
10.268985,0.0083,0.9557,0.1402,-0.1115,-0.3264,-0.1050,0.1992,0.3441,-0.0197,
10.285753,0.0222,1.0310,0.1617,-0.1115,-0.3264,-0.1050,0.1992,0.3441,-0.0197,
10.288401,0.0222,1.0310,0.1617,0.0314,0.4073,0.1297,0.1992,0.3441,-0.0197,
10.289976,0.0222,1.0310,0.1617,0.0314,0.4073,0.1297,0.1369,0.2850,-0.0314,
10.305360,0.0222,1.0310,0.1617,0.0314,0.4073,0.1297,0.0996,0.1470,-0.0325,
10.325694,0.0713,1.0190,0.2177,0.0314,0.4073,0.1297,0.0996,0.1470,-0.0325,
10.328709,0.0713,1.0190,0.2177,0.4958,0.2920,0.6665,0.0996,0.1470,-0.0325,
10.330388,0.0713,1.0190,0.2177,0.4958,0.2920,0.6665,0.1193,-0.0181,-0.0570,
10.345138,0.0713,1.0190,0.2177,0.4958,0.2920,0.6665,0.1752,-0.1246,-0.0597,
10.365323,0.0550,1.0129,0.1473,0.4958,0.2920,0.6665,0.1752,-0.1246,-0.0597,
10.367463,0.0550,1.0129,0.1473,0.3452,0.2243,0.0286,0.1752,-0.1246,-0.0597,
10.369032,0.0550,1.0129,0.1473,0.3452,0.2243,0.0286,0.2200,-0.0708,-0.0597,
10.384864,0.0550,1.0129,0.1473,0.3452,0.2243,0.0286,0.2301,0.1262,-0.0490,
10.405387,0.0296,0.9868,0.0889,0.3452,0.2243,0.0286,0.2301,0.1262,-0.0490,
10.407421,0.0296,0.9868,0.0889,0.1135,-0.0446,-0.4558,0.2301,0.1262,-0.0490,
10.409313,0.0296,0.9868,0.0889,0.1135,-0.0446,-0.4558,0.2727,0.1960,-0.0037,
10.425456,0.0296,0.9868,0.0889,0.1135,-0.0446,-0.4558,0.2131,0.2999,-0.0080,
10.445289,0.0342,0.9308,0.0647,0.1135,-0.0446,-0.4558,0.2131,0.2999,-0.0080,
10.447772,0.0342,0.9308,0.0647,0.1684,-0.6059,-0.5954,0.2131,0.2999,-0.0080,
10.449514,0.0342,0.9308,0.0647,0.1684,-0.6059,-0.5954,0.1433,0.3404,-0.0261,
10.465880,0.0342,0.9308,0.0647,0.1684,-0.6059,-0.5954,0.0671,0.2210,-0.0378,
10.485446,0.0735,1.0144,0.1104,0.1684,-0.6059,-0.5954,0.0671,0.2210,-0.0378,
10.487804,0.0735,1.0144,0.1104,0.1991,0.2044,0.0324,0.0671,0.2210,-0.0378,
10.489385,0.0735,1.0144,0.1104,0.1991,0.2044,0.0324,-0.0112,0.0746,-0.0751,
10.505628,0.0735,1.0144,0.1104,0.1991,0.2044,0.0324,-0.0064,-0.0639,-0.0565,
10.524892,0.0855,1.0180,0.1664,0.1991,0.2044,0.0324,-0.0064,-0.0639,-0.0565,
10.527477,0.0855,1.0180,0.1664,0.3378,0.2403,0.5705,-0.0064,-0.0639,-0.0565,
10.528991,0.0855,1.0180,0.1664,0.3378,0.2403,0.5705,0.1374,-0.1390,-0.0266,
10.544616,0.0855,1.0180,0.1664,0.3378,0.2403,0.5705,0.3814,-0.0522,-0.0506,
10.565476,-0.0335,0.8983,0.0965,0.3378,0.2403,0.5705,0.3814,-0.0522,-0.0506,
10.569058,-0.0335,0.8983,0.0965,-0.8109,-0.9438,-0.0172,0.3814,-0.0522,-0.0506,
10.571270,-0.0335,0.8983,0.0965,-0.8109,-0.9438,-0.0172,0.5694,0.1577,-0.0282,
10.586485,-0.0335,0.8983,0.0965,-0.8109,-0.9438,-0.0172,0.7052,0.3393,-0.0229,
10.604796,-0.1192,0.9628,0.0369,-0.8109,-0.9438,-0.0172,0.7052,0.3393,-0.0229,
10.607435,-0.1192,0.9628,0.0369,-1.6118,-0.3344,-0.3609,0.7052,0.3393,-0.0229,
10.609337,-0.1192,0.9628,0.0369,-1.6118,-0.3344,-0.3609,0.8474,0.4852,-0.0479,
10.625042,-0.1192,0.9628,0.0369,-1.6118,-0.3344,-0.3609,0.8746,0.5316,0.0288,
10.644536,-0.0213,1.0090,-0.0503,-1.6118,-0.3344,-0.3609,0.8746,0.5316,0.0288,
10.647990,-0.0213,1.0090,-0.0503,-0.6130,0.0975,-0.8835,0.8746,0.5316,0.0288,
10.649980,-0.0213,1.0090,-0.0503,-0.6130,0.0975,-0.8835,0.7665,0.4756,0.1156,
10.669598,-0.0213,1.0090,-0.0503,-0.6130,0.0975,-0.8835,0.6045,0.3318,0.1704,
10.684954,0.1449,1.1023,-0.0955,-0.6130,0.0975,-0.8835,0.6045,0.3318,0.1704,
10.687357,0.1449,1.1023,-0.0955,0.9954,1.0084,-0.6851,0.6045,0.3318,0.1704,
10.689102,0.1449,1.1023,-0.0955,0.9954,1.0084,-0.6851,0.4714,0.2450,0.1491,
10.704998,0.1449,1.1023,-0.0955,0.9954,1.0084,-0.6851,0.3079,0.1033,0.0575,
10.724577,0.1605,1.0627,-0.1493,0.9954,1.0084,-0.6851,0.3079,0.1033,0.0575,
10.726867,0.1605,1.0627,-0.1493,1.0981,0.6281,-1.0560,0.3079,0.1033,0.0575,
10.728559,0.1605,1.0627,-0.1493,1.0981,0.6281,-1.0560,0.1332,-0.0064,-0.0852,
10.744774,0.1605,1.0627,-0.1493,1.0981,0.6281,-1.0560,-0.1049,-0.0027,-0.1348,
10.764367,0.0342,0.9951,-0.0921,1.0981,0.6281,-1.0560,-0.1049,-0.0027,-0.1348,
10.766513,0.0342,0.9951,-0.0921,-0.1029,-0.0361,-0.4790,-0.1049,-0.0027,-0.1348,
10.768466,0.0342,0.9951,-0.0921,-0.1029,-0.0361,-0.4790,-0.2168,-0.1225,-0.1779,
10.785793,0.0342,0.9951,-0.0921,-0.1029,-0.0361,-0.4790,-0.2839,-0.1742,-0.1822,
10.804755,-0.0581,0.8741,-0.0022,-0.1029,-0.0361,-0.4790,-0.2839,-0.1742,-0.1822,
10.807289,-0.0581,0.8741,-0.0022,-0.9309,-1.2279,0.3100,-0.2839,-0.1742,-0.1822,
10.809099,-0.0581,0.8741,-0.0022,-0.9309,-1.2279,0.3100,-0.3228,-0.0613,-0.0959,
10.824499,-0.0581,0.8741,-0.0022,-0.9309,-1.2279,0.3100,-0.2067,-0.0149,-0.0378,
10.844588,0.0178,0.9118,-0.0002,-0.9309,-1.2279,0.3100,-0.2067,-0.0149,-0.0378,
10.846996,0.0178,0.9118,-0.0002,-0.0891,-0.8646,0.2535,-0.2067,-0.0149,-0.0378,
10.848760,0.0178,0.9118,-0.0002,-0.0891,-0.8646,0.2535,-0.1752,0.1065,-0.0224,
10.864955,0.0178,0.9118,-0.0002,-0.0891,-0.8646,0.2535,-0.1438,0.1774,-0.1220,
10.884981,0.0283,0.9775,-0.0342,-0.0891,-0.8646,0.2535,-0.1438,0.1774,-0.1220,
10.888805,0.0283,0.9775,-0.0342,0.0410,-0.2227,-0.1421,-0.1438,0.1774,-0.1220,
10.891269,0.0283,0.9775,-0.0342,0.0410,-0.2227,-0.1421,-0.1278,0.1816,-0.1917,
10.904989,0.0283,0.9775,-0.0342,0.0410,-0.2227,-0.1421,-0.1459,0.1364,-0.2573,
10.924346,0.0716,0.9992,-0.0547,0.0410,-0.2227,-0.1421,-0.1459,0.1364,-0.2573,
10.926731,0.0716,0.9992,-0.0547,0.2714,0.0038,-0.1237,-0.1459,0.1364,-0.2573,
10.928562,0.0716,0.9992,-0.0547,0.2714,0.0038,-0.1237,-0.2466,0.1076,-0.3004,
10.944918,0.0716,0.9992,-0.0547,0.2714,0.0038,-0.1237,-0.3894,-0.0570,-0.3558,
10.964131,0.0381,1.0759,0.0046,0.2714,0.0038,-0.1237,-0.3894,-0.0570,-0.3558,
10.966398,0.0381,1.0759,0.0046,0.0189,0.7468,0.2860,-0.3894,-0.0570,-0.3558,
10.967964,0.0381,1.0759,0.0046,0.0189,0.7468,0.2860,-0.4911,-0.0889,-0.4197,
10.984600,0.0381,1.0759,0.0046,0.0189,0.7468,0.2860,-0.5406,-0.1380,-0.4208,
11.004386,-0.1253,1.1228,0.1038,0.0189,0.7468,0.2860,-0.5406,-0.1380,-0.4208,
11.007001,-0.1253,1.1228,0.1038,-1.4108,1.1989,1.0523,-0.5406,-0.1380,-0.4208,
11.008801,-0.1253,1.1228,0.1038,-1.4108,1.1989,1.0523,-0.7100,-0.3760,-0.2376,
11.024373,-0.1253,1.1228,0.1038,-1.4108,1.1989,1.0523,-0.6887,-0.4783,-0.0261,
11.044173,0.0520,0.9565,0.1393,-1.4108,1.1989,1.0523,-0.6887,-0.4783,-0.0261,
11.046401,0.0520,0.9565,0.1393,0.3799,-0.4292,1.1114,-0.6887,-0.4783,-0.0261,
11.048059,0.0520,0.9565,0.1393,0.3799,-0.4292,1.1114,-0.5678,-0.7318,0.0410,
11.064111,0.0520,0.9565,0.1393,0.3799,-0.4292,1.1114,-0.6067,-0.8128,0.0533,
11.084672,0.0235,0.9012,0.1270,0.3799,-0.4292,1.1114,-0.6067,-0.8128,0.0533,
11.087010,0.0235,0.9012,0.1270,0.0708,-0.9607,0.7513,-0.6067,-0.8128,0.0533,
11.088642,0.0235,0.9012,0.1270,0.0708,-0.9607,0.7513,-0.5667,-0.7473,-0.0170,
11.104592,0.0235,0.9012,0.1270,0.0708,-0.9607,0.7513,-0.5305,-0.6626,-0.1220,
11.124066,-0.1082,0.8753,0.1823,0.0708,-0.9607,0.7513,-0.5305,-0.6626,-0.1220,
11.127275,-0.1082,0.8753,0.1823,-1.2009,-1.2012,1.0718,-0.5305,-0.6626,-0.1220,
11.128992,-0.1082,0.8753,0.1823,-1.2009,-1.2012,1.0718,-0.4815,-0.7958,-0.0405,
11.143875,-0.1082,0.8753,0.1823,-1.2009,-1.2012,1.0718,-0.4943,-0.8788,0.0804,
11.164204,0.0007,0.9311,0.2756,-1.2009,-1.2012,1.0718,-0.4943,-0.8788,0.0804,
11.166467,0.0007,0.9311,0.2756,0.2271,-0.4744,0.7042,-0.4943,-0.8788,0.0804,
11.168175,0.0007,0.9311,0.2756,0.2271,-0.4744,0.7042,-0.4953,-0.8432,0.0826,
11.185198,0.0007,0.9311,0.2756,0.2271,-0.4744,0.7042,-0.3675,-0.6908,-0.0091,
11.204119,-0.0943,1.0246,0.3205,0.2271,-0.4744,0.7042,-0.3675,-0.6908,-0.0091,
11.207170,-0.0943,1.0246,0.3205,-0.4055,0.5560,0.7060,-0.3675,-0.6908,-0.0091,
11.209158,-0.0943,1.0246,0.3205,-0.4055,0.5560,0.7060,-0.1268,-0.4666,-0.1220,
11.224479,-0.0943,1.0246,0.3205,-0.4055,0.5560,0.7060,0.1060,-0.4069,-0.2301,
11.244577,-0.2394,1.1436,0.2025,-0.4055,0.5560,0.7060,0.1060,-0.4069,-0.2301,
11.246991,-0.2394,1.1436,0.2025,-1.7976,1.7262,-0.4602,0.1060,-0.4069,-0.2301,
11.248865,-0.2394,1.1436,0.2025,-1.7976,1.7262,-0.4602,0.2839,-0.5214,-0.2184,
11.267043,-0.2394,1.1436,0.2025,-1.7976,1.7262,-0.4602,0.3510,-0.4011,0.0288,
11.283708,-0.0440,1.0114,0.0779,-1.7976,1.7262,-0.4602,0.3510,-0.4011,0.0288,
11.286015,-0.0440,1.0114,0.0779,0.1169,0.3990,-1.5544,0.3510,-0.4011,0.0288,
11.287838,-0.0440,1.0114,0.0779,0.1169,0.3990,-1.5544,0.3579,-0.2887,0.1518,
11.304557,-0.0440,1.0114,0.0779,0.1169,0.3990,-1.5544,0.2621,-0.2818,0.1635,
11.324122,0.0486,0.8558,0.0518,0.1169,0.3990,-1.5544,0.2621,-0.2818,0.1635,
11.326786,0.0486,0.8558,0.0518,0.9355,-1.1632,-1.6730,0.2621,-0.2818,0.1635,
11.328639,0.0486,0.8558,0.0518,0.9355,-1.1632,-1.6730,0.0543,-0.3137,0.1625,
11.344050,0.0486,0.8558,0.0518,0.9355,-1.1632,-1.6730,-0.1497,-0.4091,0.1087,
11.364900,-0.0083,0.8348,0.1432,0.9355,-1.1632,-1.6730,-0.1497,-0.4091,0.1087,
11.368819,-0.0083,0.8348,0.1432,0.2938,-1.3682,-0.7978,-0.1497,-0.4091,0.1087,
11.370695,-0.0083,0.8348,0.1432,0.2938,-1.3682,-0.7978,-0.2248,-0.5028,0.0032,
11.383800,-0.0083,0.8348,0.1432,0.2938,-1.3682,-0.7978,-0.1710,-0.3814,-0.0202,
11.404199,-0.0887,1.0295,0.2577,0.2938,-1.3682,-0.7978,-0.1710,-0.3814,-0.0202,
11.406673,-0.0887,1.0295,0.2577,-0.5250,0.5549,0.2567,-0.1710,-0.3814,-0.0202,
11.408346,-0.0887,1.0295,0.2577,-0.5250,0.5549,0.2567,-0.0373,-0.3846,-0.0495,
11.424087,-0.0887,1.0295,0.2577,-0.5250,0.5549,0.2567,0.1433,-0.4032,-0.0298,
11.443908,0.0093,1.0901,0.2289,-0.5250,0.5549,0.2567,0.1433,-0.4032,-0.0298,
11.446153,0.0093,1.0901,0.2289,0.4122,1.1423,-0.0023,0.1433,-0.4032,-0.0298,
11.447944,0.0093,1.0901,0.2289,0.4122,1.1423,-0.0023,0.3121,-0.3249,-0.0224,
11.464653,0.0093,1.0901,0.2289,0.4122,1.1423,-0.0023,0.3910,-0.2993,-0.0181,
11.483846,0.0533,1.1541,0.1209,0.4122,1.1423,-0.0023,0.3910,-0.2993,-0.0181,
11.487067,0.0533,1.1541,0.1209,0.8217,1.7384,-0.9271,0.3910,-0.2993,-0.0181,
11.488523,0.0533,1.1541,0.1209,0.8217,1.7384,-0.9271,0.4421,-0.2344,0.0479,
11.503189,0.0533,1.1541,0.1209,0.8217,1.7384,-0.9271,0.4394,-0.1236,0.0980,
11.523427,0.0501,1.0437,0.0254,0.8217,1.7384,-0.9271,0.4394,-0.1236,0.0980,
11.525838,0.0501,1.0437,0.0254,0.7412,0.6169,-1.6835,0.4394,-0.1236,0.0980,
11.527431,0.0501,1.0437,0.0254,0.7412,0.6169,-1.6835,0.2695,-0.0543,0.0506,
11.543393,0.0501,1.0437,0.0254,0.7412,0.6169,-1.6835,0.0724,-0.1635,0.0660,
11.563726,0.0296,0.9474,0.0701,0.7412,0.6169,-1.6835,0.0724,-0.1635,0.0660,
11.567049,0.0296,0.9474,0.0701,0.4932,-0.3466,-1.1478,0.0724,-0.1635,0.0660,
11.569026,0.0296,0.9474,0.0701,0.4932,-0.3466,-1.1478,-0.0399,-0.3116,0.1033,
11.584120,0.0296,0.9474,0.0701,0.4932,-0.3466,-1.1478,-0.1071,-0.2344,0.1028,
11.603379,-0.0042,0.8380,0.1312,0.4932,-0.3466,-1.1478,-0.1071,-0.2344,0.1028,
11.605758,-0.0042,0.8380,0.1312,0.0980,-1.4170,-0.5668,-0.1071,-0.2344,0.1028,
11.607683,-0.0042,0.8380,0.1312,0.0980,-1.4170,-0.5668,-0.0431,-0.1763,0.0804,
11.623277,-0.0042,0.8380,0.1312,0.0980,-1.4170,-0.5668,0.0692,-0.0799,0.0762,
11.643688,0.0191,0.9025,0.1065,0.0980,-1.4170,-0.5668,0.0692,-0.0799,0.0762,
11.647765,0.0191,0.9025,0.1065,0.1338,-0.8549,-0.4040,0.0692,-0.0799,0.0762,
11.650381,0.0191,0.9025,0.1065,0.1338,-0.8549,-0.4040,0.1545,0.0644,-0.0117,
11.663502,0.0191,0.9025,0.1065,0.1338,-0.8549,-0.4040,0.2445,0.0623,-0.0826,
11.683402,-0.0191,0.9523,0.0567,0.1338,-0.8549,-0.4040,0.2445,0.0623,-0.0826,
11.685727,-0.0191,0.9523,0.0567,-0.2175,-0.3788,-0.8079,0.2445,0.0623,-0.0826,
11.687694,-0.0191,0.9523,0.0567,-0.2175,-0.3788,-0.8079,0.2567,0.1087,-0.1060,
11.703282,-0.0191,0.9523,0.0567,-0.2175,-0.3788,-0.8079,0.2578,0.0586,-0.0655,
11.723133,-0.0230,1.0894,0.0498,-0.2175,-0.3788,-0.8079,0.2578,0.0586,-0.0655,
11.725645,-0.0230,1.0894,0.0498,-0.1346,0.8936,-0.1981,0.2578,0.0586,-0.0655,
11.727486,-0.0230,1.0894,0.0498,-0.1346,0.8936,-0.1981,0.2083,0.0602,-0.0373,
11.743095,-0.0230,1.0894,0.0498,-0.1346,0.8936,-0.1981,0.1662,0.0405,-0.0197,
11.764266,0.0117,1.1526,0.0906,-0.1346,0.8936,-0.1981,0.1662,0.0405,-0.0197,
11.767708,0.0117,1.1526,0.0906,0.1900,1.5106,0.2443,0.1662,0.0405,-0.0197,
11.768933,0.0117,1.1526,0.0906,0.1900,1.5106,0.2443,0.1044,0.0698,-0.0085,
11.783667,0.0117,1.1526,0.0906,0.1900,1.5106,0.2443,0.1076,0.0639,0.0000,
11.803911,0.0704,1.0701,0.1119,0.1900,1.5106,0.2443,0.1076,0.0639,0.0000,
11.806014,0.0704,1.0701,0.1119,0.5673,0.7090,0.3526,0.1076,0.0639,0.0000,
11.807738,0.0704,1.0701,0.1119,0.5673,0.7090,0.3526,0.0959,0.1555,0.0176,
11.823416,0.0704,1.0701,0.1119,0.5673,0.7090,0.3526,0.1252,0.0895,-0.0091,
11.843352,0.0643,0.9521,0.0850,0.5673,0.7090,0.3526,0.1252,0.0895,-0.0091,
11.846819,0.0643,0.9521,0.0850,0.4615,-0.4481,0.1073,0.1252,0.0895,-0.0091,
11.848754,0.0643,0.9521,0.0850,0.4615,-0.4481,0.1073,0.1028,0.0357,-0.0011,
11.863151,0.0643,0.9521,0.0850,0.4615,-0.4481,0.1073,0.0474,-0.0298,-0.0085,
11.883148,0.0266,0.8907,0.0770,0.4615,-0.4481,0.1073,0.0474,-0.0298,-0.0085,
11.885279,0.0266,0.8907,0.0770,0.0733,-1.0497,0.0416,0.0474,-0.0298,-0.0085,
11.887083,0.0266,0.8907,0.0770,0.0733,-1.0497,0.0416,0.0250,-0.0820,-0.0730,
11.903701,0.0266,0.8907,0.0770,0.0733,-1.0497,0.0416,-0.0064,-0.0266,-0.0660,
11.923573,-0.0066,0.9357,0.1019,0.0733,-1.0497,0.0416,-0.0064,-0.0266,-0.0660,
11.926572,-0.0066,0.9357,0.1019,-0.2286,-0.6085,0.2720,-0.0064,-0.0266,-0.0660,
11.928366,-0.0066,0.9357,0.1019,-0.2286,-0.6085,0.2720,0.0794,-0.1385,-0.0639,
11.942935,-0.0066,0.9357,0.1019,-0.2286,-0.6085,0.2720,0.1358,-0.1230,-0.0671,
11.963107,0.0029,0.9613,0.0848,-0.2286,-0.6085,0.2720,0.1358,-0.1230,-0.0671,
11.965512,0.0029,0.9613,0.0848,-0.1116,-0.3594,0.1298,0.1358,-0.1230,-0.0671,
11.967496,0.0029,0.9613,0.0848,-0.1116,-0.3594,0.1298,0.2200,-0.1656,-0.0682,
11.983416,0.0029,0.9613,0.0848,-0.1116,-0.3594,0.1298,0.2679,-0.1593,-0.0298,
12.004729,-0.0086,1.0102,0.0484,-0.1116,-0.3594,0.1298,0.2679,-0.1593,-0.0298,
12.007595,-0.0086,1.0102,0.0484,-0.2027,0.1132,-0.1382,0.2679,-0.1593,-0.0298,
12.009467,-0.0086,1.0102,0.0484,-0.2027,0.1132,-0.1382,0.2850,-0.0884,0.0160,
12.023103,-0.0086,1.0102,0.0484,-0.2027,0.1132,-0.1382,0.3270,-0.0064,0.0043,
12.043688,-0.0396,1.0481,0.0200,-0.2027,0.1132,-0.1382,0.3270,-0.0064,0.0043,
12.046051,-0.0396,1.0481,0.0200,-0.4725,0.4771,-0.2941,0.3270,-0.0064,0.0043,
12.047904,-0.0396,1.0481,0.0200,-0.4725,0.4771,-0.2941,0.3649,0.1177,0.0149,
12.062718,-0.0396,1.0481,0.0200,-0.4725,0.4771,-0.2941,0.3622,0.2072,0.0469,
12.082840,0.0227,1.0627,-0.0039,-0.4725,0.4771,-0.2941,0.3622,0.2072,0.0469,
12.085766,0.0227,1.0627,-0.0039,0.1294,0.6147,-0.3860,0.3622,0.2072,0.0469,
12.087583,0.0227,1.0627,-0.0039,0.1294,0.6147,-0.3860,0.2631,0.2248,0.0362,
12.102389,0.0227,1.0627,-0.0039,0.1294,0.6147,-0.3860,0.1880,0.0394,0.0362,
12.122982,0.0015,1.0109,-0.0203,0.1294,0.6147,-0.3860,0.1880,0.0394,0.0362,
12.127223,0.0015,1.0109,-0.0203,0.0024,0.1008,-0.2605,0.1880,0.0394,0.0362,
12.128972,0.0015,1.0109,-0.0203,0.0024,0.1008,-0.2605,0.1662,0.0011,0.0011,
12.143088,0.0015,1.0109,-0.0203,0.0024,0.1008,-0.2605,0.0517,0.1220,0.0666,
12.163645,0.0213,1.0073,0.0117,0.0024,0.1008,-0.2605,0.0517,0.1220,0.0666,
12.165751,0.0213,1.0073,0.0117,0.1825,0.0647,0.0951,0.0517,0.1220,0.0666,
12.167396,0.0213,1.0073,0.0117,0.1825,0.0647,0.0951,0.0629,-0.1273,0.0682,
12.184933,0.0213,1.0073,0.0117,0.1825,0.0647,0.0951,-0.0836,0.0101,0.0575,
12.202884,0.0269,1.0124,0.0406,0.1825,0.0647,0.0951,-0.0836,0.0101,0.0575,
12.204973,0.0269,1.0124,0.0406,0.0977,0.1187,0.1813,-0.0836,0.0101,0.0575,
12.206562,0.0269,1.0124,0.0406,0.0977,0.1187,0.1813,-0.0336,-0.0511,0.0197,
12.222986,0.0269,1.0124,0.0406,0.0977,0.1187,0.1813,-0.0479,-0.0767,0.0176,
12.242454,0.0195,0.9591,0.0503,0.0977,0.1187,0.1813,-0.0479,-0.0767,0.0176,
12.244655,0.0195,0.9591,0.0503,0.0144,-0.4010,0.1992,-0.0479,-0.0767,0.0176,
12.246280,0.0195,0.9591,0.0503,0.0144,-0.4010,0.1992,-0.0767,-0.0613,0.0533,
12.262200,0.0195,0.9591,0.0503,0.0144,-0.4010,0.1992,-0.0549,-0.0991,0.0565,
12.282791,0.0315,1.0251,0.0530,0.0144,-0.4010,0.1992,-0.0549,-0.0991,0.0565,
12.285067,0.0315,1.0251,0.0530,0.0910,0.2488,0.1491,-0.0549,-0.0991,0.0565,
12.286718,0.0315,1.0251,0.0530,0.0910,0.2488,0.1491,0.0138,-0.1076,0.0623,
12.302866,0.0315,1.0251,0.0530,0.0910,0.2488,0.1491,0.0261,-0.0383,0.0245,
12.322605,-0.0044,0.9731,0.0413,0.0910,0.2488,0.1491,0.0261,-0.0383,0.0245,
12.326341,-0.0044,0.9731,0.0413,-0.2706,-0.2611,0.0390,0.0261,-0.0383,0.0245,
12.328351,-0.0044,0.9731,0.0413,-0.2706,-0.2611,0.0390,-0.0096,-0.0085,0.0261,
12.342285,-0.0044,0.9731,0.0413,-0.2706,-0.2611,0.0390,0.0032,-0.0991,0.0293,
12.363013,0.0088,0.9694,0.0457,-0.2706,-0.2611,0.0390,0.0032,-0.0991,0.0293,
12.365391,0.0088,0.9694,0.0457,-0.1432,-0.2967,0.0764,0.0032,-0.0991,0.0293,
12.367231,0.0088,0.9694,0.0457,-0.1432,-0.2967,0.0764,0.0522,-0.0719,0.0442,
12.382602,0.0088,0.9694,0.0457,-0.1432,-0.2967,0.0764,0.1230,0.0032,0.0538,
12.402593,0.0283,0.9838,0.0335,-0.1432,-0.2967,0.0764,0.1230,0.0032,0.0538,
12.404796,0.0283,0.9838,0.0335,0.0315,-0.1562,-0.0110,0.1230,0.0032,0.0538,
12.406645,0.0283,0.9838,0.0335,0.0315,-0.1562,-0.0110,0.1593,0.0948,0.0352,
12.422165,0.0283,0.9838,0.0335,0.0315,-0.1562,-0.0110,0.1609,0.1177,0.0197,
12.442212,-0.0059,1.0119,0.0281,0.0315,-0.1562,-0.0110,0.1609,0.1177,0.0197,
12.445241,-0.0059,1.0119,0.0281,-0.2944,0.1171,-0.0085,0.1609,0.1177,0.0197,
12.447280,-0.0059,1.0119,0.0281,-0.2944,0.1171,-0.0085,0.1513,0.1353,0.0245,
12.461818,-0.0059,1.0119,0.0281,-0.2944,0.1171,-0.0085,0.2093,0.1198,0.0565,
12.481982,-0.0066,1.0200,0.0139,-0.2944,0.1171,-0.0085,0.2093,0.1198,0.0565,
12.485189,-0.0066,1.0200,0.0139,-0.2852,0.1941,-0.0827,0.2093,0.1198,0.0565,
12.487359,-0.0066,1.0200,0.0139,-0.2852,0.1941,-0.0827,0.2365,0.1683,0.0618,
12.502619,-0.0066,1.0200,0.0139,-0.2852,0.1941,-0.0827,0.2429,0.1987,0.0921,
12.522004,0.0110,0.9968,-0.0024,-0.2852,0.1941,-0.0827,0.2429,0.1987,0.0921,
12.524413,0.0110,0.9968,-0.0024,-0.1200,-0.0348,-0.1516,0.2429,0.1987,0.0921,
12.526370,0.0110,0.9968,-0.0024,-0.1200,-0.0348,-0.1516,0.2637,0.1854,0.0687,
12.541395,0.0110,0.9968,-0.0024,-0.1200,-0.0348,-0.1516,0.2700,0.2365,0.0330,
12.562644,0.0034,0.9628,-0.0296,-0.1200,-0.0348,-0.1516,0.2700,0.2365,0.0330,
12.566812,0.0034,0.9628,-0.0296,-0.1924,-0.3685,-0.3070,0.2700,0.2365,0.0330,
12.568831,0.0034,0.9628,-0.0296,-0.1924,-0.3685,-0.3070,0.1790,0.2541,0.0421,
12.581689,0.0034,0.9628,-0.0296,-0.1924,-0.3685,-0.3070,0.1401,0.1965,0.0586,
12.602126,0.0264,0.9880,-0.0515,-0.1924,-0.3685,-0.3070,0.1401,0.1965,0.0586,
12.604586,0.0264,0.9880,-0.0515,0.0251,-0.1215,-0.4383,0.1401,0.1965,0.0586,
12.606637,0.0264,0.9880,-0.0515,0.0251,-0.1215,-0.4383,0.0975,0.2013,0.0565,
12.622299,0.0264,0.9880,-0.0515,0.0251,-0.1215,-0.4383,0.0463,0.2242,0.0543,
12.642489,0.0296,0.9750,-0.0283,0.0251,-0.1215,-0.4383,0.0463,0.2242,0.0543,
12.644719,0.0296,0.9750,-0.0283,0.0380,-0.2476,-0.1704,0.0463,0.2242,0.0543,
12.646666,0.0296,0.9750,-0.0283,0.0380,-0.2476,-0.1704,0.0431,0.1699,0.0165,
12.662498,0.0296,0.9750,-0.0283,0.0380,-0.2476,-0.1704,-0.0458,0.1790,0.0192,
12.681943,0.0129,1.0114,-0.0117,0.0380,-0.2476,-0.1704,-0.0458,0.1790,0.0192,
12.684719,0.0129,1.0114,-0.0117,-0.1263,0.1092,-0.0033,-0.0458,0.1790,0.0192,
12.687022,0.0129,1.0114,-0.0117,-0.1263,0.1092,-0.0033,-0.0783,0.2120,0.0085,
12.701729,0.0129,1.0114,-0.0117,-0.1263,0.1092,-0.0033,-0.0032,0.1534,0.0123,
12.721658,0.0320,1.0095,0.0017,-0.1263,0.1092,-0.0033,-0.0032,0.1534,0.0123,
12.724569,0.0320,1.0095,0.0017,0.0561,0.0900,0.1107,-0.0032,0.1534,0.0123,
12.726309,0.0320,1.0095,0.0017,0.0561,0.0900,0.1107,-0.0133,0.0996,0.0320,
12.741961,0.0320,1.0095,0.0017,0.0561,0.0900,0.1107,-0.0730,0.1316,0.0378,
12.761677,0.0428,1.0383,0.0222,0.0561,0.0900,0.1107,-0.0730,0.1316,0.0378,
12.763836,0.0428,1.0383,0.0222,0.1454,0.3728,0.2877,-0.0730,0.1316,0.0378,
12.765364,0.0428,1.0383,0.0222,0.1454,0.3728,0.2877,-0.0405,0.0874,-0.0101,
12.781952,0.0428,1.0383,0.0222,0.1454,0.3728,0.2877,0.0293,0.0011,-0.0138,
12.801737,0.0252,1.0068,-0.0198,0.1454,0.3728,0.2877,0.0293,0.0011,-0.0138,
12.803816,0.0252,1.0068,-0.0198,-0.0225,0.0638,-0.1268,0.0293,0.0011,-0.0138,
12.805561,0.0252,1.0068,-0.0198,-0.0225,0.0638,-0.1268,0.0783,0.0320,-0.0176,
12.821682,0.0252,1.0068,-0.0198,-0.0225,0.0638,-0.1268,0.0479,0.0016,0.0117,
12.841544,0.0129,0.9665,-0.0178,-0.0225,0.0638,-0.1268,0.0479,0.0016,0.0117,
12.844208,0.0129,0.9665,-0.0178,-0.1397,-0.3311,-0.0825,0.0479,0.0016,0.0117,
12.846286,0.0129,0.9665,-0.0178,-0.1397,-0.3311,-0.0825,0.0016,0.0346,0.0426,
12.861583,0.0129,0.9665,-0.0178,-0.1397,-0.3311,-0.0825,-0.0458,0.0730,0.0112,
12.881800,0.0239,0.9921,0.0086,-0.1397,-0.3311,-0.0825,-0.0458,0.0730,0.0112,
12.884786,0.0239,0.9921,0.0086,-0.0406,-0.0796,0.1646,-0.0458,0.0730,0.0112,
12.886849,0.0239,0.9921,0.0086,-0.0406,-0.0796,0.1646,-0.0352,0.0501,-0.0091,
12.901890,0.0239,0.9921,0.0086,-0.0406,-0.0796,0.1646,-0.0069,0.0410,-0.0469,
12.922075,0.0371,0.9562,0.0107,-0.0406,-0.0796,0.1646,-0.0069,0.0410,-0.0469,
12.925024,0.0371,0.9562,0.0107,0.0982,-0.4319,0.1726,-0.0069,0.0410,-0.0469,
12.926700,0.0371,0.9562,0.0107,0.0982,-0.4319,0.1726,-0.1001,0.1246,-0.0383,
12.941740,0.0371,0.9562,0.0107,0.0982,-0.4319,0.1726,-0.0629,0.0490,-0.0783,
12.961987,0.0227,0.9963,0.0056,0.0982,-0.4319,0.1726,-0.0629,0.0490,-0.0783,
12.964325,0.0227,0.9963,0.0056,-0.0211,-0.0400,0.0866,-0.0629,0.0490,-0.0783,
12.966161,0.0227,0.9963,0.0056,-0.0211,-0.0400,0.0866,-0.0810,0.0453,-0.0591,
12.982353,0.0227,0.9963,0.0056,-0.0211,-0.0400,0.0866,-0.1209,0.0447,-0.0575,
13.001642,0.0269,1.0400,0.0227,-0.0211,-0.0400,0.0866,-0.1209,0.0447,-0.0575,
13.004315,0.0269,1.0400,0.0227,0.0401,0.3880,0.2076,-0.1209,0.0447,-0.0575,
13.005970,0.0269,1.0400,0.0227,0.0401,0.3880,0.2076,-0.0682,-0.0005,-0.1119,
13.021398,0.0269,1.0400,0.0227,0.0401,0.3880,0.2076,-0.0703,0.0245,-0.1150,
13.041897,0.0442,1.0300,0.0418,0.0401,0.3880,0.2076,-0.0703,0.0245,-0.1150,
13.044057,0.0442,1.0300,0.0418,0.2368,0.2895,0.3438,-0.0703,0.0245,-0.1150,
13.045695,0.0442,1.0300,0.0418,0.2368,0.2895,0.3438,-0.0064,-0.0698,-0.1262,
13.061971,0.0442,1.0300,0.0418,0.2368,0.2895,0.3438,0.0133,-0.1513,-0.1103,
13.081909,0.0217,0.9660,0.0442,0.2368,0.2895,0.3438,0.0133,-0.1513,-0.1103,
13.083974,0.0217,0.9660,0.0442,0.0406,-0.3379,0.3265,0.0133,-0.1513,-0.1103,
13.085703,0.0217,0.9660,0.0442,0.0406,-0.3379,0.3265,0.0527,-0.1646,-0.0863,
13.101806,0.0217,0.9660,0.0442,0.0406,-0.3379,0.3265,0.0714,-0.0927,-0.0538,
13.121647,0.0054,1.0578,0.0325,0.0406,-0.3379,0.3265,0.0714,-0.0927,-0.0538,
13.124803,0.0054,1.0578,0.0325,-0.0965,0.5620,0.2117,0.0714,-0.0927,-0.0538,
13.126445,0.0054,1.0578,0.0325,-0.0965,0.5620,0.2117,0.1284,-0.1486,-0.0277,
13.140895,0.0054,1.0578,0.0325,-0.0965,0.5620,0.2117,0.1854,-0.1832,-0.0064,
13.161464,0.0381,0.9802,0.0005,-0.0965,0.5620,0.2117,0.1854,-0.1832,-0.0064,
13.163747,0.0381,0.9802,0.0005,0.2179,-0.1997,-0.0542,0.1854,-0.1832,-0.0064,
13.165557,0.0381,0.9802,0.0005,0.2179,-0.1997,-0.0542,0.1145,-0.1294,0.0245,
13.183004,0.0381,0.9802,0.0005,0.2179,-0.1997,-0.0542,0.1097,-0.1427,0.0378,
13.200904,-0.0308,0.9999,-0.0437,0.2179,-0.1997,-0.0542,0.1097,-0.1427,0.0378,
13.203709,-0.0308,0.9999,-0.0437,-0.4552,-0.0060,-0.4337,0.1097,-0.1427,0.0378,
13.205520,-0.0308,0.9999,-0.0437,-0.4552,-0.0060,-0.4337,0.0543,-0.1342,0.0421,
13.221093,-0.0308,0.9999,-0.0437,-0.4552,-0.0060,-0.4337,-0.0261,-0.0639,0.0852,
13.241424,0.0403,1.0197,-0.0193,-0.4552,-0.0060,-0.4337,-0.0261,-0.0639,0.0852,
13.244014,0.0403,1.0197,-0.0193,0.2165,0.1884,-0.1800,-0.0261,-0.0639,0.0852,
13.245720,0.0403,1.0197,-0.0193,0.2165,0.1884,-0.1800,0.0064,-0.1369,0.0144,
13.261000,0.0403,1.0197,-0.0193,0.2165,0.1884,-0.1800,-0.0415,-0.0671,0.0160,
13.281510,-0.0054,0.9110,0.0002,0.2165,0.1884,-0.1800,-0.0415,-0.0671,0.0160,
13.284494,-0.0054,0.9110,0.0002,-0.2324,-0.8770,0.0087,-0.0415,-0.0671,0.0160,
13.286330,-0.0054,0.9110,0.0002,-0.2324,-0.8770,0.0087,0.0245,-0.1257,-0.0005,
13.301273,-0.0054,0.9110,0.0002,-0.2324,-0.8770,0.0087,0.0293,-0.0788,0.0266,
13.321118,-0.0408,0.8712,-0.0269,-0.2324,-0.8770,0.0087,0.0293,-0.0788,0.0266,
13.323592,-0.0408,0.8712,-0.0269,-0.5682,-1.2675,-0.2382,0.0293,-0.0788,0.0266,
13.325561,-0.0408,0.8712,-0.0269,-0.5682,-1.2675,-0.2382,0.0096,-0.0032,0.0767,
13.340956,-0.0408,0.8712,-0.0269,-0.5682,-1.2675,-0.2382,0.0037,0.0325,0.0389,
13.361095,0.0222,1.0461,-0.0359,-0.5682,-1.2675,-0.2382,0.0037,0.0325,0.0389,
13.363540,0.0222,1.0461,-0.0359,0.0477,0.4469,-0.2975,0.0037,0.0325,0.0389,
13.365352,0.0222,1.0461,-0.0359,0.0477,0.4469,-0.2975,-0.0117,0.0985,-0.0112,
13.382704,0.0222,1.0461,-0.0359,0.0477,0.4469,-0.2975,-0.0170,0.0458,-0.0565,
13.401324,0.0279,1.0659,0.0198,0.0477,0.4469,-0.2975,-0.0170,0.0458,-0.0565,
13.403717,0.0279,1.0659,0.0198,0.1163,0.6406,0.2423,-0.0170,0.0458,-0.0565,
13.405260,0.0279,1.0659,0.0198,0.1163,0.6406,0.2423,-0.0085,0.0410,-0.0788,
13.421455,0.0279,1.0659,0.0198,0.1163,0.6406,0.2423,0.0245,0.0160,-0.0314,
13.441357,0.0010,1.0911,0.0379,0.1163,0.6406,0.2423,0.0245,0.0160,-0.0314,
13.443488,0.0010,1.0911,0.0379,-0.1221,0.8868,0.4126,0.0245,0.0160,-0.0314,
13.445223,0.0010,1.0911,0.0379,-0.1221,0.8868,0.4126,0.0543,-0.0474,-0.0011,
13.460472,0.0010,1.0911,0.0379,-0.1221,0.8868,0.4126,0.0309,-0.0421,0.0138,
13.480855,0.0132,1.0713,0.0164,-0.1221,0.8868,0.4126,0.0309,-0.0421,0.0138,
13.483861,0.0132,1.0713,0.0164,-0.0029,0.6929,0.2093,0.0309,-0.0421,0.0138,
13.485376,0.0132,1.0713,0.0164,-0.0029,0.6929,0.2093,0.0383,-0.0613,0.0250,
13.500975,0.0132,1.0713,0.0164,-0.0029,0.6929,0.2093,0.0453,-0.1028,0.0378,
13.521233,0.0537,0.9640,0.0024,-0.0029,0.6929,0.2093,0.0453,-0.1028,0.0378,
13.523323,0.0537,0.9640,0.0024,0.3691,-0.3577,0.0742,0.0453,-0.1028,0.0378,
13.525088,0.0537,0.9640,0.0024,0.3691,-0.3577,0.0742,0.0724,-0.1614,0.0383,
13.540507,0.0537,0.9640,0.0024,0.3691,-0.3577,0.0742,0.0868,-0.1417,0.0234,
13.560485,-0.0408,0.9071,-0.0354,0.3691,-0.3577,0.0742,0.0868,-0.1417,0.0234,
13.562927,-0.0408,0.9071,-0.0354,-0.5560,-0.9154,-0.2634,0.0868,-0.1417,0.0234,
13.564633,-0.0408,0.9071,-0.0354,-0.5560,-0.9154,-0.2634,0.1033,-0.0756,0.0565,
13.583549,-0.0408,0.9071,-0.0354,-0.5560,-0.9154,-0.2634,0.0767,-0.0794,0.1055,
13.601641,-0.0054,1.0046,-0.0371,-0.5560,-0.9154,-0.2634,0.0767,-0.0794,0.1055,
13.604140,-0.0054,1.0046,-0.0371,-0.2150,0.0405,-0.2333,0.0767,-0.0794,0.1055,
13.605931,-0.0054,1.0046,-0.0371,-0.2150,0.0405,-0.2333,0.0186,0.0080,0.1001,
13.620736,-0.0054,1.0046,-0.0371,-0.2150,0.0405,-0.2333,0.0352,0.1049,0.0511,
13.640430,-0.0315,1.0261,-0.0159,-0.2150,0.0405,-0.2333,0.0352,0.1049,0.0511,
13.643728,-0.0315,1.0261,-0.0159,-0.4346,0.2509,-0.0058,0.0352,0.1049,0.0511,
13.645384,-0.0315,1.0261,-0.0159,-0.4346,0.2509,-0.0058,0.0064,0.0980,0.0740,
13.660805,-0.0315,1.0261,-0.0159,-0.4346,0.2509,-0.0058,-0.0261,0.1593,0.1465,
13.680273,0.0173,1.0727,0.0220,-0.4346,0.2509,-0.0058,-0.0261,0.1593,0.1465,
13.681667,0.0173,1.0727,0.0220,0.0164,0.7084,0.3490,-0.0261,0.1593,0.1465,
13.682502,0.0173,1.0727,0.0220,0.0164,0.7084,0.3490,0.0165,0.0650,0.1278,
13.700342,0.0173,1.0727,0.0220,0.0164,0.7084,0.3490,0.0128,0.0314,0.1438,
13.720892,0.0332,1.0222,0.0276,0.0164,0.7084,0.3490,0.0128,0.0314,0.1438,
13.724722,0.0332,1.0222,0.0276,0.1270,0.2133,0.3831,0.0128,0.0314,0.1438,
13.726773,0.0332,1.0222,0.0276,0.1270,0.2133,0.3831,0.0261,0.0426,0.1625,
13.740827,0.0332,1.0222,0.0276,0.1270,0.2133,0.3831,0.1188,0.0921,0.1603,
13.760406,0.0774,0.9740,-0.0132,0.1270,0.2133,0.3831,0.1188,0.0921,0.1603,
13.763425,0.0774,0.9740,-0.0132,0.4815,-0.2563,-0.0053,0.1188,0.0921,0.1603,
13.765786,0.0774,0.9740,-0.0132,0.4815,-0.2563,-0.0053,0.1949,-0.0330,0.1033,
13.781795,0.0774,0.9740,-0.0132,0.4815,-0.2563,-0.0053,0.1502,0.0921,0.1289,
13.800454,0.0181,0.9682,-0.0313,0.4815,-0.2563,-0.0053,0.1502,0.0921,0.1289,
13.802845,0.0181,0.9682,-0.0313,-0.1455,-0.3113,-0.1173,0.1502,0.0921,0.1289,
13.804757,0.0181,0.9682,-0.0313,-0.1455,-0.3113,-0.1173,0.2338,0.1204,0.1172,
13.820476,0.0181,0.9682,-0.0313,-0.1455,-0.3113,-0.1173,0.2706,0.1135,0.1017,
13.840271,-0.0318,0.9047,-0.0909,-0.1455,-0.3113,-0.1173,0.2706,0.1135,0.1017,
13.842779,-0.0318,0.9047,-0.0909,-0.6433,-0.9305,-0.5840,0.2706,0.1135,0.1017,
13.844779,-0.0318,0.9047,-0.0909,-0.6433,-0.9305,-0.5840,0.2301,0.2354,0.1411,
13.860265,-0.0318,0.9047,-0.0909,-0.6433,-0.9305,-0.5840,0.1417,0.3345,0.1049,
13.880511,-0.0655,0.9274,-0.1273,-0.6433,-0.9305,-0.5840,0.1417,0.3345,0.1049,
13.883215,-0.0655,0.9274,-0.1273,-0.9671,-0.7040,-0.8299,0.1417,0.3345,0.1049,
13.885040,-0.0655,0.9274,-0.1273,-0.9671,-0.7040,-0.8299,-0.0730,0.5161,0.1241,
13.900147,-0.0655,0.9274,-0.1273,-0.9671,-0.7040,-0.8299,-0.1683,0.6546,0.1220,
13.920271,0.0821,1.1756,-0.0772,-0.9671,-0.7040,-0.8299,-0.1683,0.6546,0.1220,
13.924039,0.0821,1.1756,-0.0772,0.4259,1.7286,-0.3861,-0.1683,0.6546,0.1220,
13.925610,0.0821,1.1756,-0.0772,0.4259,1.7286,-0.3861,-0.2147,0.5646,0.0075,
13.940027,0.0821,1.1756,-0.0772,0.4259,1.7286,-0.3861,-0.3601,0.4320,-0.0005,
13.961069,0.1138,1.0202,0.0310,0.4259,1.7286,-0.3861,-0.3601,0.4320,-0.0005,
13.964817,0.1138,1.0202,0.0310,0.7266,0.2025,0.5553,-0.3601,0.4320,-0.0005,
13.966330,0.1138,1.0202,0.0310,0.7266,0.2025,0.5553,-0.5529,0.3595,0.0533,
13.984177,0.1138,1.0202,0.0310,0.7266,0.2025,0.5553,-0.5135,0.1720,0.0250,
14.000963,0.0992,0.9951,0.1085,0.7266,0.2025,0.5553,-0.5135,0.1720,0.0250,
14.005472,0.0992,0.9951,0.1085,0.5550,-0.0462,1.0913,-0.5135,0.1720,0.0250,
14.007365,0.0992,0.9951,0.1085,0.5550,-0.0462,1.0913,-0.2956,0.0863,-0.0884,
14.020361,0.0992,0.9951,0.1085,0.5550,-0.0462,1.0913,-0.1848,0.0724,-0.1220,
14.040407,-0.0569,0.8167,0.0999,0.5550,-0.0462,1.0913,-0.1848,0.0724,-0.1220,
14.043774,-0.0569,0.8167,0.0999,-0.9315,-1.7954,0.9052,-0.1848,0.0724,-0.1220,
14.045619,-0.0569,0.8167,0.0999,-0.9315,-1.7954,0.9052,-0.0570,0.1880,-0.0778,
14.060074,-0.0569,0.8167,0.0999,-0.9315,-1.7954,0.9052,0.0996,0.3329,0.0101,
14.080719,0.0222,0.9968,0.0625,-0.9315,-1.7954,0.9052,0.0996,0.3329,0.0101,
14.084153,0.0222,0.9968,0.0625,-0.1381,-0.0315,0.5302,0.0996,0.3329,0.0101,
14.086214,0.0222,0.9968,0.0625,-0.1381,-0.0315,0.5302,0.2908,0.3638,0.0245,
14.100273,0.0222,0.9968,0.0625,-0.1381,-0.0315,0.5302,0.3840,0.4767,0.0240,
14.119624,0.0511,1.0593,-0.0169,-0.1381,-0.0315,0.5302,0.3840,0.4767,0.0240,
14.121759,0.0511,1.0593,-0.0169,0.1365,0.5814,-0.1329,0.3840,0.4767,0.0240,
14.123552,0.0511,1.0593,-0.0169,0.1365,0.5814,-0.1329,0.3899,0.4639,0.0320,
14.139299,0.0511,1.0593,-0.0169,0.1365,0.5814,-0.1329,0.3036,0.3601,0.0043,
14.159361,0.0704,1.0471,-0.0945,0.1365,0.5814,-0.1329,0.3036,0.3601,0.0043,
14.162833,0.0704,1.0471,-0.0945,0.3158,0.4634,-0.7638,0.3036,0.3601,0.0043,
14.164551,0.0704,1.0471,-0.0945,0.3158,0.4634,-0.7638,0.1577,0.3244,-0.0202,
14.179516,0.0704,1.0471,-0.0945,0.3158,0.4634,-0.7638,0.0043,0.3292,-0.0602,
14.200696,0.0191,1.0447,-0.0877,0.3158,0.4634,-0.7638,0.0043,0.3292,-0.0602,
14.203663,0.0191,1.0447,-0.0877,-0.1733,0.4395,-0.6627,0.0043,0.3292,-0.0602,
14.205453,0.0191,1.0447,-0.0877,-0.1733,0.4395,-0.6627,-0.1550,0.3324,-0.0522,
14.220759,0.0191,1.0447,-0.0877,-0.1733,0.4395,-0.6627,-0.1768,0.2626,-0.0597,
14.239590,0.0557,1.0014,-0.0024,-0.1733,0.4395,-0.6627,-0.1768,0.2626,-0.0597,
14.241824,0.0557,1.0014,-0.0024,0.2041,0.0140,0.1068,-0.1768,0.2626,-0.0597,
14.243188,0.0557,1.0014,-0.0024,0.2041,0.0140,0.1068,-0.2194,0.2839,-0.0911,
14.259629,0.0557,1.0014,-0.0024,0.2041,0.0140,0.1068,-0.2471,0.3233,-0.0698,
14.279296,0.0015,0.9726,0.0450,0.2041,0.0140,0.1068,-0.2471,0.3233,-0.0698,
14.282809,0.0015,0.9726,0.0450,-0.2729,-0.2711,0.4527,-0.2471,0.3233,-0.0698,
14.284529,0.0015,0.9726,0.0450,-0.2729,-0.2711,0.4527,-0.2312,0.3281,-0.0517,
14.300429,0.0015,0.9726,0.0450,-0.2729,-0.2711,0.4527,-0.1694,0.2850,-0.0421,
14.319715,0.0581,0.9745,0.0567,-0.2729,-0.2711,0.4527,-0.1694,0.2850,-0.0421,
14.321784,0.0581,0.9745,0.0567,0.1746,-0.2450,0.3040,-0.1694,0.2850,-0.0421,
14.323660,0.0581,0.9745,0.0567,0.1746,-0.2450,0.3040,-0.1097,0.2296,-0.0767,
14.339672,0.0581,0.9745,0.0567,0.1746,-0.2450,0.3040,-0.0330,0.2551,-0.1135,
14.359884,0.0213,0.9545,0.0704,0.1746,-0.2450,0.3040,-0.0330,0.2551,-0.1135,
14.361956,0.0213,0.9545,0.0704,-0.1213,-0.4385,0.2834,-0.0330,0.2551,-0.1135,
14.363775,0.0213,0.9545,0.0704,-0.1213,-0.4385,0.2834,0.0229,0.3015,-0.1513,
14.385365,0.0213,0.9545,0.0704,-0.1213,-0.4385,0.2834,0.1204,0.2541,-0.1310,
14.398619,-0.0086,1.0708,0.0359,-0.1213,-0.4385,0.2834,0.1204,0.2541,-0.1310,
14.400500,-0.0086,1.0708,0.0359,-0.3521,0.6982,-0.0297,0.1204,0.2541,-0.1310,
14.401869,-0.0086,1.0708,0.0359,-0.3521,0.6982,-0.0297,0.2455,0.3127,-0.1241,
14.419551,-0.0086,1.0708,0.0359,-0.3521,0.6982,-0.0297,0.2546,0.4027,-0.0842,
14.439021,0.0166,1.0556,0.0012,-0.3521,0.6982,-0.0297,0.2546,0.4027,-0.0842,
14.441553,0.0166,1.0556,0.0012,-0.0594,0.5454,-0.2748,0.2546,0.4027,-0.0842,
14.443342,0.0166,1.0556,0.0012,-0.0594,0.5454,-0.2748,0.1944,0.2871,-0.0495,
14.459479,0.0166,1.0556,0.0012,-0.0594,0.5454,-0.2748,0.0325,0.2109,-0.0138,
14.478630,0.1234,1.0471,0.0344,-0.0594,0.5454,-0.2748,0.0325,0.2109,-0.0138,
14.480906,0.1234,1.0471,0.0344,0.6271,0.4758,0.0700,0.0325,0.2109,-0.0138,
14.482694,0.1234,1.0471,0.0344,0.6271,0.4758,0.0700,0.0554,0.1545,-0.0447,
14.499205,0.1234,1.0471,0.0344,0.6271,0.4758,0.0700,0.0581,-0.0256,-0.0868,
14.519170,0.0559,0.9122,0.0291,0.6271,0.4758,0.0700,0.0581,-0.0256,-0.0868,
14.521768,0.0559,0.9122,0.0291,-0.0075,-0.8478,0.0378,0.0581,-0.0256,-0.0868,
14.523717,0.0559,0.9122,0.0291,-0.0075,-0.8478,0.0378,0.1001,-0.1257,-0.0724,
14.538861,0.0559,0.9122,0.0291,-0.0075,-0.8478,0.0378,0.1411,-0.0383,-0.0916,
14.559308,-0.0418,0.8575,-0.0205,-0.0075,-0.8478,0.0378,0.1411,-0.0383,-0.0916,
14.561561,-0.0418,0.8575,-0.0205,-0.9296,-1.3872,-0.3979,0.1411,-0.0383,-0.0916,
14.563514,-0.0418,0.8575,-0.0205,-0.9296,-1.3872,-0.3979,0.1236,0.1609,-0.0533,
14.581818,-0.0418,0.8575,-0.0205,-0.9296,-1.3872,-0.3979,0.2802,0.2194,-0.0852,
14.598753,-0.0418,0.9933,-0.0782,-0.9296,-1.3872,-0.3979,0.2802,0.2194,-0.0852,
14.601044,-0.0418,0.9933,-0.0782,-0.8880,-0.0595,-0.8782,0.2802,0.2194,-0.0852,
14.603107,-0.0418,0.9933,-0.0782,-0.8880,-0.0595,-0.8782,0.2903,0.2312,-0.0586,
14.618973,-0.0418,0.9933,-0.0782,-0.8880,-0.0595,-0.8782,0.2535,0.3159,-0.0282,
14.638562,0.0823,1.0600,-0.0936,-0.8880,-0.0595,-0.8782,0.2535,0.3159,-0.0282,
14.641042,0.0823,1.0600,-0.0936,0.3522,0.5923,-0.9057,0.2535,0.3159,-0.0282,
14.642612,0.0823,1.0600,-0.0936,0.3522,0.5923,-0.9057,0.2439,0.1278,-0.1055,
14.658955,0.0823,1.0600,-0.0936,0.3522,0.5923,-0.9057,-0.0256,0.2834,-0.0767,
14.678595,0.0708,1.1113,-0.0408,0.3522,0.5923,-0.9057,-0.0256,0.2834,-0.0767,
14.681237,0.0708,1.1113,-0.0408,0.2744,1.0937,-0.3411,-0.0256,0.2834,-0.0767,
14.682469,0.0708,1.1113,-0.0408,0.2744,1.0937,-0.3411,-0.0911,-0.0064,-0.1124,
14.698631,0.0708,1.1113,-0.0408,0.2744,1.0937,-0.3411,-0.2200,-0.0288,-0.1630,
14.718683,0.0535,1.0547,-0.0110,0.2744,1.0937,-0.3411,-0.2200,-0.0288,-0.1630,
14.720750,0.0535,1.0547,-0.0110,0.1564,0.5360,-0.1039,-0.2200,-0.0288,-0.1630,
14.722546,0.0535,1.0547,-0.0110,0.1564,0.5360,-0.1039,-0.2818,-0.0075,-0.1827,
14.739303,0.0535,1.0547,-0.0110,0.1564,0.5360,-0.1039,-0.2184,-0.0639,-0.2429,
14.759752,-0.0445,0.9679,0.0217,0.1564,0.5360,-0.1039,-0.2184,-0.0639,-0.2429,
14.763728,-0.0445,0.9679,0.0217,-0.7153,-0.3164,0.1244,-0.2184,-0.0639,-0.2429,
14.765998,-0.0445,0.9679,0.0217,-0.7153,-0.3164,0.1244,-0.1417,-0.0900,-0.1763,
14.781430,-0.0445,0.9679,0.0217,-0.7153,-0.3164,0.1244,-0.0895,-0.1273,-0.0607,
14.798916,0.0542,0.9252,-0.0235,-0.7153,-0.3164,0.1244,-0.0895,-0.1273,-0.0607,
14.801103,0.0542,0.9252,-0.0235,0.2431,-0.7343,-0.0737,-0.0895,-0.1273,-0.0607,
14.802948,0.0542,0.9252,-0.0235,0.2431,-0.7343,-0.0737,-0.0836,-0.2221,-0.0778,
14.818409,0.0542,0.9252,-0.0235,0.2431,-0.7343,-0.0737,-0.1326,-0.1065,-0.1097,
14.838415,-0.0462,0.9616,0.0139,0.2431,-0.7343,-0.0737,-0.1326,-0.1065,-0.1097,
14.841756,-0.0462,0.9616,0.0139,-0.4178,-0.3830,0.1658,-0.1326,-0.1065,-0.1097,
14.844416,-0.0462,0.9616,0.0139,-0.4178,-0.3830,0.1658,-0.1161,-0.0772,-0.0804,
14.858540,-0.0462,0.9616,0.0139,-0.4178,-0.3830,0.1658,-0.1039,-0.1758,-0.0186,
14.878210,0.0357,1.0068,0.0508,-0.4178,-0.3830,0.1658,-0.1039,-0.1758,-0.0186,
14.880581,0.0357,1.0068,0.0508,0.3790,0.0600,0.4594,-0.1039,-0.1758,-0.0186,
14.881995,0.0357,1.0068,0.0508,0.3790,0.0600,0.4594,-0.0549,-0.1411,-0.0059,
14.899605,0.0357,1.0068,0.0508,0.3790,0.0600,0.4594,0.0527,-0.1854,-0.0149,
14.918491,-0.0117,1.0261,0.0134,0.3790,0.0600,0.4594,0.0527,-0.1854,-0.0149,
14.920457,-0.0117,1.0261,0.0134,-0.0864,0.2492,0.0820,0.0527,-0.1854,-0.0149,
14.922153,-0.0117,1.0261,0.0134,-0.0864,0.2492,0.0820,0.0245,-0.1177,0.0250,
14.938965,-0.0117,1.0261,0.0134,-0.0864,0.2492,0.0820,0.0639,-0.2072,0.0458,
14.958473,0.0222,0.9794,-0.0555,-0.0864,0.2492,0.0820,0.0639,-0.2072,0.0458,
14.960732,0.0222,0.9794,-0.0555,0.2182,-0.2083,-0.5567,0.0639,-0.2072,0.0458,
14.962435,0.0222,0.9794,-0.0555,0.2182,-0.2083,-0.5567,0.0069,-0.2919,0.0719,
14.978617,0.0222,0.9794,-0.0555,0.2182,-0.2083,-0.5567,-0.0597,-0.2621,0.0767,
14.997899,-0.0281,1.0368,-0.0457,0.2182,-0.2083,-0.5567,-0.0597,-0.2621,0.0767,
15.001349,-0.0281,1.0368,-0.0457,-0.2910,0.3544,-0.4257,-0.0597,-0.2621,0.0767,
15.003067,-0.0281,1.0368,-0.0457,-0.2910,0.3544,-0.4257,-0.0858,-0.1822,0.0613,
15.018204,-0.0281,1.0368,-0.0457,-0.2910,0.3544,-0.4257,-0.1401,-0.3079,0.1060,
15.038048,0.0501,0.9853,0.0034,-0.2910,0.3544,-0.4257,-0.1401,-0.3079,0.1060,
15.040285,0.0501,0.9853,0.0034,0.4266,-0.1506,0.0312,-0.1401,-0.3079,0.1060,
15.042025,0.0501,0.9853,0.0034,0.4266,-0.1506,0.0312,-0.1539,-0.3111,0.1188,
15.058447,0.0501,0.9853,0.0034,0.4266,-0.1506,0.0312,-0.1119,-0.2029,0.0916,
15.078368,-0.0352,1.0007,0.0098,0.4266,-0.1506,0.0312,-0.1119,-0.2029,0.0916,
15.080811,-0.0352,1.0007,0.0098,-0.4347,0.0005,0.0518,-0.1119,-0.2029,0.0916,
15.082236,-0.0352,1.0007,0.0098,-0.4347,0.0005,0.0518,-0.0581,-0.2120,0.1305,
15.098186,-0.0352,1.0007,0.0098,-0.4347,0.0005,0.0518,-0.0245,-0.1337,0.1529,
15.118075,0.0330,0.9540,0.0078,-0.4347,0.0005,0.0518,-0.0245,-0.1337,0.1529,
15.120180,0.0330,0.9540,0.0078,0.1783,-0.4560,0.0186,-0.0245,-0.1337,0.1529,
15.121730,0.0330,0.9540,0.0078,0.1783,-0.4560,0.0186,0.0197,-0.2221,0.1518,
15.138156,0.0330,0.9540,0.0078,0.1783,-0.4560,0.0186,0.0836,-0.1012,0.1348,
15.158570,0.0225,0.9540,-0.0225,0.1783,-0.4560,0.0186,0.0836,-0.1012,0.1348,
15.160613,0.0225,0.9540,-0.0225,0.0209,-0.4552,-0.2501,0.0836,-0.1012,0.1348,
15.162490,0.0225,0.9540,-0.0225,0.0209,-0.4552,-0.2501,0.0415,-0.0575,0.1742,
15.178300,0.0225,0.9540,-0.0225,0.0209,-0.4552,-0.2501,0.1257,0.0357,0.1273,
15.199051,-0.0259,0.9872,-0.0430,0.0209,-0.4552,-0.2501,0.1257,0.0357,0.1273,
15.201170,-0.0259,0.9872,-0.0430,-0.4699,-0.1292,-0.3826,0.1257,0.0357,0.1273,
15.203163,-0.0259,0.9872,-0.0430,-0.4699,-0.1292,-0.3826,0.1598,-0.0037,0.1358,
15.218569,-0.0259,0.9872,-0.0430,-0.4699,-0.1292,-0.3826,0.1300,0.0112,0.1944,
15.238435,0.0330,0.9787,-0.0623,-0.4699,-0.1292,-0.3826,0.1300,0.0112,0.1944,
15.241379,0.0330,0.9787,-0.0623,0.0657,-0.2110,-0.4672,0.1300,0.0112,0.1944,
15.243098,0.0330,0.9787,-0.0623,0.0657,-0.2110,-0.4672,0.0762,0.0863,0.1262,
15.258152,0.0330,0.9787,-0.0623,0.0657,-0.2110,-0.4672,-0.0181,0.0948,0.1012,
15.278256,0.0396,1.0559,-0.0726,0.0657,-0.2110,-0.4672,-0.0181,0.0948,0.1012,
15.281402,0.0396,1.0559,-0.0726,0.0968,0.5478,-0.4926,-0.0181,0.0948,0.1012,
15.283392,0.0396,1.0559,-0.0726,0.0968,0.5478,-0.4926,-0.0399,0.1241,0.0985,
15.299056,0.0396,1.0559,-0.0726,0.0968,0.5478,-0.4926,-0.0911,0.1662,0.0559,
15.318070,0.0638,0.9589,-0.0513,0.0968,0.5478,-0.4926,-0.0911,0.1662,0.0559,
15.320263,0.0638,0.9589,-0.0513,0.2867,-0.4004,-0.2517,-0.0911,0.1662,0.0559,
15.322021,0.0638,0.9589,-0.0513,0.2867,-0.4004,-0.2517,-0.2551,0.0005,0.0447,
15.338432,0.0638,0.9589,-0.0513,0.2867,-0.4004,-0.2517,-0.4155,0.0144,0.0043,
15.357884,0.0850,0.9745,0.0227,0.2867,-0.4004,-0.2517,-0.4155,0.0144,0.0043,
15.360250,0.0850,0.9745,0.0227,0.4788,-0.2490,0.3446,-0.4155,0.0144,0.0043,
15.361927,0.0850,0.9745,0.0227,0.4788,-0.2490,0.3446,-0.4980,0.0884,-0.0783,
15.377592,0.0850,0.9745,0.0227,0.4788,-0.2490,0.3446,-0.4165,-0.0298,-0.1017,
15.397685,0.0362,1.0302,0.0826,0.4788,-0.2490,0.3446,-0.4165,-0.0298,-0.1017,
15.400499,0.0362,1.0302,0.0826,0.0306,0.2952,0.7470,-0.4165,-0.0298,-0.1017,
15.402892,0.0362,1.0302,0.0826,0.0306,0.2952,0.7470,-0.2786,-0.0996,-0.1065,
15.418287,0.0362,1.0302,0.0826,0.0306,0.2952,0.7470,-0.2194,-0.0900,-0.0629,
15.438214,0.0259,0.9738,0.1065,0.0306,0.2952,0.7470,-0.2194,-0.0900,-0.0629,
15.440236,0.0259,0.9738,0.1065,-0.0409,-0.2574,0.8695,-0.2194,-0.0900,-0.0629,
15.442024,0.0259,0.9738,0.1065,-0.0409,-0.2574,0.8695,-0.0969,-0.0916,-0.0794,
15.457797,0.0259,0.9738,0.1065,-0.0409,-0.2574,0.8695,-0.0064,-0.1241,-0.1113,
15.478221,0.0166,0.9916,0.0515,-0.0409,-0.2574,0.8695,-0.0064,-0.1241,-0.1113,
15.480570,0.0166,0.9916,0.0515,-0.0967,-0.0830,0.2985,-0.0064,-0.1241,-0.1113,
15.482392,0.0166,0.9916,0.0515,-0.0967,-0.0830,0.2985,0.0218,-0.0889,-0.0629,
15.498018,0.0166,0.9916,0.0515,-0.0967,-0.0830,0.2985,0.0368,-0.1310,-0.0362,
15.518444,0.0442,1.0244,0.0557,-0.0967,-0.0830,0.2985,0.0368,-0.1310,-0.0362,
15.520630,0.0442,1.0244,0.0557,0.0836,0.2536,0.0021,0.0368,-0.1310,-0.0362,
15.522265,0.0442,1.0244,0.0557,0.0836,0.2536,0.0021,0.0043,-0.1401,-0.0655,
15.537670,0.0442,1.0244,0.0557,0.0836,0.2536,0.0021,0.0858,-0.2653,-0.0772,
15.558029,0.0027,0.9584,0.0132,0.0836,0.2536,0.0021,0.0858,-0.2653,-0.0772,
