
time,gFx,gFy,gFz,ax,ay,az,wx,wy,wz,
0.017436,0.0000,0.0000,0.0000,0.0000,0.0000,0.0000,-0.1896,0.1635,0.0341,
0.036168,-0.1331,0.0989,1.0310,0.0000,0.0000,0.0000,-0.1896,0.1635,0.0341,
0.037655,-0.1331,0.0989,1.0310,0.0000,0.0000,0.0000,-0.1896,0.1635,0.0341,
0.055871,-0.1331,0.0989,1.0310,0.0000,0.0000,0.0000,-0.1896,0.1635,0.0341,
0.076742,-0.1129,0.1984,1.1690,0.0000,0.0000,0.0000,-0.1896,0.1635,0.0341,
0.078263,-0.1129,0.1984,1.1690,-0.1768,0.3108,1.8313,-0.1896,0.1635,0.0341,
0.079529,-0.1129,0.1984,1.1690,-0.1768,0.3108,1.8313,-0.1896,0.1635,0.0341,
0.096409,-0.1129,0.1984,1.1690,-0.1768,0.3108,1.8313,2.0528,1.2224,1.1292,
0.116800,0.1598,0.0305,1.0261,-0.1768,0.3108,1.8313,2.0528,1.2224,1.1292,
0.118590,0.1598,0.0305,1.0261,1.5280,-0.8114,0.3122,2.0528,1.2224,1.1292,
0.120306,0.1598,0.0305,1.0261,1.5280,-0.8114,0.3122,2.4379,1.0253,0.8810,
0.136342,0.1598,0.0305,1.0261,1.5280,-0.8114,0.3122,2.6099,0.2567,0.3505,
0.155758,-0.0147,0.1055,0.8416,1.5280,-0.8114,0.3122,2.6099,0.2567,0.3505,
0.158140,-0.0147,0.1055,0.8416,-0.1059,-0.1163,-1.4908,2.6099,0.2567,0.3505,
0.160447,-0.0147,0.1055,0.8416,-0.1059,-0.1163,-1.4908,2.5902,0.1001,-0.1321,
0.176232,-0.0147,0.1055,0.8416,-0.1059,-0.1163,-1.4908,2.4613,0.1012,-0.4197,
0.196398,-0.1666,0.3591,0.6540,-0.1059,-0.1163,-1.4908,2.4613,0.1012,-0.4197,
0.200248,-0.1666,0.3591,0.6540,-0.8100,1.0518,-3.0461,2.4613,0.1012,-0.4197,
0.201928,-0.1666,0.3591,0.6540,-0.8100,1.0518,-3.0461,1.8488,-0.4735,-0.6349,
0.215755,-0.1666,0.3591,0.6540,-0.8100,1.0518,-3.0461,1.0946,-1.1915,-0.5438,
0.235666,-0.1920,0.3393,0.7222,-0.8100,1.0518,-3.0461,1.0946,-1.1915,-0.5438,
0.237445,-0.1920,0.3393,0.7222,-0.4417,0.1814,-2.0994,1.0946,-1.1915,-0.5438,
0.239215,-0.1920,0.3393,0.7222,-0.4417,0.1814,-2.0994,0.7052,-1.0083,-0.4123,
0.256251,-0.1920,0.3393,0.7222,-0.4417,0.1814,-2.0994,0.4368,-0.8671,-0.1912,
0.276205,-0.0288,0.2685,0.8890,-0.4417,0.1814,-2.0994,0.4368,-0.8671,-0.1912,
0.278165,-0.0288,0.2685,0.8890,0.6459,-0.3782,-0.5747,0.4368,-0.8671,-0.1912,
0.279904,-0.0288,0.2685,0.8890,0.6459,-0.3782,-0.5747,0.3217,-0.9417,-0.1656,
0.296480,-0.0288,0.2685,0.8890,0.6459,-0.3782,-0.5747,0.3404,-1.0397,-0.2663,
0.316440,-0.1801,0.3347,0.8590,0.6459,-0.3782,-0.5747,0.3404,-1.0397,-0.2663,
0.318478,-0.1801,0.3347,0.8590,-0.4105,0.0496,-0.7418,0.3404,-1.0397,-0.2663,
0.320144,-0.1801,0.3347,0.8590,-0.4105,0.0496,-0.7418,0.3031,-1.0983,-0.0772,
0.335645,-0.1801,0.3347,0.8590,-0.4105,0.0496,-0.7418,0.0943,-1.0988,0.2812,
0.355274,-0.0804,0.3926,0.8477,-0.4105,0.0496,-0.7418,0.0943,-1.0988,0.2812,
0.357933,-0.0804,0.3926,0.8477,0.1517,0.5382,-0.8756,0.0943,-1.0988,0.2812,
0.360138,-0.0804,0.3926,0.8477,0.1517,0.5382,-0.8756,-0.1321,-1.0381,0.5380,
0.375469,-0.0804,0.3926,0.8477,0.1517,0.5382,-0.8756,-0.2498,-0.7372,0.6099,
0.396055,0.1412,0.4024,0.7674,0.1517,0.5382,-0.8756,-0.2498,-0.7372,0.6099,
0.397974,0.1412,0.4024,0.7674,1.9214,0.6877,-1.7147,-0.2498,-0.7372,0.6099,
0.399610,0.1412,0.4024,0.7674,1.9214,0.6877,-1.7147,-0.6882,0.0389,0.5763,
0.415588,0.1412,0.4024,0.7674,1.9214,0.6877,-1.7147,-1.3034,0.6056,0.5076,
0.435298,0.0232,0.2172,0.9186,1.9214,0.6877,-1.7147,-1.3034,0.6056,0.5076,
0.437163,0.0232,0.2172,0.9186,0.8149,-0.7704,-0.3478,-1.3034,0.6056,0.5076,
0.438983,0.0232,0.2172,0.9186,0.8149,-0.7704,-0.3478,-1.7183,0.6125,0.4346,
0.455480,0.0232,0.2172,0.9186,0.8149,-0.7704,-0.3478,-1.9873,0.0346,0.5609,
0.476177,-0.1121,0.1415,0.8573,0.8149,-0.7704,-0.3478,-1.9873,0.0346,0.5609,
0.478321,-0.1121,0.1415,0.8573,-0.4406,-0.8268,-1.1297,-1.9873,0.0346,0.5609,
0.480248,-0.1121,0.1415,0.8573,-0.4406,-0.8268,-1.1297,-2.3036,-0.3627,1.0061,
0.495508,-0.1121,0.1415,0.8573,-0.4406,-0.8268,-1.1297,-2.4874,-0.3057,0.8368,
0.515366,0.2228,0.1906,1.0129,-0.4406,-0.8268,-1.1297,-2.4874,-0.3057,0.8368,
0.517825,0.2228,0.1906,1.0129,2.6229,0.5361,0.2204,-2.4874,-0.3057,0.8368,
0.519870,0.2228,0.1906,1.0129,2.6229,0.5361,0.2204,-2.5976,-0.2940,0.4698,
0.535151,0.2228,0.1906,1.0129,2.6229,0.5361,0.2204,-2.5497,0.3249,0.0660,
0.555783,0.1813,0.0704,1.0488,2.6229,0.5361,0.2204,-2.5497,0.3249,0.0660,
0.557589,0.1813,0.0704,1.0488,2.1496,0.3114,0.4861,-2.5497,0.3249,0.0660,
0.559129,0.1813,0.0704,1.0488,2.1496,0.3114,0.4861,-2.4906,0.1374,-0.1917,
0.576183,0.1813,0.0704,1.0488,2.1496,0.3114,0.4861,-2.1156,-0.2402,0.0421,
0.595368,0.2343,0.0225,1.3403,2.1496,0.3114,0.4861,-2.1156,-0.2402,0.0421,
0.597741,0.2343,0.0225,1.3403,2.6499,0.7444,3.3484,-2.1156,-0.2402,0.0421,
0.599372,0.2343,0.0225,1.3403,2.6499,0.7444,3.3484,-1.5862,-0.2008,-0.0176,
0.615536,0.2343,0.0225,1.3403,2.6499,0.7444,3.3484,-0.6397,0.4591,0.0708,
0.635456,0.1290,-0.1116,1.4961,2.6499,0.7444,3.3484,-0.6397,0.4591,0.0708,
0.637275,0.1290,-0.1116,1.4961,1.6692,-0.1359,4.9108,-0.6397,0.4591,0.0708,
0.639017,0.1290,-0.1116,1.4961,1.6692,-0.1359,4.9108,0.3164,0.7318,-0.0325,
0.655909,0.1290,-0.1116,1.4961,1.6692,-0.1359,4.9108,1.0306,0.6764,0.3127,
0.675353,0.1488,-0.0450,1.4114,1.6692,-0.1359,4.9108,1.0306,0.6764,0.3127,
0.677334,0.1488,-0.0450,1.4114,2.1418,0.2519,4.0731,1.0306,0.6764,0.3127,
0.678788,0.1488,-0.0450,1.4114,2.1418,0.2519,4.0731,1.3822,-0.0266,0.3601,
0.695609,0.1488,-0.0450,1.4114,2.1418,0.2519,4.0731,1.6432,-1.2437,0.1561,
0.715533,0.3474,0.0809,0.9609,2.1418,0.2519,4.0731,1.6432,-1.2437,0.1561,
0.717249,0.3474,0.0809,0.9609,3.8446,0.8875,-0.3799,1.6432,-1.2437,0.1561,
0.718939,0.3474,0.0809,0.9609,3.8446,0.8875,-0.3799,1.8141,-1.0615,-0.0053,
0.735356,0.3474,0.0809,0.9609,3.8446,0.8875,-0.3799,1.6181,-1.4083,0.3254,
0.755367,0.0708,-0.0213,0.7258,3.8446,0.8875,-0.3799,1.6181,-1.4083,0.3254,
0.757256,0.0708,-0.0213,0.7258,0.5873,-0.7655,-2.6770,1.6181,-1.4083,0.3254,
0.759149,0.0708,-0.0213,0.7258,0.5873,-0.7655,-2.6770,0.7681,-2.6365,0.6008,
0.776011,0.0708,-0.0213,0.7258,0.5873,-0.7655,-2.6770,-0.8378,-2.8123,0.8671,
0.795600,0.1632,-0.0674,0.8209,0.5873,-0.7655,-2.6770,-0.8378,-2.8123,0.8671,
0.798180,0.1632,-0.0674,0.8209,0.4059,-1.1757,-1.6756,-0.8378,-2.8123,0.8671,
0.799937,0.1632,-0.0674,0.8209,0.4059,-1.1757,-1.6756,-2.1513,-1.4892,0.7659,
0.814943,0.1632,-0.0674,0.8209,0.4059,-1.1757,-1.6756,-1.8109,-0.5891,-0.5848,
0.836303,0.5013,0.4134,1.2526,0.4059,-1.1757,-1.6756,-1.8109,-0.5891,-0.5848,
0.839241,0.5013,0.4134,1.2526,3.3114,4.3058,2.6034,-1.8109,-0.5891,-0.5848,
0.841577,0.5013,0.4134,1.2526,3.3114,4.3058,2.6034,-0.5103,-1.1894,-1.5292,
0.855108,0.5013,0.4134,1.2526,3.3114,4.3058,2.6034,0.5486,-0.9396,-2.6578,
0.875679,0.0430,0.2839,1.2465,3.3114,4.3058,2.6034,0.5486,-0.9396,-2.6578,
0.877425,0.0430,0.2839,1.2465,-1.6086,2.8745,2.6214,0.5486,-0.9396,-2.6578,
0.879080,0.0430,0.2839,1.2465,-1.6086,2.8745,2.6214,1.1963,-1.3907,-2.5188,
0.895474,0.0430,0.2839,1.2465,-1.6086,2.8745,2.6214,1.3651,-1.1441,-1.1452,
0.915409,-0.1319,0.0523,1.1932,-1.6086,2.8745,2.6214,1.3651,-1.1441,-1.1452,
0.917440,-0.1319,0.0523,1.1932,-3.7925,-0.0462,2.2270,1.3651,-1.1441,-1.1452,
0.919257,-0.1319,0.0523,1.1932,-3.7925,-0.0462,2.2270,1.3625,0.3771,0.0852,
0.935205,-0.1319,0.0523,1.1932,-3.7925,-0.0462,2.2270,1.8999,0.3451,1.1260,
0.954742,-0.1253,0.2487,0.9267,-3.7925,-0.0462,2.2270,1.8999,0.3451,1.1260,
0.958696,-0.1253,0.2487,0.9267,-3.5939,1.3153,-0.3695,1.8999,0.3451,1.1260,
0.960430,-0.1253,0.2487,0.9267,-3.5939,1.3153,-0.3695,2.4011,-0.1172,1.6586,
0.974710,-0.1253,0.2487,0.9267,-3.5939,1.3153,-0.3695,2.1092,-0.6487,2.4437,
0.995016,0.2653,0.4505,0.6081,-3.5939,1.3153,-0.3695,2.1092,-0.6487,2.4437,
0.997436,0.2653,0.4505,0.6081,-0.0179,2.6378,-3.3230,2.1092,-0.6487,2.4437,
0.999349,0.2653,0.4505,0.6081,-0.0179,2.6378,-3.3230,1.4440,-1.0551,1.9926,
1.015536,0.2653,0.4505,0.6081,-0.0179,2.6378,-3.3230,0.8368,-1.4637,1.3902,
1.035655,0.0308,0.4554,0.6772,-0.0179,2.6378,-3.3230,0.8368,-1.4637,1.3902,
1.037992,0.0308,0.4554,0.6772,-2.9056,2.4616,-2.4120,0.8368,-1.4637,1.3902,
1.040028,0.0308,0.4554,0.6772,-2.9056,2.4616,-2.4120,0.2003,0.0442,1.2006,
1.055027,0.0308,0.4554,0.6772,-2.9056,2.4616,-2.4120,-0.0048,0.6093,1.4855,
1.074913,-0.0828,0.4327,0.9276,-2.9056,2.4616,-2.4120,-0.0048,0.6093,1.4855,
1.076870,-0.0828,0.4327,0.9276,-3.9803,2.3560,0.0034,-0.0048,0.6093,1.4855,
1.078448,-0.0828,0.4327,0.9276,-3.9803,2.3560,0.0034,0.3398,-0.3553,1.4083,
1.095235,-0.0828,0.4327,0.9276,-3.9803,2.3560,0.0034,1.1633,-0.1555,0.9657,
1.114992,0.3985,0.4212,0.6481,-3.9803,2.3560,0.0034,1.1633,-0.1555,0.9657,
1.116833,0.3985,0.4212,0.6481,0.5543,2.1271,-2.6449,1.1633,-0.1555,0.9657,
1.118481,0.3985,0.4212,0.6481,0.5543,2.1271,-2.6449,0.8900,0.2093,0.1502,
1.136099,0.3985,0.4212,0.6481,0.5543,2.1271,-2.6449,0.4554,0.5593,-0.3467,
1.154416,0.4945,0.7461,0.6694,0.5543,2.1271,-2.6449,0.4554,0.5593,-0.3467,
1.156202,0.4945,0.7461,0.6694,1.6388,5.0018,-2.4148,0.4554,0.5593,-0.3467,
1.157930,0.4945,0.7461,0.6694,1.6388,5.0018,-2.4148,0.3329,0.6141,-0.2099,
1.174646,0.4945,0.7461,0.6694,1.6388,5.0018,-2.4148,0.1683,1.0669,-0.7904,
1.194307,0.6635,0.6220,0.8416,1.6388,5.0018,-2.4148,0.1683,1.0669,-0.7904,
1.196851,0.6635,0.6220,0.8416,3.6349,3.6134,-0.7955,0.1683,1.0669,-0.7904,
1.198440,0.6635,0.6220,0.8416,3.6349,3.6134,-0.7955,0.1209,1.2043,-2.0624,
1.214208,0.6635,0.6220,0.8416,3.6349,3.6134,-0.7955,0.8155,0.3963,-2.4991,
1.235216,0.8211,0.5025,0.7886,3.6349,3.6134,-0.7955,0.8155,0.3963,-2.4991,
1.237056,0.8211,0.5025,0.7886,5.7115,2.0393,-1.3484,0.8155,0.3963,-2.4991,
1.238718,0.8211,0.5025,0.7886,5.7115,2.0393,-1.3484,1.1052,0.4101,-2.8911,
1.255197,0.8211,0.5025,0.7886,5.7115,2.0393,-1.3484,0.8203,0.8858,-3.4163,
1.275200,0.3296,0.5052,0.6687,5.7115,2.0393,-1.3484,0.8203,0.8858,-3.4163,
1.277067,0.3296,0.5052,0.6687,1.4776,1.4291,-2.4301,0.8203,0.8858,-3.4163,
1.278712,0.3296,0.5052,0.6687,1.4776,1.4291,-2.4301,0.8069,0.8336,-2.8411,
1.294953,0.3296,0.5052,0.6687,1.4776,1.4291,-2.4301,1.0701,-0.0874,-3.2214,
1.315316,0.0542,0.0120,0.9557,1.4776,1.4291,-2.4301,1.0701,-0.0874,-3.2214,
1.317454,0.0542,0.0120,0.9557,-0.6556,-3.9045,0.5012,1.0701,-0.0874,-3.2214,
1.319248,0.0542,0.0120,0.9557,-0.6556,-3.9045,0.5012,1.0200,0.6104,-3.1766,
1.334892,0.0542,0.0120,0.9557,-0.6556,-3.9045,0.5012,1.1025,1.1681,-2.4187,
1.354840,-0.1439,-0.2844,1.0483,-0.6556,-3.9045,0.5012,1.1025,1.1681,-2.4187,
1.357939,-0.1439,-0.2844,1.0483,-1.8170,-7.2487,1.5502,1.1025,1.1681,-2.4187,
1.360010,-0.1439,-0.2844,1.0483,-1.8170,-7.2487,1.5502,1.6299,0.9651,-1.6091,
1.374565,-0.1439,-0.2844,1.0483,-1.8170,-7.2487,1.5502,1.7092,0.6440,-1.0876,
1.394576,-0.0537,0.1305,0.6965,-1.8170,-7.2487,1.5502,1.7092,0.6440,-1.0876,
1.397738,-0.0537,0.1305,0.6965,-0.4031,-3.7626,-1.5850,1.7092,0.6440,-1.0876,
1.399843,-0.0537,0.1305,0.6965,-0.4031,-3.7626,-1.5850,1.0930,0.4554,-0.7878,
1.414826,-0.0537,0.1305,0.6965,-0.4031,-3.7626,-1.5850,0.4772,-0.3542,-0.3009,
1.435371,0.2125,0.6650,0.7134,-0.4031,-3.7626,-1.5850,0.4772,-0.3542,-0.3009,
1.437501,0.2125,0.6650,0.7134,2.3365,1.2194,-1.2576,0.4772,-0.3542,-0.3009,
1.439119,0.2125,0.6650,0.7134,2.3365,1.2194,-1.2576,0.6429,-1.4344,-0.2850,
1.454411,0.2125,0.6650,0.7134,2.3365,1.2194,-1.2576,1.4189,-1.7279,-0.7926,
1.474403,0.2033,0.7520,0.6689,2.3365,1.2194,-1.2576,1.4189,-1.7279,-0.7926,
1.476242,0.2033,0.7520,0.6689,1.8447,1.7365,-1.4709,1.4189,-1.7279,-0.7926,
1.478001,0.2033,0.7520,0.6689,1.8447,1.7365,-1.4709,2.4933,-0.9438,-0.8123,
1.494735,0.2033,0.7520,0.6689,1.8447,1.7365,-1.4709,3.5239,0.1182,-0.8607,
1.514322,0.2191,0.7092,0.5341,1.8447,1.7365,-1.4709,3.5239,0.1182,-0.8607,
1.517347,0.2191,0.7092,0.5341,2.0724,0.3912,-2.0561,3.5239,0.1182,-0.8607,
1.519958,0.2191,0.7092,0.5341,2.0724,0.3912,-2.0561,4.2499,0.7068,-1.2006,
1.534832,0.2191,0.7092,0.5341,2.0724,0.3912,-2.0561,4.3521,0.4884,-1.3934,
1.554885,-0.2824,1.1619,0.2421,2.0724,0.3912,-2.0561,4.3521,0.4884,-1.3934,
1.556808,-0.2824,1.1619,0.2421,-2.3176,3.6651,-3.6559,4.3521,0.4884,-1.3934,
1.558708,-0.2824,1.1619,0.2421,-2.3176,3.6651,-3.6559,3.4248,0.0490,-1.0637,
1.574001,-0.2824,1.1619,0.2421,-2.3176,3.6651,-3.6559,1.4637,-1.4983,-0.7574,
1.594170,-0.4095,1.4180,0.5387,-2.3176,3.6651,-3.6559,1.4637,-1.4983,-0.7574,
1.597123,-0.4095,1.4180,0.5387,-3.4262,5.6439,0.0132,1.4637,-1.4983,-0.7574,
1.598838,-0.4095,1.4180,0.5387,-3.4262,5.6439,0.0132,1.1984,-1.9196,-0.7851,
1.614380,-0.4095,1.4180,0.5387,-3.4262,5.6439,0.0132,1.4823,-0.5417,-0.3601,
1.635127,-0.2832,1.0654,0.3178,-3.4262,5.6439,0.0132,1.4823,-0.5417,-0.3601,
1.637057,-0.2832,1.0654,0.3178,-2.2496,1.9305,-1.7292,1.4823,-0.5417,-0.3601,
1.638878,-0.2832,1.0654,0.3178,-2.2496,1.9305,-1.7292,1.4525,-0.4975,-0.1156,
1.653805,-0.2832,1.0654,0.3178,-2.2496,1.9305,-1.7292,1.8125,-0.9124,-0.0905,
1.673881,0.1273,0.8302,0.1319,-2.2496,1.9305,-1.7292,1.8125,-0.9124,-0.0905,
1.675464,0.1273,0.8302,0.1319,1.6901,-0.6922,-2.9553,1.8125,-0.9124,-0.0905,
1.676327,0.1273,0.8302,0.1319,1.6901,-0.6922,-2.9553,1.5532,-0.5193,-0.2003,
1.694243,0.1273,0.8302,0.1319,1.6901,-0.6922,-2.9553,1.0988,-0.5172,-0.3638,
1.714302,0.2409,0.9699,0.3269,1.6901,-0.6922,-2.9553,1.0988,-0.5172,-0.3638,
1.715376,0.2409,0.9699,0.3269,2.7884,0.4577,-0.5561,1.0988,-0.5172,-0.3638,
1.716192,0.2409,0.9699,0.3269,2.7884,0.4577,-0.5561,0.9731,-0.4948,-0.3111,
1.733573,0.2409,0.9699,0.3269,2.7884,0.4577,-0.5561,1.0999,-0.8693,-0.2812,
1.753662,0.1969,1.0471,0.0381,2.7884,0.4577,-0.5561,1.0999,-0.8693,-0.2812,
1.754633,0.1969,1.0471,0.0381,2.3233,1.0538,-2.9782,1.0999,-0.8693,-0.2812,
1.755446,0.1969,1.0471,0.0381,2.3233,1.0538,-2.9782,0.8400,-0.7340,-0.3095,
1.774101,0.1969,1.0471,0.0381,2.3233,1.0538,-2.9782,0.9342,-0.9715,-0.5864,
1.793888,-0.0977,0.9995,0.4498,2.3233,1.0538,-2.9782,0.9342,-0.9715,-0.5864,
1.794795,-0.0977,0.9995,0.4498,-0.5217,0.4792,1.3741,0.9342,-0.9715,-0.5864,
1.795627,-0.0977,0.9995,0.4498,-0.5217,0.4792,1.3741,1.3859,-1.3124,-0.5795,
1.814094,-0.0977,0.9995,0.4498,-0.5217,0.4792,1.3741,1.4530,-0.7808,-0.6072,
1.833591,-0.1759,1.1827,-0.1942,-0.5217,0.4792,1.3741,1.4530,-0.7808,-0.6072,
1.834558,-0.1759,1.1827,-0.1942,-1.1828,2.1259,-4.4137,1.4530,-0.7808,-0.6072,
1.835482,-0.1759,1.1827,-0.1942,-1.1828,2.1259,-4.4137,0.7254,-0.8570,-0.4027,
1.853240,-0.1759,1.1827,-0.1942,-1.1828,2.1259,-4.4137,0.5183,-1.1228,-0.1811,
1.873650,-0.3972,1.1592,-0.0845,-1.1828,2.1259,-4.4137,0.5183,-1.1228,-0.1811,
1.874687,-0.3972,1.1592,-0.0845,-3.3357,1.8429,-3.1252,0.5183,-1.1228,-0.1811,
1.875548,-0.3972,1.1592,-0.0845,-3.3357,1.8429,-3.1252,0.2780,-0.7095,0.2519,
1.894085,-0.3972,1.1592,-0.0845,-3.3357,1.8429,-3.1252,-0.3888,0.2706,0.6210,
1.914066,-0.3384,1.2921,-0.4173,-3.3357,1.8429,-3.1252,-0.3888,0.2706,0.6210,
1.915112,-0.3384,1.2921,-0.4173,-2.9447,3.1426,-6.4123,-0.3888,0.2706,0.6210,
1.915978,-0.3384,1.2921,-0.4173,-2.9447,3.1426,-6.4123,-1.6980,1.3779,0.8410,
1.933792,-0.3384,1.2921,-0.4173,-2.9447,3.1426,-6.4123,-2.7835,1.1457,0.7286,
1.953907,0.1222,1.0574,0.1610,-2.9447,3.1426,-6.4123,-2.7835,1.1457,0.7286,
1.954977,0.1222,1.0574,0.1610,1.4073,1.0777,-1.5729,-2.7835,1.1457,0.7286,
1.955762,0.1222,1.0574,0.1610,1.4073,1.0777,-1.5729,-3.4515,0.4703,-0.0613,
1.973343,0.1222,1.0574,0.1610,1.4073,1.0777,-1.5729,-3.2672,-0.8096,-0.7867,
1.993537,0.5309,1.0608,0.1202,1.4073,1.0777,-1.5729,-3.2672,-0.8096,-0.7867,
1.994488,0.5309,1.0608,0.1202,5.5307,1.6208,-3.1885,-3.2672,-0.8096,-0.7867,
1.995299,0.5309,1.0608,0.1202,5.5307,1.6208,-3.1885,-3.5186,-1.2677,-2.2839,
2.014770,0.5309,1.0608,0.1202,5.5307,1.6208,-3.1885,-3.8035,-1.8040,-3.1479,
2.033844,-0.0374,0.2619,1.2169,5.5307,1.6208,-3.1885,-3.8035,-1.8040,-3.1479,
2.034854,-0.0374,0.2619,1.2169,0.5444,-5.4075,6.2904,-3.8035,-1.8040,-3.1479,
2.035693,-0.0374,0.2619,1.2169,0.5444,-5.4075,6.2904,-3.2906,-2.3148,-2.6509,
2.053286,-0.0374,0.2619,1.2169,0.5444,-5.4075,6.2904,-1.2144,-1.5015,-1.4248,
2.073027,0.2922,0.2294,0.7674,0.5444,-5.4075,6.2904,-1.2144,-1.5015,-1.4248,
2.073987,0.2922,0.2294,0.7674,3.9343,-5.1029,1.1181,-1.2144,-1.5015,-1.4248,
2.074803,0.2922,0.2294,0.7674,3.9343,-5.1029,1.1181,0.7553,-0.6844,-0.4447,
2.094234,0.2922,0.2294,0.7674,3.9343,-5.1029,1.1181,1.0605,-0.6977,-0.7159,
2.114008,0.3997,0.6015,0.4620,3.9343,-5.1029,1.1181,1.0605,-0.6977,-0.7159,
2.114987,0.3997,0.6015,0.4620,4.9869,-1.6598,-1.6335,1.0605,-0.6977,-0.7159,
2.115915,0.3997,0.6015,0.4620,4.9869,-1.6598,-1.6335,1.0115,-0.7468,-1.2064,
2.132950,0.3997,0.6015,0.4620,4.9869,-1.6598,-1.6335,1.5345,0.2807,-1.5590,
2.152873,0.1879,0.7324,0.3679,4.9869,-1.6598,-1.6335,1.5345,0.2807,-1.5590,
2.153863,0.1879,0.7324,0.3679,3.2767,-0.6130,-2.1747,1.5345,0.2807,-1.5590,
2.154744,0.1879,0.7324,0.3679,3.2767,-0.6130,-2.1747,2.1316,2.0767,-1.7167,
2.172828,0.1879,0.7324,0.3679,3.2767,-0.6130,-2.1747,2.3921,4.0523,-1.6288,
2.193315,-0.6147,0.7183,0.4852,3.2767,-0.6130,-2.1747,2.3921,4.0523,-1.6288,
2.194327,-0.6147,0.7183,0.4852,-3.4125,-1.1007,-0.0510,2.3921,4.0523,-1.6288,
2.195303,-0.6147,0.7183,0.4852,-3.4125,-1.1007,-0.0510,2.5561,5.1016,-1.3241,
2.213700,-0.6147,0.7183,0.4852,-3.4125,-1.1007,-0.0510,3.1734,5.5095,-0.3569,
2.232830,-0.6051,0.6911,-0.1725,-3.4125,-1.1007,-0.0510,3.1734,5.5095,-0.3569,
2.233958,-0.6051,0.6911,-0.1725,-2.1906,-1.7203,-4.8597,3.1734,5.5095,-0.3569,
2.234893,-0.6051,0.6911,-0.1725,-2.1906,-1.7203,-4.8597,3.4845,4.1588,0.6434,
2.254565,-0.6051,0.6911,-0.1725,-2.1906,-1.7203,-4.8597,2.8826,1.6208,-0.3079,
2.273401,-0.9997,1.0505,-0.5976,-2.1906,-1.7203,-4.8597,2.8826,1.6208,-0.3079,
2.275787,-0.9997,1.0505,-0.5976,-5.8233,1.4772,-7.4765,2.8826,1.6208,-0.3079,
2.277922,-0.9997,1.0505,-0.5976,-5.8233,1.4772,-7.4765,1.9473,0.9731,-1.1100,
2.293483,-0.9997,1.0505,-0.5976,-5.8233,1.4772,-7.4765,1.9175,1.8994,-0.3132,
2.312775,-0.2682,0.8834,-0.3584,-5.8233,1.4772,-7.4765,1.9175,1.8994,-0.3132,
2.314470,-0.2682,0.8834,-0.3584,1.6733,-0.1340,-4.1233,1.9175,1.8994,-0.3132,
2.315659,-0.2682,0.8834,-0.3584,1.6733,-0.1340,-4.1233,1.4051,1.5622,-0.1150,
2.332588,-0.2682,0.8834,-0.3584,1.6733,-0.1340,-4.1233,0.3329,1.7071,-1.0370,
2.352540,-0.5873,0.9628,-0.4454,1.6733,-0.1340,-4.1233,0.3329,1.7071,-1.0370,
2.354128,-0.5873,0.9628,-0.4454,-1.2335,0.7338,-4.3762,0.3329,1.7071,-1.0370,
2.355181,-0.5873,0.9628,-0.4454,-1.2335,0.7338,-4.3762,0.1209,2.1833,-0.9081,
2.373151,-0.5873,0.9628,-0.4454,-1.2335,0.7338,-4.3762,-0.0682,2.4805,-0.9268,
2.393085,-0.1761,0.8311,-0.1901,-1.2335,0.7338,-4.3762,-0.0682,2.4805,-0.9268,
2.395009,-0.1761,0.8311,-0.1901,3.0598,-0.3994,-1.3565,-0.0682,2.4805,-0.9268,
2.396754,-0.1761,0.8311,-0.1901,3.0598,-0.3994,-1.3565,-0.4581,2.7276,-1.0962,
2.412518,-0.1761,0.8311,-0.1901,3.0598,-0.3994,-1.3565,-0.5401,3.4935,-1.1137,
2.434571,-0.4251,0.6144,0.3476,3.0598,-0.3994,-1.3565,-0.5401,3.4935,-1.1137,
2.436534,-0.4251,0.6144,0.3476,0.9027,-2.3196,4.3589,-0.5401,3.4935,-1.1137,
2.438268,-0.4251,0.6144,0.3476,0.9027,-2.3196,4.3589,-0.0298,2.6610,-1.1084,
2.453470,-0.4251,0.6144,0.3476,0.9027,-2.3196,4.3589,0.3595,0.0687,-1.0860,
2.472728,-0.3017,0.3909,0.2946,0.9027,-2.3196,4.3589,0.3595,0.0687,-1.0860,
2.474575,-0.3017,0.3909,0.2946,2.4129,-4.2738,4.1732,0.3595,0.0687,-1.0860,
2.476237,-0.3017,0.3909,0.2946,2.4129,-4.2738,4.1732,0.0953,-1.5068,-0.7515,
2.493209,-0.3017,0.3909,0.2946,2.4129,-4.2738,4.1732,-0.4314,-2.7484,-0.0932,
2.512898,-0.6315,0.3584,0.3213,2.4129,-4.2738,4.1732,-0.4314,-2.7484,-0.0932,
2.515354,-0.6315,0.3584,0.3213,-0.5948,-4.5060,3.9110,-0.4314,-2.7484,-0.0932,
2.517806,-0.6315,0.3584,0.3213,-0.5948,-4.5060,3.9110,-0.6450,-3.1207,1.4488,
2.533645,-0.6315,0.3584,0.3213,-0.5948,-4.5060,3.9110,0.1891,-3.4839,2.3755,
2.552502,-0.1561,0.8314,-0.0276,-0.5948,-4.5060,3.9110,0.1891,-3.4839,2.3755,
2.554343,-0.1561,0.8314,-0.0276,3.4803,-0.2827,-0.2847,0.1891,-3.4839,2.3755,
2.556132,-0.1561,0.8314,-0.0276,3.4803,-0.2827,-0.2847,1.7055,-3.5479,2.2078,
2.572277,-0.1561,0.8314,-0.0276,3.4803,-0.2827,-0.2847,2.4927,-2.9103,1.4520,
2.593236,-1.1893,1.5538,-1.1563,3.4803,-0.2827,-0.2847,2.4927,-2.9103,1.4520,
2.595189,-1.1893,1.5538,-1.1563,-7.2753,6.4535,-11.2249,2.4927,-2.9103,1.4520,
2.597028,-1.1893,1.5538,-1.1563,-7.2753,6.4535,-11.2249,1.7939,-1.4046,1.2346,
2.613302,-1.1893,1.5538,-1.1563,-7.2753,6.4535,-11.2249,0.8719,0.1103,1.2741,
2.632015,-0.6582,0.8099,-0.2634,-7.2753,6.4535,-11.2249,0.8719,0.1103,1.2741,
2.633150,-0.6582,0.8099,-0.2634,-2.5096,-1.0312,-2.1138,0.8719,0.1103,1.2741,
2.634063,-0.6582,0.8099,-0.2634,-2.5096,-1.0312,-2.1138,0.8623,-0.2131,0.7510,
2.651921,-0.6582,0.8099,-0.2634,-2.5096,-1.0312,-2.1138,0.8037,-0.6221,0.7382,
2.671984,-0.3865,0.9306,-0.2475,-2.5096,-1.0312,-2.1138,0.8037,-0.6221,0.7382,
2.673131,-0.3865,0.9306,-0.2475,-0.1050,0.0579,-1.7212,0.8037,-0.6221,0.7382,
2.674008,-0.3865,0.9306,-0.2475,-0.1050,0.0579,-1.7212,0.5907,-0.5348,0.7425,
2.691771,-0.3865,0.9306,-0.2475,-0.1050,0.0579,-1.7212,0.1758,-0.1944,0.8586,
2.711906,-0.2365,1.1839,-0.2758,-0.1050,0.0579,-1.7212,0.1758,-0.1944,0.8586,
2.712970,-0.2365,1.1839,-0.2758,1.0846,2.4388,-1.9119,0.1758,-0.1944,0.8586,
2.713793,-0.2365,1.1839,-0.2758,1.0846,2.4388,-1.9119,-0.4645,-0.6962,1.0173,
2.732484,-0.2365,1.1839,-0.2758,1.0846,2.4388,-1.9119,-0.7494,-0.9326,0.8075,
2.752149,-0.1366,0.7337,0.0362,1.0846,2.4388,-1.9119,-0.7494,-0.9326,0.8075,
2.753221,-0.1366,0.7337,0.0362,1.7466,-2.1059,0.8468,-0.7494,-0.9326,0.8075,
2.754034,-0.1366,0.7337,0.0362,1.7466,-2.1059,0.8468,-0.6248,-0.8682,0.6685,
2.771912,-0.1366,0.7337,0.0362,1.7466,-2.1059,0.8468,-0.6210,-1.3183,0.6871,
2.792105,0.1588,0.7974,-0.2582,1.7466,-2.1059,0.8468,-0.6210,-1.3183,0.6871,
2.793115,0.1588,0.7974,-0.2582,4.4014,-1.5693,-2.3996,-0.6210,-1.3183,0.6871,
2.793982,0.1588,0.7974,-0.2582,4.4014,-1.5693,-2.3996,-0.7132,-1.4141,0.4730,
2.812058,0.1588,0.7974,-0.2582,4.4014,-1.5693,-2.3996,-0.4666,0.2743,0.6946,
2.832215,0.0164,1.1705,0.3420,4.4014,-1.5693,-2.3996,-0.4666,0.2743,0.6946,
2.833262,0.0164,1.1705,0.3420,2.7082,2.0021,3.1899,-0.4666,0.2743,0.6946,
2.834038,0.0164,1.1705,0.3420,2.7082,2.0021,3.1899,0.2455,-0.0176,0.8277,
2.851651,0.0164,1.1705,0.3420,2.7082,2.0021,3.1899,0.9513,-0.6738,0.3862,
2.872545,-0.2702,1.1981,-0.0901,2.7082,2.0021,3.1899,0.9513,-0.6738,0.3862,
2.873501,-0.2702,1.1981,-0.0901,-0.3349,2.2113,-0.8502,0.9513,-0.6738,0.3862,
2.874337,-0.2702,1.1981,-0.0901,-0.3349,2.2113,-0.8502,1.2586,-0.9539,0.1475,
2.892302,-0.2702,1.1981,-0.0901,-0.3349,2.2113,-0.8502,1.0594,-1.0253,-0.0181,
2.912344,-0.7444,0.9929,-0.4366,-0.3349,2.2113,-0.8502,1.0594,-1.0253,-0.0181,
2.913466,-0.7444,0.9929,-0.4366,-4.9979,0.2040,-3.8946,1.0594,-1.0253,-0.0181,
2.914313,-0.7444,0.9929,-0.4366,-4.9979,0.2040,-3.8946,0.3782,-0.0698,0.4661,
2.932585,-0.7444,0.9929,-0.4366,-4.9979,0.2040,-3.8946,-0.2759,0.4597,1.0839,
2.951458,-0.1952,0.7664,-0.1295,-4.9979,0.2040,-3.8946,-0.2759,0.4597,1.0839,
2.952464,-0.1952,0.7664,-0.1295,0.1260,-2.0705,-0.8040,-0.2759,0.4597,1.0839,
2.953375,-0.1952,0.7664,-0.1295,0.1260,-2.0705,-0.8040,-0.5209,0.6482,1.3502,
2.971481,-0.1952,0.7664,-0.1295,0.1260,-2.0705,-0.8040,-0.3627,0.6157,1.0978,
2.991389,-0.3122,1.0249,0.1898,0.1260,-2.0705,-0.8040,-0.3627,0.6157,1.0978,
2.992407,-0.3122,1.0249,0.1898,-1.4522,0.3754,2.1939,-0.3627,0.6157,1.0978,
2.993253,-0.3122,1.0249,0.1898,-1.4522,0.3754,2.1939,0.1896,-0.2882,1.1111,
3.011344,-0.3122,1.0249,0.1898,-1.4522,0.3754,2.1939,0.5710,-0.9795,1.3231,
3.032293,-0.0562,0.8607,-0.1989,-1.4522,0.3754,2.1939,0.5710,-0.9795,1.3231,
3.033245,-0.0562,0.8607,-0.1989,0.6135,-1.2918,-1.4913,0.5710,-0.9795,1.3231,
3.034373,-0.0562,0.8607,-0.1989,0.6135,-1.2918,-1.4913,0.5779,-0.5603,1.1196,
3.051403,-0.0562,0.8607,-0.1989,0.6135,-1.2918,-1.4913,0.4517,-0.0037,0.8117,
3.071326,0.1055,1.1778,-0.2008,0.6135,-1.2918,-1.4913,0.4517,-0.0037,0.8117,
3.072280,0.1055,1.1778,-0.2008,1.8254,1.7902,-1.3067,0.4517,-0.0037,0.8117,
3.073111,0.1055,1.1778,-0.2008,1.8254,1.7902,-1.3067,0.4458,-0.1140,0.4959,
3.091306,0.1055,1.1778,-0.2008,1.8254,1.7902,-1.3067,0.2967,-0.1641,0.5044,
3.111253,-0.0059,1.1170,-0.3584,1.8254,1.7902,-1.3067,0.2967,-0.1641,0.5044,
3.112200,-0.0059,1.1170,-0.3584,0.5424,1.1912,-2.7068,0.2967,-0.1641,0.5044,
3.113054,-0.0059,1.1170,-0.3584,0.5424,1.1912,-2.7068,-0.0927,0.0836,0.4442,
3.131628,-0.0059,1.1170,-0.3584,0.5424,1.1912,-2.7068,-0.2892,0.1550,0.4852,
3.151689,0.1737,0.8460,-0.2499,0.5424,1.1912,-2.7068,-0.2892,0.1550,0.4852,
3.152774,0.1737,0.8460,-0.2499,2.0821,-1.4757,-1.6521,-0.2892,0.1550,0.4852,
3.153657,0.1737,0.8460,-0.2499,2.0821,-1.4757,-1.6521,-0.4027,0.2120,0.2162,
3.171679,0.1737,0.8460,-0.2499,2.0821,-1.4757,-1.6521,0.7697,-1.6309,1.2155,
3.191702,0.2424,0.7339,0.0796,2.0821,-1.4757,-1.6521,0.7697,-1.6309,1.2155,
3.192803,0.2424,0.7339,0.0796,2.4981,-2.5757,1.6432,0.7697,-1.6309,1.2155,
3.193613,0.2424,0.7339,0.0796,2.4981,-2.5757,1.6432,0.4133,-0.9305,-0.1033,
3.211474,0.2424,0.7339,0.0796,2.4981,-2.5757,1.6432,0.9183,-1.0179,0.2892,
3.231937,-0.3650,1.3723,-0.1532,2.4981,-2.5757,1.6432,0.9183,-1.0179,0.2892,
3.232922,-0.3650,1.3723,-0.1532,-3.4512,3.7062,-0.3846,0.9183,-1.0179,0.2892,
3.233792,-0.3650,1.3723,-0.1532,-3.4512,3.7062,-0.3846,1.3012,-0.8341,1.0658,
3.251359,-0.3650,1.3723,-0.1532,-3.4512,3.7062,-0.3846,0.8581,-0.2653,0.9422,
3.271233,0.0242,1.0703,-0.4290,-3.4512,3.7062,-0.3846,0.8581,-0.2653,0.9422,
3.272294,0.0242,1.0703,-0.4290,0.0016,0.8062,-2.6684,0.8581,-0.2653,0.9422,
3.273108,0.0242,1.0703,-0.4290,0.0016,0.8062,-2.6684,0.5294,-0.4639,0.3649,
3.291971,0.0242,1.0703,-0.4290,0.0016,0.8062,-2.6684,0.2365,-0.4378,0.2759,
3.312041,0.1292,1.2640,-0.4351,0.0016,0.8062,-2.6684,0.2365,-0.4378,0.2759,
3.313131,0.1292,1.2640,-0.4351,0.9367,2.7331,-2.5751,0.2365,-0.4378,0.2759,
3.313930,0.1292,1.2640,-0.4351,0.9367,2.7331,-2.5751,0.0527,-0.3025,0.3222,
3.331996,0.1292,1.2640,-0.4351,0.9367,2.7331,-2.5751,0.0037,-0.2024,0.1246,
3.352114,0.3408,1.4431,-0.2213,0.9367,2.7331,-2.5751,0.0037,-0.2024,0.1246,
3.354229,0.3408,1.4431,-0.2213,2.9410,4.4932,-0.4656,0.0037,-0.2024,0.1246,
3.355869,0.3408,1.4431,-0.2213,2.9410,4.4932,-0.4656,-0.0096,0.3734,-0.2551,
3.371601,0.3408,1.4431,-0.2213,2.9410,4.4932,-0.4656,-0.3116,1.1191,-0.5923,
3.392000,-0.0122,0.7549,-0.2485,2.9410,4.4932,-0.4656,-0.3116,1.1191,-0.5923,
3.394106,-0.0122,0.7549,-0.2485,-0.4069,-2.2672,-0.8007,-0.3116,1.1191,-0.5923,
3.396046,-0.0122,0.7549,-0.2485,-0.4069,-2.2672,-0.8007,-0.5768,1.6751,-0.8224,
3.411670,-0.0122,0.7549,-0.2485,-0.4069,-2.2672,-0.8007,-0.4096,1.7177,-0.7260,
3.431714,-0.3369,1.0075,-0.1138,-0.4069,-2.2672,-0.8007,-0.4096,1.7177,-0.7260,
3.434163,-0.3369,1.0075,-0.1138,-3.3762,0.1734,0.3229,-0.4096,1.7177,-0.7260,
3.435849,-0.3369,1.0075,-0.1138,-3.3762,0.1734,0.3229,-0.1433,1.3801,-0.4426,
3.452083,-0.3369,1.0075,-0.1138,-3.3762,0.1734,0.3229,-0.0671,0.9667,-0.0900,
3.471410,-0.3017,1.1509,-0.1710,-3.3762,0.1734,0.3229,-0.0671,0.9667,-0.0900,
3.473461,-0.3017,1.1509,-0.1710,-2.9945,1.5723,-0.2802,-0.0671,0.9667,-0.0900,
3.475264,-0.3017,1.1509,-0.1710,-2.9945,1.5723,-0.2802,-0.2439,0.3691,0.3047,
3.491724,-0.3017,1.1509,-0.1710,-2.9945,1.5723,-0.2802,-0.5742,0.1907,0.5236,
3.511569,0.0428,0.8370,-0.2492,-2.9945,1.5723,-0.2802,-0.5742,0.1907,0.5236,
3.514361,0.0428,0.8370,-0.2492,0.2458,-1.5201,-1.1729,-0.5742,0.1907,0.5236,
3.516986,0.0428,0.8370,-0.2492,0.2458,-1.5201,-1.1729,-0.9342,0.6386,0.6125,
3.531656,0.0428,0.8370,-0.2492,0.2458,-1.5201,-1.1729,-1.1079,1.1547,0.5230,
3.551301,0.1146,0.9504,-0.1432,0.2458,-1.5201,-1.1729,-1.1079,1.1547,0.5230,
3.553677,0.1146,0.9504,-0.1432,0.7055,-0.4436,-0.5102,-1.1079,1.1547,0.5230,
3.555410,0.1146,0.9504,-0.1432,0.7055,-0.4436,-0.5102,-1.1212,1.0253,0.4139,
3.571972,0.1146,0.9504,-0.1432,0.7055,-0.4436,-0.5102,-1.0429,0.3009,0.2919,
3.592274,0.1314,0.8998,-0.1014,0.7055,-0.4436,-0.5102,-1.0429,0.3009,0.2919,
3.594550,0.1314,0.8998,-0.1014,0.7134,-0.9602,-0.5142,-1.0429,0.3009,0.2919,
3.596282,0.1314,0.8998,-0.1014,0.7134,-0.9602,-0.5142,-0.9119,-0.1981,0.1257,
3.611651,0.1314,0.8998,-0.1014,0.7134,-0.9602,-0.5142,-0.8192,-0.3611,0.0250,
3.631802,0.1529,0.7185,-0.0608,0.7134,-0.9602,-0.5142,-0.8192,-0.3611,0.0250,
3.634048,0.1529,0.7185,-0.0608,0.8978,-2.7458,-0.4483,-0.8192,-0.3611,0.0250,
3.635763,0.1529,0.7185,-0.0608,0.8978,-2.7458,-0.4483,-0.7958,-0.3206,-0.0495,
3.651454,0.1529,0.7185,-0.0608,0.8978,-2.7458,-0.4483,-0.7180,-0.2376,-0.0213,
3.671344,0.0525,0.8275,-0.0252,0.8978,-2.7458,-0.4483,-0.7180,-0.2376,-0.0213,
3.673732,0.0525,0.8275,-0.0252,-0.0722,-1.6789,-0.3881,-0.7180,-0.2376,-0.0213,
3.675680,0.0525,0.8275,-0.0252,-0.0722,-1.6789,-0.3881,-0.5715,-0.0889,0.0618,
3.690900,0.0525,0.8275,-0.0252,-0.0722,-1.6789,-0.3881,-0.4948,0.1390,0.0538,
3.711606,-0.0836,0.8746,-0.1410,-0.0722,-1.6789,-0.3881,-0.4948,0.1390,0.0538,
3.713455,-0.0836,0.8746,-0.1410,-1.4279,-1.2102,-1.7320,-0.4948,0.1390,0.0538,
3.715203,-0.0836,0.8746,-0.1410,-1.4279,-1.2102,-1.7320,-0.2988,0.2248,0.1060,
3.731040,-0.0836,0.8746,-0.1410,-1.4279,-1.2102,-1.7320,-0.3180,0.2418,0.1854,
3.751280,-0.1791,0.9318,-0.3125,-1.4279,-1.2102,-1.7320,-0.3180,0.2418,0.1854,
3.753579,-0.1791,0.9318,-0.3125,-2.4126,-0.6419,-3.5309,-0.3180,0.2418,0.1854,
3.755441,-0.1791,0.9318,-0.3125,-2.4126,-0.6419,-3.5309,-0.5374,0.2115,0.2983,
3.771349,-0.1791,0.9318,-0.3125,-2.4126,-0.6419,-3.5309,-0.7899,0.1300,0.5204,
3.791465,-0.0120,0.9811,-0.1590,-2.4126,-0.6419,-3.5309,-0.7899,0.1300,0.5204,
3.793906,-0.0120,0.9811,-0.1590,-0.9118,-0.1346,-2.2528,-0.7899,0.1300,0.5204,
3.795875,-0.0120,0.9811,-0.1590,-0.9118,-0.1346,-2.2528,-1.0200,0.1465,0.6621,
3.811932,-0.0120,0.9811,-0.1590,-0.9118,-0.1346,-2.2528,-1.0498,0.2535,0.7004,
3.831538,0.0464,0.9161,0.0195,-0.9118,-0.1346,-2.2528,-1.0498,0.2535,0.7004,
3.833906,0.0464,0.9161,0.0195,-0.5850,-0.7130,-0.8898,-1.0498,0.2535,0.7004,
3.835800,0.0464,0.9161,0.0195,-0.5850,-0.7130,-0.8898,-0.9183,0.3872,0.6738,
3.850810,0.0464,0.9161,0.0195,-0.5850,-0.7130,-0.8898,-0.6977,0.5342,0.6179,
3.870593,0.0120,0.9731,0.0967,-0.5850,-0.7130,-0.8898,-0.6977,0.5342,0.6179,
3.872614,0.0120,0.9731,0.0967,-1.1268,-0.0918,-0.4400,-0.6977,0.5342,0.6179,
3.874679,0.0120,0.9731,0.0967,-1.1268,-0.0918,-0.4400,-0.4629,0.6216,0.6088,
3.891557,0.0120,0.9731,0.0967,-1.1268,-0.0918,-0.4400,-0.2690,0.6003,0.6056,
3.911340,0.0696,0.9679,0.1212,-1.1268,-0.0918,-0.4400,-0.2690,0.6003,0.6056,
3.913617,0.0696,0.9679,0.1212,-0.7337,-0.0955,-0.3496,-0.2690,0.6003,0.6056,
3.915471,0.0696,0.9679,0.1212,-0.7337,-0.0955,-0.3496,-0.0676,0.6637,0.5768,
3.931183,0.0696,0.9679,0.1212,-0.7337,-0.0955,-0.3496,0.1688,0.7441,0.4703,
3.950404,0.1033,0.8739,0.1207,-0.7337,-0.0955,-0.3496,0.1688,0.7441,0.4703,
3.952360,0.1033,0.8739,0.1207,-0.5506,-0.9918,-0.3703,0.1688,0.7441,0.4703,
3.953933,0.1033,0.8739,0.1207,-0.5506,-0.9918,-0.3703,0.4985,0.7196,0.3830,
3.970922,0.1033,0.8739,0.1207,-0.5506,-0.9918,-0.3703,0.7867,0.4730,0.3190,
3.990874,0.1397,0.9943,0.0362,-0.5506,-0.9918,-0.3703,0.7867,0.4730,0.3190,
3.993065,0.1397,0.9943,0.0362,-0.2771,0.1688,-0.9748,0.7867,0.4730,0.3190,
3.994739,0.1397,0.9943,0.0362,-0.2771,0.1688,-0.9748,0.8826,0.0618,0.2370,
4.010981,0.1397,0.9943,0.0362,-0.2771,0.1688,-0.9748,0.7233,-0.0437,0.1683,
4.030980,0.1620,1.1951,-0.0572,-0.2771,0.1688,-0.9748,0.7233,-0.0437,0.1683,
4.033111,0.1620,1.1951,-0.0572,-0.1278,2.1097,-1.5686,0.7233,-0.0437,0.1683,
4.034767,0.1620,1.1951,-0.0572,-0.1278,2.1097,-1.5686,0.4139,0.1209,0.0629,
4.051234,0.1620,1.1951,-0.0572,-0.1278,2.1097,-1.5686,0.1023,0.2088,-0.0107,
4.070917,0.1527,1.1370,-0.0090,-0.1278,2.1097,-1.5686,0.1023,0.2088,-0.0107,
4.073229,0.1527,1.1370,-0.0090,-0.2224,1.5317,-1.0087,0.1023,0.2088,-0.0107,
4.075022,0.1527,1.1370,-0.0090,-0.2224,1.5317,-1.0087,-0.1577,0.2759,-0.0469,
4.090207,0.1527,1.1370,-0.0090,-0.2224,1.5317,-1.0087,-0.2977,0.3063,-0.1135,
4.111093,0.2011,0.9775,0.0772,-0.2224,1.5317,-1.0087,-0.2977,0.3063,-0.1135,
4.113367,0.2011,0.9775,0.0772,0.2963,-0.0301,-0.2580,-0.2977,0.3063,-0.1135,
4.115079,0.2011,0.9775,0.0772,0.2963,-0.0301,-0.2580,-0.2764,0.3356,-0.2546,
4.130409,0.2011,0.9775,0.0772,0.2963,-0.0301,-0.2580,-0.1566,0.3670,-0.4463,
4.150767,0.1454,1.0964,0.0515,0.2963,-0.0301,-0.2580,-0.1566,0.3670,-0.4463,
4.154467,0.1454,1.0964,0.0515,-0.0988,1.1218,-0.6083,-0.1566,0.3670,-0.4463,
4.156760,0.1454,1.0964,0.0515,-0.0988,1.1218,-0.6083,-0.2344,0.4474,-0.6067,
4.170461,0.1454,1.0964,0.0515,-0.0988,1.1218,-0.6083,-0.5401,0.5262,-0.6557,
4.190906,0.0408,1.1287,0.1766,-0.0988,1.1218,-0.6083,-0.5401,0.5262,-0.6557,
4.193216,0.0408,1.1287,0.1766,-0.8577,1.4214,0.4416,-0.5401,0.5262,-0.6557,
4.194896,0.0408,1.1287,0.1766,-0.8577,1.4214,0.4416,-0.7297,0.6903,-0.5673,
4.210790,0.0408,1.1287,0.1766,-0.8577,1.4214,0.4416,-0.5364,0.8586,-0.3233,
4.230750,-0.0657,1.0852,0.2790,-0.8577,1.4214,0.4416,-0.5364,0.8586,-0.3233,
4.233639,-0.0657,1.0852,0.2790,-1.6855,1.0108,1.1661,-0.5364,0.8586,-0.3233,
4.235546,-0.0657,1.0852,0.2790,-1.6855,1.0108,1.1661,-0.3009,1.3364,0.1513,
4.250727,-0.0657,1.0852,0.2790,-1.6855,1.0108,1.1661,-0.2541,1.4951,0.5198,
4.271290,0.0804,0.8414,0.3288,-1.6855,1.0108,1.1661,-0.2541,1.4951,0.5198,
4.273571,0.0804,0.8414,0.3288,-0.2694,-1.3446,1.4676,-0.2541,1.4951,0.5198,
4.275399,0.0804,0.8414,0.3288,-0.2694,-1.3446,1.4676,-0.2365,0.9156,0.7979,
4.291062,0.0804,0.8414,0.3288,-0.2694,-1.3446,1.4676,-0.3377,0.4400,0.8858,
4.310986,0.0628,0.9315,0.3144,-0.2694,-1.3446,1.4676,-0.3377,0.4400,0.8858,
4.313397,0.0628,0.9315,0.3144,-0.6839,-0.3980,1.1536,-0.3377,0.4400,0.8858,
4.314946,0.0628,0.9315,0.3144,-0.6839,-0.3980,1.1536,-0.0868,0.4272,0.7452,
4.331199,0.0628,0.9315,0.3144,-0.6839,-0.3980,1.1536,0.1779,0.4357,0.6812,
4.350266,-0.1026,1.1177,0.1231,-0.6839,-0.3980,1.1536,0.1779,0.4357,0.6812,
4.353191,-0.1026,1.1177,0.1231,-2.5086,1.4580,-0.7293,0.1779,0.4357,0.6812,
4.355062,-0.1026,1.1177,0.1231,-2.5086,1.4580,-0.7293,0.1406,0.3329,0.7105,
4.370876,-0.1026,1.1177,0.1231,-2.5086,1.4580,-0.7293,0.0123,0.2818,0.9374,
4.390422,0.0748,1.1358,0.0880,-2.5086,1.4580,-0.7293,0.0123,0.2818,0.9374,
4.392594,0.0748,1.1358,0.0880,-1.0495,1.6812,-1.0622,0.0123,0.2818,0.9374,
4.394393,0.0748,1.1358,0.0880,-1.0495,1.6812,-1.0622,-0.1300,0.1747,1.0626,
4.410763,0.0748,1.1358,0.0880,-1.0495,1.6812,-1.0622,-0.2999,-0.0394,0.9470,
4.431287,0.3797,0.9318,0.1124,-1.0495,1.6812,-1.0622,-0.2999,-0.0394,0.9470,
4.433440,0.3797,0.9318,0.1124,1.5779,-0.2286,-0.8907,-0.2999,-0.0394,0.9470,
4.435191,0.3797,0.9318,0.1124,1.5779,-0.2286,-0.8907,-0.3734,-0.0858,0.6487,
4.451235,0.3797,0.9318,0.1124,1.5779,-0.2286,-0.8907,-0.3286,-0.0085,0.4186,
4.470842,0.2695,1.0850,0.1720,1.5779,-0.2286,-0.8907,-0.3286,-0.0085,0.4186,
4.473088,0.2695,1.0850,0.1720,0.2991,1.3468,-0.4262,-0.3286,-0.0085,0.4186,
4.474760,0.2695,1.0850,0.1720,0.2991,1.3468,-0.4262,-0.2599,0.0943,0.2748,
4.490478,0.2695,1.0850,0.1720,0.2991,1.3468,-0.4262,-0.3196,0.0421,0.1369,
4.509980,0.2411,0.9677,0.1764,0.2991,1.3468,-0.4262,-0.3196,0.0421,0.1369,
4.512067,0.2411,0.9677,0.1764,-0.0433,0.2373,-0.4824,-0.3196,0.0421,0.1369,
4.514338,0.2411,0.9677,0.1764,-0.0433,0.2373,-0.4824,-0.4868,0.0266,-0.0080,
4.530154,0.2411,0.9677,0.1764,-0.0433,0.2373,-0.4824,-0.6791,0.0687,0.0117,
4.550331,0.2477,0.8934,0.1979,-0.0433,0.2373,-0.4824,-0.6791,0.0687,0.0117,
4.552469,0.2477,0.8934,0.1979,0.0287,-0.4442,-0.4646,-0.6791,0.0687,0.0117,
4.554299,0.2477,0.8934,0.1979,0.0287,-0.4442,-0.4646,-0.9614,0.0043,0.0080,
4.570441,0.2477,0.8934,0.1979,0.0287,-0.4442,-0.4646,-1.2389,-0.1486,-0.1076,
4.590016,0.2057,0.7898,0.2531,0.0287,-0.4442,-0.4646,-1.2389,-0.1486,-0.1076,
4.592265,0.2057,0.7898,0.2531,-0.3720,-1.3527,-0.3094,-1.2389,-0.1486,-0.1076,
4.594264,0.2057,0.7898,0.2531,-0.3720,-1.3527,-0.3094,-1.4030,-0.2716,-0.1971,
4.610123,0.2057,0.7898,0.2531,-0.3720,-1.3527,-0.3094,-1.6144,-0.2423,-0.1720,
4.630472,0.2387,0.9003,0.3156,-0.3720,-1.3527,-0.3094,-1.6144,-0.2423,-0.1720,
4.632608,0.2387,0.9003,0.3156,-0.0136,-0.1098,-0.2000,-1.6144,-0.2423,-0.1720,
4.634588,0.2387,0.9003,0.3156,-0.0136,-0.1098,-0.2000,-1.8472,-0.1204,-0.1230,
4.649946,0.2387,0.9003,0.3156,-0.0136,-0.1098,-0.2000,-1.6560,0.3755,-0.2253,
4.670058,0.3408,0.7801,0.4664,-0.0136,-0.1098,-0.2000,-1.6560,0.3755,-0.2253,
4.672295,0.3408,0.7801,0.4664,1.0559,-1.0520,0.6563,-1.6560,0.3755,-0.2253,
4.674045,0.3408,0.7801,0.4664,1.0559,-1.0520,0.6563,-1.1510,0.2647,-0.3638,
4.690021,0.3408,0.7801,0.4664,1.0559,-1.0520,0.6563,-0.7201,-0.1071,-0.4314,
4.710930,0.3325,0.6457,0.3753,1.0559,-1.0520,0.6563,-0.7201,-0.1071,-0.4314,
4.714333,0.3325,0.6457,0.3753,1.1238,-2.2512,-0.5667,-0.7201,-0.1071,-0.4314,
4.716351,0.3325,0.6457,0.3753,1.1238,-2.2512,-0.5667,-0.6083,-0.0623,-0.4277,
4.730369,0.3325,0.6457,0.3753,1.1238,-2.2512,-0.5667,-0.5976,0.0096,-0.4064,
4.749824,0.2206,0.7845,0.3359,1.1238,-2.2512,-0.5667,-0.5976,0.0096,-0.4064,
4.752861,0.2206,0.7845,0.3359,0.1651,-0.8211,-1.1557,-0.5976,0.0096,-0.4064,
4.755051,0.2206,0.7845,0.3359,0.1651,-0.8211,-1.1557,-0.5385,0.1870,-0.4378,
4.770757,0.2206,0.7845,0.3359,0.1651,-0.8211,-1.1557,-0.4021,0.2727,-0.5039,
4.790197,0.0584,0.7290,0.3007,0.1651,-0.8211,-1.1557,-0.4021,0.2727,-0.5039,
4.792466,0.0584,0.7290,0.3007,-1.2233,-1.3151,-1.6772,-0.4021,0.2727,-0.5039,
4.794473,0.0584,0.7290,0.3007,-1.2233,-1.3151,-1.6772,-0.2727,0.2929,-0.3760,
4.809948,0.0584,0.7290,0.3007,-1.2233,-1.3151,-1.6772,-0.3159,0.3665,-0.2759,
4.830216,0.1180,0.8419,0.2785,-1.2233,-1.3151,-1.6772,-0.3159,0.3665,-0.2759,
4.833800,0.1180,0.8419,0.2785,-0.4675,-0.1762,-2.0168,-0.3159,0.3665,-0.2759,
4.835593,0.1180,0.8419,0.2785,-0.4675,-0.1762,-2.0168,-0.4250,0.3707,-0.2487,
4.850023,0.1180,0.8419,0.2785,-0.4675,-0.1762,-2.0168,-0.5108,0.2871,-0.2168,
4.870090,0.2089,0.8690,0.3779,-0.4675,-0.1762,-2.0168,-0.5108,0.2871,-0.2168,
4.872577,0.2089,0.8690,0.3779,0.5632,0.1636,-1.2158,-0.5108,0.2871,-0.2168,
4.874362,0.2089,0.8690,0.3779,0.5632,0.1636,-1.2158,-0.4922,0.1965,-0.2514,
4.889703,0.2089,0.8690,0.3779,0.5632,0.1636,-1.2158,-0.3260,0.1001,-0.2834,
4.910137,0.1801,0.8507,0.3662,0.5632,0.1636,-1.2158,-0.3260,0.1001,-0.2834,
4.913508,0.1801,0.8507,0.3662,0.3942,0.0441,-1.4635,-0.3260,0.1001,-0.2834,
4.915252,0.1801,0.8507,0.3662,0.3942,0.0441,-1.4635,-0.1209,0.0895,-0.3132,
4.929934,0.1801,0.8507,0.3662,0.3942,0.0441,-1.4635,0.0666,0.1348,-0.2791,
4.949562,0.1234,0.9337,0.3362,0.3942,0.0441,-1.4635,0.0666,0.1348,-0.2791,
4.951564,0.1234,0.9337,0.3362,-0.0484,0.8298,-1.7408,0.0666,0.1348,-0.2791,
4.953417,0.1234,0.9337,0.3362,-0.0484,0.8298,-1.7408,0.2392,0.1571,-0.2168,
4.969706,0.1234,0.9337,0.3362,-0.0484,0.8298,-1.7408,0.3377,0.0298,-0.2205,
4.990130,0.1217,0.8795,0.3555,-0.0484,0.8298,-1.7408,0.3377,0.0298,-0.2205,
4.992412,0.1217,0.8795,0.3555,0.0202,0.2143,-1.4312,0.3377,0.0298,-0.2205,
4.994085,0.1217,0.8795,0.3555,0.0202,0.2143,-1.4312,0.4059,-0.1577,-0.1832,
5.009512,0.1217,0.8795,0.3555,0.0202,0.2143,-1.4312,0.4655,-0.3292,-0.1289,
5.029752,0.1964,0.9193,0.3674,0.0202,0.2143,-1.4312,0.4655,-0.3292,-0.1289,
5.033101,0.1964,0.9193,0.3674,0.7432,0.4955,-1.1201,0.4655,-0.3292,-0.1289,
5.034570,0.1964,0.9193,0.3674,0.7432,0.4955,-1.1201,0.5657,-0.4751,-0.1268,
5.050031,0.1964,0.9193,0.3674,0.7432,0.4955,-1.1201,0.7233,-0.5720,-0.1912,
5.070333,0.2424,0.9970,0.3755,0.7432,0.4955,-1.1201,0.7233,-0.5720,-0.1912,
5.072255,0.2424,0.9970,0.3755,1.1317,1.1191,-0.7669,0.7233,-0.5720,-0.1912,
5.073971,0.2424,0.9970,0.3755,1.1317,1.1191,-0.7669,0.8203,-0.6834,-0.2562,
5.089182,0.2424,0.9970,0.3755,1.1317,1.1191,-0.7669,0.7867,-0.6775,-0.2455,
5.108978,0.2533,1.0581,0.3882,1.1317,1.1191,-0.7669,0.7867,-0.6775,-0.2455,
5.111906,0.2533,1.0581,0.3882,1.2047,1.5657,-0.3228,0.7867,-0.6775,-0.2455,
5.113936,0.2533,1.0581,0.3882,1.2047,1.5657,-0.3228,0.6882,-0.5326,-0.1667,
5.128828,0.2533,1.0581,0.3882,1.2047,1.5657,-0.3228,0.6392,-0.4091,-0.1443,
5.148846,0.3174,1.0598,0.3828,1.2047,1.5657,-0.3228,0.6392,-0.4091,-0.1443,
5.150467,0.3174,1.0598,0.3828,1.8117,1.4685,-0.1165,0.6392,-0.4091,-0.1443,
5.151349,0.3174,1.0598,0.3828,1.8117,1.4685,-0.1165,0.6498,-0.3382,-0.2029,
5.169395,0.3174,1.0598,0.3828,1.8117,1.4685,-0.1165,0.7063,-0.2349,-0.3281,
5.189494,0.2846,0.9618,0.3464,1.8117,1.4685,-0.1165,0.7063,-0.2349,-0.3281,
5.191497,0.2846,0.9618,0.3464,1.5400,0.3938,-0.2146,0.7063,-0.2349,-0.3281,
5.193229,0.2846,0.9618,0.3464,1.5400,0.3938,-0.2146,0.7100,-0.0804,-0.4043,
5.209120,0.2846,0.9618,0.3464,1.5400,0.3938,-0.2146,0.6354,0.0985,-0.4495,
5.228550,0.2179,0.8932,0.2819,1.5400,0.3938,-0.2146,0.6354,0.0985,-0.4495,
5.230559,0.2179,0.8932,0.2819,1.0101,-0.3909,-0.5970,0.6354,0.0985,-0.4495,
5.232299,0.2179,0.8932,0.2819,1.0101,-0.3909,-0.5970,0.4996,0.1300,-0.4463,
5.251415,0.2179,0.8932,0.2819,1.0101,-0.3909,-0.5970,0.3814,0.0959,-0.4719,
5.269124,0.0220,0.9740,0.2340,1.0101,-0.3909,-0.5970,0.3814,0.0959,-0.4719,
5.271563,0.0220,0.9740,0.2340,-0.7449,0.3219,-0.8954,0.3814,0.0959,-0.4719,
5.273493,0.0220,0.9740,0.2340,-0.7449,0.3219,-0.8954,0.3377,0.1875,-0.3153,
5.289100,0.0220,0.9740,0.2340,-0.7449,0.3219,-0.8954,0.3755,0.4250,0.0943,
5.308997,0.0545,1.0908,0.2248,-0.7449,0.3219,-0.8954,0.3755,0.4250,0.0943,
5.311117,0.0545,1.0908,0.2248,-0.3501,1.4141,-0.8541,0.3755,0.4250,0.0943,
5.312977,0.0545,1.0908,0.2248,-0.3501,1.4141,-0.8541,0.3707,0.2392,0.6280,
5.329135,0.0545,1.0908,0.2248,-0.3501,1.4141,-0.8541,-0.0101,-0.4293,0.8107,
5.349086,0.0945,0.9230,0.3486,-0.3501,1.4141,-0.8541,-0.0101,-0.4293,0.8107,
5.351064,0.0945,0.9230,0.3486,-0.2316,-0.2247,0.4339,-0.0101,-0.4293,0.8107,
5.352991,0.0945,0.9230,0.3486,-0.2316,-0.2247,0.4339,-0.1065,-0.6413,0.6615,
5.369021,0.0945,0.9230,0.3486,-0.2316,-0.2247,0.4339,0.1470,-0.3313,0.7185,
5.388830,0.0445,1.1248,0.2079,-0.2316,-0.2247,0.4339,0.1470,-0.3313,0.7185,
5.390967,0.0445,1.1248,0.2079,-1.0275,1.7838,-0.9069,0.1470,-0.3313,0.7185,
5.392850,0.0445,1.1248,0.2079,-1.0275,1.7838,-0.9069,0.2104,-0.3164,0.6940,
5.408947,0.0445,1.1248,0.2079,-1.0275,1.7838,-0.9069,0.0927,-0.4400,0.6674,
5.429118,0.0816,1.0940,0.1590,-1.0275,1.7838,-0.9069,0.0927,-0.4400,0.6674,
5.431423,0.0816,1.0940,0.1590,-0.9531,1.5059,-1.3008,0.0927,-0.4400,0.6674,
5.433256,0.0816,1.0940,0.1590,-0.9531,1.5059,-1.3008,-0.0772,-0.3174,0.7713,
5.448831,0.0816,1.0940,0.1590,-0.9531,1.5059,-1.3008,-0.1747,-0.3760,0.8011,
5.469411,0.2394,0.9362,0.2529,-0.9531,1.5059,-1.3008,-0.1747,-0.3760,0.8011,
5.471858,0.2394,0.9362,0.2529,0.2806,0.0257,-0.3858,-0.1747,-0.3760,0.8011,
5.473537,0.2394,0.9362,0.2529,0.2806,0.0257,-0.3858,-0.0277,-0.2748,0.7697,
5.488787,0.2394,0.9362,0.2529,0.2806,0.0257,-0.3858,0.1459,-0.2120,0.5726,
5.508365,0.2788,1.0092,0.2216,0.2806,0.0257,-0.3858,0.1459,-0.2120,0.5726,
5.510648,0.2788,1.0092,0.2216,0.4020,0.7879,-0.6366,0.1459,-0.2120,0.5726,
5.512975,0.2788,1.0092,0.2216,0.4020,0.7879,-0.6366,0.0948,-0.2269,0.3835,
5.528311,0.2788,1.0092,0.2216,0.4020,0.7879,-0.6366,-0.2269,-0.2120,0.3089,
5.548780,0.2929,0.9555,0.2511,0.4020,0.7879,-0.6366,-0.2269,-0.2120,0.3089,
5.550691,0.2929,0.9555,0.2511,0.3952,0.2964,-0.3364,-0.2269,-0.2120,0.3089,
5.552369,0.2929,0.9555,0.2511,0.3952,0.2964,-0.3364,-0.6285,-0.1854,0.3254,
5.568706,0.2929,0.9555,0.2511,0.3952,0.2964,-0.3364,-0.9790,-0.2189,0.3329,
5.588600,0.3980,0.7456,0.3640,0.3952,0.2964,-0.3364,-0.9790,-0.2189,0.3329,
5.590780,0.3980,0.7456,0.3640,1.2674,-1.6296,0.5057,-0.9790,-0.2189,0.3329,
5.592497,0.3980,0.7456,0.3640,1.2674,-1.6296,0.5057,-1.2741,-0.3910,0.2455,
5.608568,0.3980,0.7456,0.3640,1.2674,-1.6296,0.5057,-1.2687,-0.6131,0.0746,
5.629164,0.3178,0.9144,0.3279,1.2674,-1.6296,0.5057,-1.2687,-0.6131,0.0746,
5.632113,0.3178,0.9144,0.3279,0.3470,0.2050,-0.2268,-1.2687,-0.6131,0.0746,
5.633912,0.3178,0.9144,0.3279,0.3470,0.2050,-0.2268,-1.1542,-0.6274,-0.0788,
5.649842,0.3178,0.9144,0.3279,0.3470,0.2050,-0.2268,-1.1260,-0.0639,-0.1454,
5.668927,0.3264,0.8157,0.3462,0.3470,0.2050,-0.2268,-1.1260,-0.0639,-0.1454,
5.670978,0.3264,0.8157,0.3462,0.4079,-0.6130,-0.3887,-1.1260,-0.0639,-0.1454,
5.672790,0.3264,0.8157,0.3462,0.4079,-0.6130,-0.3887,-1.0930,0.4234,-0.2583,
5.688338,0.3264,0.8157,0.3462,0.4079,-0.6130,-0.3887,-0.8719,0.2642,-0.3611,
5.708068,0.2851,0.7256,0.4554,0.4079,-0.6130,-0.3887,-0.8719,0.2642,-0.3611,
5.710205,0.2851,0.7256,0.4554,0.1547,-1.3728,0.3116,-0.8719,0.2642,-0.3611,
5.711921,0.2851,0.7256,0.4554,0.1547,-1.3728,0.3116,-0.5161,0.0554,-0.3579,
5.728730,0.2851,0.7256,0.4554,0.1547,-1.3728,0.3116,-0.2706,0.0527,-0.3286,
5.748617,0.2551,0.7258,0.4097,0.1547,-1.3728,0.3116,-0.2706,0.0527,-0.3286,
5.752074,0.2551,0.7258,0.4097,-0.0165,-1.3389,-0.2746,-0.2706,0.0527,-0.3286,
5.753937,0.2551,0.7258,0.4097,-0.0165,-1.3389,-0.2746,-0.1039,0.0437,-0.2455,
5.767650,0.2551,0.7258,0.4097,-0.0165,-1.3389,-0.2746,-0.0618,0.1268,-0.2530,
5.787711,0.1087,0.6218,0.2365,-0.0165,-1.3389,-0.2746,-0.0618,0.1268,-0.2530,
5.790535,0.1087,0.6218,0.2365,-1.3518,-2.3692,-2.0084,-0.0618,0.1268,-0.2530,
5.793003,0.1087,0.6218,0.2365,-1.3518,-2.3692,-2.0084,-0.0698,0.2807,-0.1933,
5.807880,0.1087,0.6218,0.2365,-1.3518,-2.3692,-2.0084,-0.0597,0.3659,-0.1129,
5.827627,0.1512,0.7820,0.1923,-1.3518,-2.3692,-2.0084,-0.0597,0.3659,-0.1129,
5.830269,0.1512,0.7820,0.1923,-0.8272,-0.8018,-2.4941,-0.0597,0.3659,-0.1129,
5.832444,0.1512,0.7820,0.1923,-0.8272,-0.8018,-2.4941,-0.1140,0.4277,-0.0820,
5.847177,0.1512,0.7820,0.1923,-0.8272,-0.8018,-2.4941,-0.2397,0.4746,-0.1071,
5.867373,0.2270,0.8998,0.3186,-0.8272,-0.8018,-2.4941,-0.2397,0.4746,-0.1071,
5.869299,0.2270,0.8998,0.3186,0.0267,0.3750,-1.3567,-0.2397,0.4746,-0.1071,
5.870883,0.2270,0.8998,0.3186,0.0267,0.3750,-1.3567,-0.2850,0.4213,-0.1294,
5.887486,0.2270,0.8998,0.3186,0.0267,0.3750,-1.3567,-0.1678,0.3617,-0.1747,
5.907342,0.2277,0.8214,0.4021,0.0267,0.3750,-1.3567,-0.1678,0.3617,-0.1747,
5.909217,0.2277,0.8214,0.4021,0.1271,-0.4169,-0.5386,-0.1678,0.3617,-0.1747,
5.910519,0.2277,0.8214,0.4021,0.1271,-0.4169,-0.5386,0.0810,0.3302,-0.2402,
5.927362,0.2277,0.8214,0.4021,0.1271,-0.4169,-0.5386,0.3712,0.3659,-0.2509,
5.947953,0.1669,0.8240,0.3713,0.1271,-0.4169,-0.5386,0.3712,0.3659,-0.2509,
5.949165,0.1669,0.8240,0.3713,-0.3242,-0.4521,-0.7889,0.3712,0.3659,-0.2509,
5.950221,0.1669,0.8240,0.3713,-0.3242,-0.4521,-0.7889,0.6179,0.4043,-0.2328,
5.968067,0.1669,0.8240,0.3713,-0.3242,-0.4521,-0.7889,0.8586,0.3297,-0.1912,
5.987545,0.1283,0.9535,0.3281,-0.3242,-0.4521,-0.7889,0.8586,0.3297,-0.1912,
5.990373,0.1283,0.9535,0.3281,-0.5637,0.6658,-0.9720,0.8586,0.3297,-0.1912,
5.992132,0.1283,0.9535,0.3281,-0.5637,0.6658,-0.9720,0.9832,0.1545,-0.1790,
6.007613,0.1283,0.9535,0.3281,-0.5637,0.6658,-0.9720,1.0008,-0.0133,-0.1939,
6.028106,0.1468,0.9960,0.3335,-0.5637,0.6658,-0.9720,1.0008,-0.0133,-0.1939,
6.031391,0.1468,0.9960,0.3335,-0.2970,0.8994,-0.5564,1.0008,-0.0133,-0.1939,
6.033329,0.1468,0.9960,0.3335,-0.2970,0.8994,-0.5564,0.9550,-0.0639,-0.1848,
6.048196,0.1468,0.9960,0.3335,-0.2970,0.8994,-0.5564,0.8900,-0.0112,-0.1534,
6.067989,0.2744,1.0188,0.3227,-0.2970,0.8994,-0.5564,0.8900,-0.0112,-0.1534,
6.070191,0.2744,1.0188,0.3227,1.0013,0.9736,-0.3213,0.8900,-0.0112,-0.1534,
6.071841,0.2744,1.0188,0.3227,1.0013,0.9736,-0.3213,0.7819,0.0399,-0.1896,
6.088042,0.2744,1.0188,0.3227,1.0013,0.9736,-0.3213,0.6828,0.0197,-0.2541,
6.107165,0.3164,1.0200,0.3398,1.0013,0.9736,-0.3213,0.6828,0.0197,-0.2541,
6.108256,0.3164,1.0200,0.3398,1.4902,0.8736,0.1111,0.6828,0.0197,-0.2541,
6.108933,0.3164,1.0200,0.3398,1.4902,0.8736,0.1111,0.6626,-0.1012,-0.3419,
6.127599,0.3164,1.0200,0.3398,1.4902,0.8736,0.1111,0.6525,-0.2125,-0.5023,
6.147517,0.2875,1.0051,0.3000,1.4902,0.8736,0.1111,0.6525,-0.2125,-0.5023,
6.149599,0.2875,1.0051,0.3000,1.3353,0.6214,-0.0281,0.6525,-0.2125,-0.5023,
6.151278,0.2875,1.0051,0.3000,1.3353,0.6214,-0.0281,0.5902,-0.0756,-0.6312,
6.167265,0.2875,1.0051,0.3000,1.3353,0.6214,-0.0281,0.3952,0.1310,-0.6642,
6.187674,0.0679,1.1993,0.3093,1.3353,0.6214,-0.0281,0.3952,0.1310,-0.6642,
6.189701,0.0679,1.1993,0.3093,-0.5740,2.4329,0.2441,0.3952,0.1310,-0.6642,
6.191311,0.0679,1.1993,0.3093,-0.5740,2.4329,0.2441,0.1561,0.2061,-0.4985,
6.207538,0.0679,1.1993,0.3093,-0.5740,2.4329,0.2441,0.1981,0.3867,-0.0346,
6.227772,0.0066,0.9599,0.3010,-0.5740,2.4329,0.2441,0.1981,0.3867,-0.0346,
6.229894,0.0066,0.9599,0.3010,-1.0425,0.0545,0.2150,0.1981,0.3867,-0.0346,
6.231477,0.0066,0.9599,0.3010,-1.0425,0.0545,0.2150,0.3728,0.1039,0.2226,
6.248292,0.0066,0.9599,0.3010,-1.0425,0.0545,0.2150,0.2477,-0.4533,0.3137,
6.267442,0.1009,0.6987,0.3313,-1.0425,0.0545,0.2150,0.2477,-0.4533,0.3137,
6.269310,0.1009,0.6987,0.3313,-0.2342,-2.5223,0.6229,0.2477,-0.4533,0.3137,
6.270955,0.1009,0.6987,0.3313,-0.2342,-2.5223,0.6229,0.1854,-0.4107,0.4320,
6.287509,0.1009,0.6987,0.3313,-0.2342,-2.5223,0.6229,0.2961,-0.4016,0.4863,
6.307882,0.0117,1.1653,0.1783,-0.2342,-2.5223,0.6229,0.2961,-0.4016,0.4863,
6.310190,0.0117,1.1653,0.1783,-1.3022,2.0470,-0.7626,0.2961,-0.4016,0.4863,
6.311941,0.0117,1.1653,0.1783,-1.3022,2.0470,-0.7626,0.2722,-0.4245,0.5539,
6.327648,0.0117,1.1653,0.1783,-1.3022,2.0470,-0.7626,0.0852,-0.4266,0.5838,
6.347465,0.2494,0.8900,0.2064,-1.3022,2.0470,-0.7626,0.0852,-0.4266,0.5838,
6.350408,0.2494,0.8900,0.2064,1.0269,-0.6990,-0.3015,0.0852,-0.4266,0.5838,
6.352304,0.2494,0.8900,0.2064,1.0269,-0.6990,-0.3015,-0.1491,-0.5103,0.5518,
6.367244,0.2494,0.8900,0.2064,1.0269,-0.6990,-0.3015,-0.2887,-0.3925,0.4911,
6.387237,0.1632,0.9831,0.2563,1.0269,-0.6990,-0.3015,-0.2887,-0.3925,0.4911,
6.389455,0.1632,0.9831,0.2563,-0.0529,0.2651,0.1324,-0.2887,-0.3925,0.4911,
6.391156,0.1632,0.9831,0.2563,-0.0529,0.2651,0.1324,-0.2551,-0.1917,0.4703,
6.407370,0.1632,0.9831,0.2563,-0.0529,0.2651,0.1324,-0.1619,-0.1598,0.4980,
6.427606,0.1827,1.0300,0.2121,-0.0529,0.2651,0.1324,-0.1619,-0.1598,0.4980,
6.429815,0.1827,1.0300,0.2121,-0.0515,0.7756,-0.3597,-0.1619,-0.1598,0.4980,
6.431622,0.1827,1.0300,0.2121,-0.0515,0.7756,-0.3597,-0.1806,-0.1656,0.4202,
6.449666,0.1827,1.0300,0.2121,-0.0515,0.7756,-0.3597,-0.2610,0.0533,0.3143,
6.467853,0.0704,1.1817,0.1915,-0.0515,0.7756,-0.3597,-0.2610,0.0533,0.3143,
6.470059,0.0704,1.1817,0.1915,-1.2947,2.3123,-0.6387,-0.2610,0.0533,0.3143,
6.471817,0.0704,1.1817,0.1915,-1.2947,2.3123,-0.6387,-0.5172,0.0879,0.2727,
6.487347,0.0704,1.1817,0.1915,-1.2947,2.3123,-0.6387,-0.8485,0.1172,0.4623,
6.507406,0.2470,0.9843,0.3056,-1.2947,2.3123,-0.6387,-0.8485,0.1172,0.4623,
6.509647,0.2470,0.9843,0.3056,0.3157,0.4780,0.2233,-0.8485,0.1172,0.4623,
6.511553,0.2470,0.9843,0.3056,0.3157,0.4780,0.2233,-1.2629,0.0575,0.6551,
6.527586,0.2470,0.9843,0.3056,0.3157,0.4780,0.2233,-1.6368,-0.0341,0.6418,
6.547821,0.3457,0.6567,0.5771,0.3157,0.4780,0.2233,-1.6368,-0.0341,0.6418,
6.549857,0.3457,0.6567,0.5771,1.0445,-2.4901,2.3369,-1.6368,-0.0341,0.6418,
6.551565,0.3457,0.6567,0.5771,1.0445,-2.4901,2.3369,-1.6741,-0.3308,0.5273,
6.567707,0.3457,0.6567,0.5771,1.0445,-2.4901,2.3369,-1.4498,-0.5667,0.4581,
6.587289,0.3691,0.8839,0.4581,1.0445,-2.4901,2.3369,-1.4498,-0.5667,0.4581,
6.589224,0.3691,0.8839,0.4581,1.0260,0.0143,0.6593,-1.4498,-0.5667,0.4581,
6.590817,0.3691,0.8839,0.4581,1.0260,0.0143,0.6593,-1.2762,-0.3382,0.4149,
6.607158,0.3691,0.8839,0.4581,1.0260,0.0143,0.6593,-1.1878,0.2402,0.2866,
6.627290,0.3875,0.7522,0.4097,1.0260,0.0143,0.6593,-1.1878,0.2402,0.2866,
6.629616,0.3875,0.7522,0.4097,1.0575,-1.0348,-0.2269,-1.1878,0.2402,0.2866,
6.631217,0.3875,0.7522,0.4097,1.0575,-1.0348,-0.2269,-1.0658,0.5555,0.0607,
6.646989,0.3875,0.7522,0.4097,1.0575,-1.0348,-0.2269,-0.7515,0.5545,-0.1182,
6.666884,0.2744,0.6594,0.4659,1.0575,-1.0348,-0.2269,-0.7515,0.5545,-0.1182,
6.669143,0.2744,0.6594,0.4659,0.0503,-1.7848,-0.0387,-0.7515,0.5545,-0.1182,
6.670918,0.2744,0.6594,0.4659,0.0503,-1.7848,-0.0387,-0.3340,0.3089,-0.2658,
6.687309,0.2744,0.6594,0.4659,0.0503,-1.7848,-0.0387,-0.0804,0.2242,-0.2668,
6.706963,0.2257,0.6108,0.3691,0.0503,-1.7848,-0.0387,-0.0804,0.2242,-0.2668,
6.709182,0.2257,0.6108,0.3691,-0.2890,-2.2500,-1.0824,-0.0804,0.2242,-0.2668,
6.711122,0.2257,0.6108,0.3691,-0.2890,-2.2500,-1.0824,0.0794,0.1630,-0.2285,
6.726629,0.2257,0.6108,0.3691,-0.2890,-2.2500,-1.0824,0.1220,0.1012,-0.2269,
6.747617,0.1283,0.7615,0.2135,-0.2890,-2.2500,-1.0824,0.1220,0.1012,-0.2269,
6.751089,0.1283,0.7615,0.2135,-1.1444,-0.8139,-2.5873,0.1220,0.1012,-0.2269,
6.752846,0.1283,0.7615,0.2135,-1.1444,-0.8139,-2.5873,-0.0517,0.1630,-0.2407,
6.767495,0.1283,0.7615,0.2135,-1.1444,-0.8139,-2.5873,-0.2466,0.2615,-0.2381,
6.787524,0.1593,0.7595,0.3454,-1.1444,-0.8139,-2.5873,-0.2466,0.2615,-0.2381,
6.789913,0.1593,0.7595,0.3454,-0.7212,-0.8274,-1.3635,-0.2466,0.2615,-0.2381,
6.791774,0.1593,0.7595,0.3454,-0.7212,-0.8274,-1.3635,-0.2439,0.3430,-0.1827,
6.807485,0.1593,0.7595,0.3454,-0.7212,-0.8274,-1.3635,-0.2099,0.3878,-0.1193,
6.827706,0.2360,0.7808,0.4383,-0.7212,-0.8274,-1.3635,-0.2099,0.3878,-0.1193,
6.831664,0.2360,0.7808,0.4383,0.1505,-0.5891,-0.5609,-0.2099,0.3878,-0.1193,
6.833676,0.2360,0.7808,0.4383,0.1505,-0.5891,-0.5609,-0.2429,0.3531,-0.0788,
6.848485,0.2360,0.7808,0.4383,0.1505,-0.5891,-0.5609,-0.1848,0.3744,-0.0959,
6.866529,0.3049,0.7798,0.4727,0.1505,-0.5891,-0.5609,-0.1848,0.3744,-0.0959,
6.868580,0.3049,0.7798,0.4727,0.8218,-0.5781,-0.2563,-0.1848,0.3744,-0.0959,
6.870406,0.3049,0.7798,0.4727,0.8218,-0.5781,-0.2563,0.0383,0.4458,-0.1326,
6.886166,0.3049,0.7798,0.4727,0.8218,-0.5781,-0.2563,0.2573,0.3723,-0.1779,
6.907096,0.2284,0.8692,0.5033,0.8218,-0.5781,-0.2563,0.2573,0.3723,-0.1779,
6.910956,0.2284,0.8692,0.5033,0.1933,0.2557,0.0625,0.2573,0.3723,-0.1779,
6.912718,0.2284,0.8692,0.5033,0.1933,0.2557,0.0625,0.4698,0.3174,-0.2168,
6.926993,0.2284,0.8692,0.5033,0.1933,0.2557,0.0625,0.7478,0.3063,-0.2035,
6.946962,0.2172,0.8925,0.5192,0.1933,0.2557,0.0625,0.7478,0.3063,-0.2035,
6.950040,0.2172,0.8925,0.5192,0.1989,0.3543,0.3944,0.7478,0.3063,-0.2035,
6.952035,0.2172,0.8925,0.5192,0.1989,0.3543,0.3944,0.9886,0.2045,-0.2599,
6.966508,0.2172,0.8925,0.5192,0.1989,0.3543,0.3944,1.2101,0.0096,-0.3718,
6.986713,0.2431,0.8834,0.4507,0.1989,0.3543,0.3944,1.2101,0.0096,-0.3718,
6.988779,0.2431,0.8834,0.4507,0.5617,0.0522,0.0807,1.2101,0.0096,-0.3718,
6.990310,0.2431,0.8834,0.4507,0.5617,0.0522,0.0807,1.3896,-0.0719,-0.4607,
7.006809,0.2431,0.8834,0.4507,0.5617,0.0522,0.0807,1.4237,-0.1039,-0.4719,
7.026499,0.2497,1.0283,0.3516,0.5617,0.0522,0.0807,1.4237,-0.1039,-0.4719,
7.028305,0.2497,1.0283,0.3516,0.7631,1.2125,-0.3957,1.4237,-0.1039,-0.4719,
7.030073,0.2497,1.0283,0.3516,0.7631,1.2125,-0.3957,1.2639,-0.1017,-0.4485,
7.046540,0.2497,1.0283,0.3516,0.7631,1.2125,-0.3957,0.9955,-0.0565,-0.4639,
7.067099,0.2326,1.0823,0.3310,0.7631,1.2125,-0.3957,0.9955,-0.0565,-0.4639,
7.069208,0.2326,1.0823,0.3310,0.7458,1.5485,-0.1872,0.9955,-0.0565,-0.4639,
7.070828,0.2326,1.0823,0.3310,0.7458,1.5485,-0.1872,0.7478,-0.0352,-0.5060,
7.087317,0.2326,1.0823,0.3310,0.7458,1.5485,-0.1872,0.5715,0.0463,-0.5449,
7.106421,0.1652,1.0249,0.3376,0.7458,1.5485,-0.1872,0.5715,0.0463,-0.5449,
7.108498,0.1652,1.0249,0.3376,0.2752,0.8687,0.1172,0.5715,0.0463,-0.5449,
7.110170,0.1652,1.0249,0.3376,0.2752,0.8687,0.1172,0.4096,0.0671,-0.5758,
7.125830,0.1652,1.0249,0.3376,0.2752,0.8687,0.1172,0.3121,0.0613,-0.5651,
7.146809,0.0782,0.8866,0.3298,0.2752,0.8687,0.1172,0.3121,0.0613,-0.5651,
7.148977,0.0782,0.8866,0.3298,-0.3683,-0.5560,0.1628,0.3121,0.0613,-0.5651,
7.150565,0.0782,0.8866,0.3298,-0.3683,-0.5560,0.1628,0.2679,0.2599,-0.5145,
7.167696,0.0782,0.8866,0.3298,-0.3683,-0.5560,0.1628,0.1566,0.4554,-0.4346,
7.186840,-0.0213,0.9540,0.3183,-0.3683,-0.5560,0.1628,0.1566,0.4554,-0.4346,
7.189078,-0.0213,0.9540,0.3183,-1.1188,0.0613,0.1075,0.1566,0.4554,-0.4346,
7.190671,-0.0213,0.9540,0.3183,-1.1188,0.0613,0.1075,0.1555,0.4000,-0.2274,
7.206612,-0.0213,0.9540,0.3183,-1.1188,0.0613,0.1075,0.1960,0.3031,0.1518,
7.226716,0.0024,1.1795,0.2756,-1.1188,0.0613,0.1075,0.1960,0.3031,0.1518,
7.230179,0.0024,1.1795,0.2756,-0.8300,2.2486,-0.2581,0.1960,0.3031,0.1518,
7.231821,0.0024,1.1795,0.2756,-0.8300,2.2486,-0.2581,0.2503,0.1907,0.5523,
7.249563,0.0024,1.1795,0.2756,-0.8300,2.2486,-0.2581,0.1491,0.0202,0.8980,
7.266100,0.2077,0.7708,0.3171,-0.8300,2.2486,-0.2581,0.1491,0.0202,0.8980,
7.268341,0.2077,0.7708,0.3171,0.9231,-1.7502,0.2143,0.1491,0.0202,0.8980,
7.270110,0.2077,0.7708,0.3171,0.9231,-1.7502,0.2143,-0.0144,-0.3217,0.7462,
7.286869,0.2077,0.7708,0.3171,0.9231,-1.7502,0.2143,0.0256,-0.4101,0.4842,
7.305829,-0.0406,1.0908,0.2849,0.9231,-1.7502,0.2143,0.0256,-0.4101,0.4842,
7.308070,-0.0406,1.0908,0.2849,-1.7592,1.4128,-0.0803,0.0256,-0.4101,0.4842,
7.309855,-0.0406,1.0908,0.2849,-1.7592,1.4128,-0.0803,0.0660,-0.2589,0.5284,
7.327009,-0.0406,1.0908,0.2849,-1.7592,1.4128,-0.0803,-0.0336,-0.2738,0.5822,
7.345903,0.0943,1.0024,0.2934,-1.7592,1.4128,-0.0803,-0.0336,-0.2738,0.5822,
7.348702,0.0943,1.0024,0.2934,-0.6526,0.5732,0.0262,-0.0336,-0.2738,0.5822,
7.350509,0.0943,1.0024,0.2934,-0.6526,0.5732,0.0262,-0.1198,-0.4032,0.6653,
7.366279,0.0943,1.0024,0.2934,-0.6526,0.5732,0.0262,-0.2674,-0.4410,0.7063,
7.386646,0.2272,1.0117,0.3032,-0.6526,0.5732,0.0262,-0.2674,-0.4410,0.7063,
7.388757,0.2272,1.0117,0.3032,0.3594,0.7310,0.0817,-0.2674,-0.4410,0.7063,
7.390331,0.2272,1.0117,0.3032,0.3594,0.7310,0.0817,-0.4165,-0.3425,0.6503,
7.405954,0.2272,1.0117,0.3032,0.3594,0.7310,0.0817,-0.6019,-0.3521,0.5965,
7.426098,0.2856,1.0212,0.3479,0.3594,0.7310,0.0817,-0.6019,-0.3521,0.5965,
7.428510,0.2856,1.0212,0.3479,0.6659,0.9335,0.3632,-0.6019,-0.3521,0.5965,
7.430145,0.2856,1.0212,0.3479,0.6659,0.9335,0.3632,-0.8394,-0.4059,0.7025,
7.446300,0.2856,1.0212,0.3479,0.6659,0.9335,0.3632,-1.2224,-0.4788,0.7494,
7.466695,0.3770,0.7886,0.4324,0.6659,0.9335,0.3632,-1.2224,-0.4788,0.7494,
7.468477,0.3770,0.7886,0.4324,1.2397,-1.1445,0.8590,-1.2224,-0.4788,0.7494,
7.470190,0.3770,0.7886,0.4324,1.2397,-1.1445,0.8590,-1.6038,-0.6637,0.7137,
7.485803,0.3770,0.7886,0.4324,1.2397,-1.1445,0.8590,-1.7396,-0.9444,0.5694,
7.507639,0.3596,0.7131,0.4266,1.2397,-1.1445,0.8590,-1.7396,-0.9444,0.5694,
7.509858,0.3596,0.7131,0.4266,0.7188,-1.5701,0.3012,-1.7396,-0.9444,0.5694,
7.511999,0.3596,0.7131,0.4266,0.7188,-1.5701,0.3012,-1.6613,-0.9918,0.4852,
7.526514,0.3596,0.7131,0.4266,0.7188,-1.5701,0.3012,-1.4557,-0.5092,0.3270,
7.545951,0.3794,0.8590,0.4827,0.7188,-1.5701,0.3012,-1.4557,-0.5092,0.3270,
7.547927,0.3794,0.8590,0.4827,0.6461,0.1631,0.4194,-1.4557,-0.5092,0.3270,
7.549536,0.3794,0.8590,0.4827,0.6461,0.1631,0.4194,-1.1910,-0.0490,0.1486,
7.567255,0.3794,0.8590,0.4827,0.6461,0.1631,0.4194,-0.8991,-0.0815,-0.0213,
7.586886,0.4077,0.7295,0.5954,0.6461,0.1631,0.4194,-0.8991,-0.0815,-0.0213,
7.589068,0.4077,0.7295,0.5954,0.8731,-0.8989,1.1819,-0.8991,-0.0815,-0.0213,
7.590871,0.4077,0.7295,0.5954,0.8731,-0.8989,1.1819,-0.6232,-0.1555,-0.2093,
7.605769,0.4077,0.7295,0.5954,0.8731,-0.8989,1.1819,-0.1816,-0.1182,-0.4149,
7.626197,0.2155,0.5204,0.4033,0.8731,-0.8989,1.1819,-0.1816,-0.1182,-0.4149,
7.629370,0.2155,0.5204,0.4033,-0.9371,-2.9111,-0.8119,-0.1816,-0.1182,-0.4149,
7.631728,0.2155,0.5204,0.4033,-0.9371,-2.9111,-0.8119,0.1294,-0.0581,-0.4394,
7.651632,0.2155,0.5204,0.4033,-0.9371,-2.9111,-0.8119,0.1795,0.1385,-0.4112,
7.665809,0.0645,0.6589,0.2130,-0.9371,-2.9111,-0.8119,0.1795,0.1385,-0.4112,
7.668203,0.0645,0.6589,0.2130,-2.2724,-1.6335,-2.6319,0.1795,0.1385,-0.4112,
7.670192,0.0645,0.6589,0.2130,-2.2724,-1.6335,-2.6319,0.1119,0.3574,-0.3526,
7.686034,0.0645,0.6589,0.2130,-2.2724,-1.6335,-2.6319,0.0368,0.5289,-0.3063,
7.705627,0.1285,0.7686,0.2861,-2.2724,-1.6335,-2.6319,0.0368,0.5289,-0.3063,
7.708137,0.1285,0.7686,0.2861,-1.4546,-0.6096,-1.9416,0.0368,0.5289,-0.3063,
7.710149,0.1285,0.7686,0.2861,-1.4546,-0.6096,-1.9416,-0.0064,0.6322,-0.2770,
7.725949,0.1285,0.7686,0.2861,-1.4546,-0.6096,-1.9416,-0.0730,0.5886,-0.1672,
7.746517,0.2641,0.7959,0.4043,-1.4546,-0.6096,-1.9416,-0.0730,0.5886,-0.1672,
7.748716,0.2641,0.7959,0.4043,0.0631,-0.3571,-0.8595,-0.0730,0.5886,-0.1672,
7.750170,0.2641,0.7959,0.4043,0.0631,-0.3571,-0.8595,-0.1582,0.5470,-0.1193,
7.765869,0.2641,0.7959,0.4043,0.0631,-0.3571,-0.8595,-0.0644,0.4852,-0.1316,
7.785835,0.3032,0.9020,0.5548,0.0631,-0.3571,-0.8595,-0.0644,0.4852,-0.1316,
7.787867,0.3032,0.9020,0.5548,0.4155,0.5233,0.9115,-0.0644,0.4852,-0.1316,
7.789573,0.3032,0.9020,0.5548,0.4155,0.5233,0.9115,0.1342,0.4868,-0.2109,
7.805538,0.3032,0.9020,0.5548,0.4155,0.5233,0.9115,0.3883,0.5124,-0.2908,
7.825395,0.2504,0.8878,0.6398,0.4155,0.5233,0.9115,0.3883,0.5124,-0.2908,
7.827854,0.2504,0.8878,0.6398,0.0719,0.3215,1.7663,0.3883,0.5124,-0.2908,
7.829235,0.2504,0.8878,0.6398,0.0719,0.3215,1.7663,0.6290,0.4240,-0.2658,
7.845156,0.2504,0.8878,0.6398,0.0719,0.3215,1.7663,0.8437,0.3904,-0.2754,
7.865061,0.2387,0.8333,0.5898,0.0719,0.3215,1.7663,0.8437,0.3904,-0.2754,
7.866967,0.2387,0.8333,0.5898,0.1169,-0.3531,1.4614,0.8437,0.3904,-0.2754,
7.868551,0.2387,0.8333,0.5898,0.1169,-0.3531,1.4614,1.2133,0.3079,-0.3388,
7.885997,0.2387,0.8333,0.5898,0.1169,-0.3531,1.4614,1.5436,0.0927,-0.3995,
7.904964,0.1583,0.9166,0.3557,0.1169,-0.3531,1.4614,1.5436,0.0927,-0.3995,
7.907416,0.1583,0.9166,0.3557,-0.5084,0.2169,-0.3977,1.5436,0.0927,-0.3995,
7.909016,0.1583,0.9166,0.3557,-0.5084,0.2169,-0.3977,1.5574,-0.0714,-0.3963,
7.924952,0.1583,0.9166,0.3557,-0.5084,0.2169,-0.3977,1.3918,-0.1411,-0.3286,
7.945521,0.2145,0.9697,0.2546,-0.5084,0.2169,-0.3977,1.3918,-0.1411,-0.3286,
7.947859,0.2145,0.9697,0.2546,0.1522,0.4991,-0.8677,1.3918,-0.1411,-0.3286,
7.949580,0.2145,0.9697,0.2546,0.1522,0.4991,-0.8677,1.1457,-0.0154,-0.2860,
7.966275,0.2145,0.9697,0.2546,0.1522,0.4991,-0.8677,0.9049,0.1097,-0.2855,
7.985492,0.2336,0.9850,0.2592,0.1522,0.4991,-0.8677,0.9049,0.1097,-0.2855,
7.988582,0.2336,0.9850,0.2592,0.4406,0.5010,-0.4577,0.9049,0.1097,-0.2855,
7.990667,0.2336,0.9850,0.2592,0.4406,0.5010,-0.4577,0.7276,0.2189,-0.3025,
8.005250,0.2336,0.9850,0.2592,0.4406,0.5010,-0.4577,0.5912,0.4432,-0.3739,
8.025109,0.1576,0.9496,0.2983,0.4406,0.5010,-0.4577,0.5912,0.4432,-0.3739,
8.027596,0.1576,0.9496,0.2983,-0.1477,0.0575,0.1361,0.5912,0.4432,-0.3739,
8.029286,0.1576,0.9496,0.2983,-0.1477,0.0575,0.1361,0.5353,0.5912,-0.5119,
8.045539,0.1576,0.9496,0.2983,-0.1477,0.0575,0.1361,0.5097,0.5646,-0.6125,
8.064569,-0.0037,1.0527,0.3577,-0.1477,0.0575,0.1361,0.5097,0.5646,-0.6125,
8.067292,-0.0037,1.0527,0.3577,-1.4490,0.9779,0.8665,0.5097,0.5646,-0.6125,
8.069188,-0.0037,1.0527,0.3577,-1.4490,0.9779,0.8665,0.4362,0.4671,-0.5475,
8.084751,-0.0037,1.0527,0.3577,-1.4490,0.9779,0.8665,0.2929,0.4847,-0.2253,
8.104921,-0.1620,1.2374,0.4422,-1.4490,0.9779,0.8665,0.2929,0.4847,-0.2253,
8.107744,-0.1620,1.2374,0.4422,-2.8069,2.7299,1.8066,0.2929,0.4847,-0.2253,
8.109641,-0.1620,1.2374,0.4422,-2.8069,2.7299,1.8066,0.3212,0.6072,0.2871,
8.125196,-0.1620,1.2374,0.4422,-2.8069,2.7299,1.8066,0.4634,0.4985,0.7904,
8.144741,0.3242,0.7175,0.3745,-2.8069,2.7299,1.8066,0.4634,0.4985,0.7904,
8.147839,0.3242,0.7175,0.3745,1.8116,-2.3653,1.2207,0.4634,0.4985,0.7904,
8.150066,0.3242,0.7175,0.3745,1.8116,-2.3653,1.2207,0.2503,0.2003,0.9673,
8.167211,0.3242,0.7175,0.3745,1.8116,-2.3653,1.2207,0.1875,-0.0144,0.6962,
8.185499,0.2121,0.8951,0.2558,1.8116,-2.3653,1.2207,0.1875,-0.0144,0.6962,
8.187618,0.2121,0.8951,0.2558,0.4100,-0.5878,0.1036,0.1875,-0.0144,0.6962,
8.189331,0.2121,0.8951,0.2558,0.4100,-0.5878,0.1036,0.2935,-0.0202,0.2977,
8.204840,0.2121,0.8951,0.2558,0.4100,-0.5878,0.1036,0.3063,0.0895,0.2487,
8.225279,-0.0584,1.0254,0.1893,0.4100,-0.5878,0.1036,0.3063,0.0895,0.2487,
8.227887,-0.0584,1.0254,0.1893,-2.2977,0.6744,-0.4509,0.3063,0.0895,0.2487,
8.229748,-0.0584,1.0254,0.1893,-2.2977,0.6744,-0.4509,0.1411,0.0165,0.3787,
8.245614,-0.0584,1.0254,0.1893,-2.2977,0.6744,-0.4509,-0.0234,-0.0799,0.5848,
8.265257,-0.0347,1.1052,0.2402,-2.2977,0.6744,-0.4509,-0.0234,-0.0799,0.5848,
8.268333,-0.0347,1.1052,0.2402,-2.2190,1.4814,0.0693,-0.0234,-0.0799,0.5848,
8.270648,-0.0347,1.1052,0.2402,-2.2190,1.4814,0.0693,-0.1784,-0.1875,0.8517,
8.284869,-0.0347,1.1052,0.2402,-2.2190,1.4814,0.0693,-0.3446,-0.3835,0.9071,
8.304494,0.1979,1.0999,0.2729,-2.2190,1.4814,0.0693,-0.3446,-0.3835,0.9071,
8.307228,0.1979,1.0999,0.2729,-0.2893,1.5242,0.3167,-0.3446,-0.3835,0.9071,
8.309239,0.1979,1.0999,0.2729,-0.2893,1.5242,0.3167,-0.4953,-0.4277,0.8693,
8.324316,0.1979,1.0999,0.2729,-0.2893,1.5242,0.3167,-0.6333,-0.2690,0.8863,
8.344943,0.3909,0.9056,0.3562,-0.2893,1.5242,0.3167,-0.6333,-0.2690,0.8863,
8.347060,0.3909,0.9056,0.3562,1.2542,-0.2407,0.9551,-0.6333,-0.2690,0.8863,
8.348748,0.3909,0.9056,0.3562,1.2542,-0.2407,0.9551,-0.8938,-0.3377,0.7452,
8.365460,0.3909,0.9056,0.3562,1.2542,-0.2407,0.9551,-1.1052,-0.3851,0.6072,
8.384802,0.4273,0.7989,0.4007,1.2542,-0.2407,0.9551,-1.1052,-0.3851,0.6072,
8.386962,0.4273,0.7989,0.4007,1.3236,-1.0999,1.0553,-1.1052,-0.3851,0.6072,
8.388710,0.4273,0.7989,0.4007,1.3236,-1.0999,1.0553,-1.3694,-0.6109,0.5369,
8.404939,0.4273,0.7989,0.4007,1.3236,-1.0999,1.0553,-1.6080,-0.8352,0.3840,
8.424902,0.3728,0.7779,0.3296,1.3236,-1.0999,1.0553,-1.6080,-0.8352,0.3840,
8.427067,0.3728,0.7779,0.3296,0.5300,-1.0632,-0.0809,-1.6080,-0.8352,0.3840,
8.428929,0.3728,0.7779,0.3296,0.5300,-1.0632,-0.0809,-1.6331,-0.7276,0.2541,
8.444181,0.3728,0.7779,0.3296,0.5300,-1.0632,-0.0809,-1.6378,0.0218,0.0618,
8.464105,0.3271,0.8548,0.4058,0.5300,-1.0632,-0.0809,-1.6378,0.0218,0.0618,
8.466320,0.3271,0.8548,0.4058,-0.0220,-0.0575,0.1551,-1.6378,0.0218,0.0618,
8.468099,0.3271,0.8548,0.4058,-0.0220,-0.0575,0.1551,-1.6906,0.2647,-0.0399,
8.484973,0.3271,0.8548,0.4058,-0.0220,-0.0575,0.1551,-1.4733,0.2498,-0.2019,
8.504178,0.3164,0.5880,0.5631,-0.0220,-0.0575,0.1551,-1.4733,0.2498,-0.2019,
8.506517,0.3164,0.5880,0.5631,-0.0484,-2.4247,1.1347,-1.4733,0.2498,-0.2019,
8.508464,0.3164,0.5880,0.5631,-0.0484,-2.4247,1.1347,-1.1265,0.1289,-0.2791,
8.524885,0.3164,0.5880,0.5631,-0.0484,-2.4247,1.1347,-0.7159,-0.0463,-0.2194,
8.544582,0.3169,0.5729,0.5023,-0.0484,-2.4247,1.1347,-0.7159,-0.0463,-0.2194,
8.546892,0.3169,0.5729,0.5023,0.0445,-2.4370,0.2346,-0.7159,-0.0463,-0.2194,
8.548522,0.3169,0.5729,0.5023,0.0445,-2.4370,0.2346,-0.3457,-0.0442,-0.2599,
8.564768,0.3169,0.5729,0.5023,0.0445,-2.4370,0.2346,-0.1422,0.0298,-0.3238,
8.584613,0.1976,0.7126,0.3415,0.0445,-2.4370,0.2346,-0.1422,0.0298,-0.3238,
8.588957,0.1976,0.7126,0.3415,-1.0315,-1.0566,-1.4183,-0.1422,0.0298,-0.3238,
8.590935,0.1976,0.7126,0.3415,-1.0315,-1.0566,-1.4183,-0.0644,0.1518,-0.4724,
8.604697,0.1976,0.7126,0.3415,-1.0315,-1.0566,-1.4183,-0.1800,0.3478,-0.4634,
8.624881,0.1014,0.7004,0.2778,-1.0315,-1.0566,-1.4183,-0.1800,0.3478,-0.4634,
8.627258,0.1014,0.7004,0.2778,-1.7763,-1.2066,-2.1110,-0.1800,0.3478,-0.4634,
8.629250,0.1014,0.7004,0.2778,-1.7763,-1.2066,-2.1110,-0.3137,0.4240,-0.3521,
8.644237,0.1014,0.7004,0.2778,-1.7763,-1.2066,-2.1110,-0.3004,0.4746,-0.2525,
8.664786,0.2089,0.7170,0.4354,-1.7763,-1.2066,-2.1110,-0.3004,0.4746,-0.2525,
8.667065,0.2089,0.7170,0.4354,-0.5374,-1.0161,-0.7136,-0.3004,0.4746,-0.2525,
8.668941,0.2089,0.7170,0.4354,-0.5374,-1.0161,-0.7136,-0.2125,0.4133,-0.1364,
8.684067,0.2089,0.7170,0.4354,-0.5374,-1.0161,-0.7136,-0.1667,0.4298,-0.1321,
8.704311,0.3064,0.8707,0.6059,-0.5374,-1.0161,-0.7136,-0.1667,0.4298,-0.1321,
8.707728,0.3064,0.8707,0.6059,0.5450,0.5144,0.8548,-0.1667,0.4298,-0.1321,
8.709246,0.3064,0.8707,0.6059,0.5450,0.5144,0.8548,0.0112,0.3569,-0.1539,
8.724022,0.3064,0.8707,0.6059,0.5450,0.5144,0.8548,0.3148,0.2051,-0.1529,
8.743894,0.2624,0.8648,0.6591,0.5450,0.5144,0.8548,0.3148,0.2051,-0.1529,
8.746068,0.2624,0.8648,0.6591,0.2174,0.4166,1.3915,0.3148,0.2051,-0.1529,
8.747589,0.2624,0.8648,0.6591,0.2174,0.4166,1.3915,0.5795,0.1523,-0.1587,
8.765833,0.2624,0.8648,0.6591,0.2174,0.4166,1.3915,0.8964,0.1875,-0.1763,
8.785199,0.2575,0.8338,0.5746,0.2174,0.4166,1.3915,0.8964,0.1875,-0.1763,
8.788123,0.2575,0.8338,0.5746,0.2529,-0.0385,0.7719,0.8964,0.1875,-0.1763,
8.789962,0.2575,0.8338,0.5746,0.2529,-0.0385,0.7719,1.2810,0.2578,-0.2924,
8.804540,0.2575,0.8338,0.5746,0.2529,-0.0385,0.7719,1.6128,0.2445,-0.4581,
8.823590,0.1984,0.8116,0.3946,0.2529,-0.0385,0.7719,1.6128,0.2445,-0.4581,
8.825710,0.1984,0.8116,0.3946,-0.1613,-0.5462,-0.5484,1.6128,0.2445,-0.4581,
8.827211,0.1984,0.8116,0.3946,-0.1613,-0.5462,-0.5484,1.7886,0.1017,-0.5614,
8.843732,0.1984,0.8116,0.3946,-0.1613,-0.5462,-0.5484,1.7279,-0.0927,-0.6125,
8.864572,0.1874,0.9247,0.2372,-0.1613,-0.5462,-0.5484,1.7279,-0.0927,-0.6125,
8.867632,0.1874,0.9247,0.2372,-0.0696,0.2283,-1.4834,1.7279,-0.0927,-0.6125,
8.869387,0.1874,0.9247,0.2372,-0.0696,0.2283,-1.4834,1.3992,-0.1736,-0.5918,
8.885533,0.1874,0.9247,0.2372,-0.0696,0.2283,-1.4834,0.9081,-0.0852,-0.4847,
8.904091,0.1954,1.1179,0.2954,-0.0696,0.2283,-1.4834,0.9081,-0.0852,-0.4847,
8.907336,0.1954,1.1179,0.2954,0.1805,1.9168,-0.4900,0.9081,-0.0852,-0.4847,
8.909215,0.1954,1.1179,0.2954,0.1805,1.9168,-0.4900,0.4788,0.1166,-0.4341,
8.924324,0.1954,1.1179,0.2954,0.1805,1.9168,-0.4900,0.3382,0.2407,-0.4698,
8.944138,0.1285,1.0478,0.4642,0.1805,1.9168,-0.4900,0.3382,0.2407,-0.4698,
8.946375,0.1285,1.0478,0.4642,-0.2880,1.1462,1.3001,0.3382,0.2407,-0.4698,
8.948048,0.1285,1.0478,0.4642,-0.2880,1.1462,1.3001,0.4123,0.3462,-0.4554,
8.966038,0.1285,1.0478,0.4642,-0.2880,1.1462,1.3001,0.4751,0.4565,-0.3936,
8.983927,0.0506,0.9628,0.4424,-0.2880,1.1462,1.3001,0.4751,0.4565,-0.3936,
8.987030,0.0506,0.9628,0.4424,-0.8432,0.2339,1.2202,0.4751,0.4565,-0.3936,
8.988819,0.0506,0.9628,0.4424,-0.8432,0.2339,1.2202,0.4527,0.4613,-0.3004,
9.003754,0.0506,0.9628,0.4424,-0.8432,0.2339,1.2202,0.3665,0.4719,-0.1587,
9.024209,0.0340,0.9706,0.3723,-0.8432,0.2339,1.2202,0.3665,0.4719,-0.1587,
9.026553,0.0340,0.9706,0.3723,-0.8577,0.2516,0.6494,0.3665,0.4719,-0.1587,
9.028140,0.0340,0.9706,0.3723,-0.8577,0.2516,0.6494,0.4160,0.4730,0.1140,
9.044125,0.0340,0.9706,0.3723,-0.8577,0.2516,0.6494,0.4767,0.3451,0.3627,
9.063896,0.2301,0.9252,0.2822,-0.8577,0.2516,0.6494,0.4767,0.3451,0.3627,
9.066254,0.2301,0.9252,0.2822,1.0196,-0.2296,-0.1017,0.4767,0.3451,0.3627,
9.067864,0.2301,0.9252,0.2822,1.0196,-0.2296,-0.1017,0.4160,0.1843,0.5081,
9.083777,0.2301,0.9252,0.2822,1.0196,-0.2296,-0.1017,0.3340,-0.0304,0.5007,
9.103700,0.1769,0.8299,0.2619,1.0196,-0.2296,-0.1017,0.3340,-0.0304,0.5007,
9.106548,0.1769,0.8299,0.2619,0.3135,-1.1745,-0.1762,0.3340,-0.0304,0.5007,
9.108255,0.1769,0.8299,0.2619,0.3135,-1.1745,-0.1762,0.2732,-0.1854,0.3606,
9.123907,0.1769,0.8299,0.2619,0.3135,-1.1745,-0.1762,0.1976,-0.0815,0.3563,
9.143867,-0.1256,1.1666,0.2643,0.3135,-1.1745,-0.1762,0.1976,-0.0815,0.3563,
9.146243,-0.1256,1.1666,0.2643,-2.7771,2.1176,-0.0581,0.1976,-0.0815,0.3563,
9.147977,-0.1256,1.1666,0.2643,-2.7771,2.1176,-0.0581,0.1087,-0.1385,0.4538,
9.164517,-0.1256,1.1666,0.2643,-2.7771,2.1176,-0.0581,0.0256,-0.3579,0.6040,
9.184621,-0.0298,0.9848,0.3247,-2.7771,2.1176,-0.0581,0.0256,-0.3579,0.6040,
9.189031,-0.0298,0.9848,0.3247,-2.0258,0.3593,0.5687,0.0256,-0.3579,0.6040,
9.191079,-0.0298,0.9848,0.3247,-2.0258,0.3593,0.5687,-0.0820,-0.4176,0.7931,
9.203869,-0.0298,0.9848,0.3247,-2.0258,0.3593,0.5687,-0.1971,-0.3814,0.9923,
9.223997,0.1810,1.1033,0.3628,-2.0258,0.3593,0.5687,-0.1971,-0.3814,0.9923,
9.227044,0.1810,1.1033,0.3628,-0.3307,1.6035,0.9209,-0.1971,-0.3814,0.9923,
9.228605,0.1810,1.1033,0.3628,-0.3307,1.6035,0.9209,-0.2977,-0.4426,1.1526,
9.243981,0.1810,1.1033,0.3628,-0.3307,1.6035,0.9209,-0.4176,-0.2802,1.0269,
9.263344,0.3545,1.0153,0.3283,-0.3307,1.6035,0.9209,-0.4176,-0.2802,1.0269,
9.266909,0.3545,1.0153,0.3283,0.9326,0.8811,0.4862,-0.4176,-0.2802,1.0269,
9.268745,0.3545,1.0153,0.3283,0.9326,0.8811,0.4862,-0.6519,-0.1981,0.8906,
9.283844,0.3545,1.0153,0.3283,0.9326,0.8811,0.4862,-0.9545,-0.3169,0.8219,
9.303686,0.4395,0.7686,0.3936,0.9326,0.8811,0.4862,-0.9545,-0.3169,0.8219,
9.305871,0.4395,0.7686,0.3936,1.4290,-1.3488,0.8544,-0.9545,-0.3169,0.8219,
9.307552,0.4395,0.7686,0.3936,1.4290,-1.3488,0.8544,-1.3140,-0.5614,0.7095,
9.323468,0.4395,0.7686,0.3936,1.4290,-1.3488,0.8544,-1.5510,-0.7286,0.5726,
9.342839,0.3665,0.7500,0.4231,1.4290,-1.3488,0.8544,-1.5510,-0.7286,0.5726,
9.345090,0.3665,0.7500,0.4231,0.4025,-1.2624,0.7079,-1.5510,-0.7286,0.5726,
9.346592,0.3665,0.7500,0.4231,0.4025,-1.2624,0.7079,-1.4908,-0.5651,0.4266,
9.363614,0.3665,0.7500,0.4231,0.4025,-1.2624,0.7079,-1.3673,-0.1827,0.3356,
9.383607,0.3674,0.7713,0.3533,0.4025,-1.2624,0.7079,-1.3673,-0.1827,0.3356,
9.385766,0.3674,0.7713,0.3533,0.2270,-0.7952,-0.4114,-1.3673,-0.1827,0.3356,
9.387536,0.3674,0.7713,0.3533,0.2270,-0.7952,-0.4114,-1.4930,0.0911,0.1843,
9.403141,0.3674,0.7713,0.3533,0.2270,-0.7952,-0.4114,-1.3939,0.3776,0.0021,
9.423448,0.3345,0.6736,0.4999,0.2270,-0.7952,-0.4114,-1.3939,0.3776,0.0021,
9.426940,0.3345,0.6736,0.4999,-0.0902,-1.5009,0.5178,-1.3939,0.3776,0.0021,
9.428726,0.3345,0.6736,0.4999,-0.0902,-1.5009,0.5178,-1.1563,0.3276,-0.1891,
9.443296,0.3345,0.6736,0.4999,-0.0902,-1.5009,0.5178,-0.7942,0.1901,-0.2061,
9.463678,0.3232,0.6318,0.5433,-0.0902,-1.5009,0.5178,-0.7942,0.1901,-0.2061,
9.467724,0.3232,0.6318,0.5433,-0.0914,-1.7573,0.5953,-0.7942,0.1901,-0.2061,
9.469711,0.3232,0.6318,0.5433,-0.0914,-1.7573,0.5953,-0.4623,0.0980,-0.2178,
9.483599,0.3232,0.6318,0.5433,-0.0914,-1.7573,0.5953,-0.2349,0.2887,-0.2913,
9.503377,0.1649,0.7388,0.4234,-0.0914,-1.7573,0.5953,-0.2349,0.2887,-0.2913,
9.505829,0.1649,0.7388,0.4234,-1.5250,-0.6746,-0.7153,-0.2349,0.2887,-0.2913,
9.508045,0.1649,0.7388,0.4234,-1.5250,-0.6746,-0.7153,-0.1411,0.4458,-0.3750,
9.523887,0.1649,0.7388,0.4234,-1.5250,-0.6746,-0.7153,-0.1401,0.5582,-0.2908,
9.543712,0.1732,0.6472,0.3064,-1.5250,-0.6746,-0.7153,-0.1401,0.5582,-0.2908,
9.546275,0.1732,0.6472,0.3064,-1.2396,-1.5853,-1.9674,-0.1401,0.5582,-0.2908,
9.548234,0.1732,0.6472,0.3064,-1.2396,-1.5853,-1.9674,-0.1688,0.5774,-0.1800,
9.563301,0.1732,0.6472,0.3064,-1.2396,-1.5853,-1.9674,-0.1838,0.5955,-0.1502,
9.583027,0.2836,0.7593,0.4012,-1.2396,-1.5853,-1.9674,-0.1838,0.5955,-0.1502,
9.585555,0.2836,0.7593,0.4012,0.0126,-0.4697,-1.1610,-0.1838,0.5955,-0.1502,
9.587390,0.2836,0.7593,0.4012,0.0126,-0.4697,-1.1610,-0.2210,0.5651,-0.1715,
9.603140,0.2836,0.7593,0.4012,0.0126,-0.4697,-1.1610,-0.1087,0.5177,-0.2162,
9.623337,0.3078,0.7581,0.5152,0.0126,-0.4697,-1.1610,-0.1087,0.5177,-0.2162,
9.625651,0.3078,0.7581,0.5152,0.4031,-0.4734,-0.1361,-0.1087,0.5177,-0.2162,
9.627416,0.3078,0.7581,0.5152,0.4031,-0.4734,-0.1361,0.1241,0.5358,-0.3031,
9.643775,0.3078,0.7581,0.5152,0.4031,-0.4734,-0.1361,0.4495,0.6045,-0.4005,
9.662746,0.1661,0.8216,0.5744,0.4031,-0.4734,-0.1361,0.4495,0.6045,-0.4005,
9.664933,0.1661,0.8216,0.5744,-0.7558,0.0548,0.4774,0.4495,0.6045,-0.4005,
9.666548,0.1661,0.8216,0.5744,-0.7558,0.0548,0.4774,0.7638,0.5651,-0.4139,
9.683735,0.1661,0.8216,0.5744,-0.7558,0.0548,0.4774,1.0024,0.2871,-0.3462,
9.702841,0.2223,0.8453,0.5758,-0.7558,0.0548,0.4774,1.0024,0.2871,-0.3462,
9.706006,0.2223,0.8453,0.5758,0.0018,0.0837,0.7250,1.0024,0.2871,-0.3462,
9.707788,0.2223,0.8453,0.5758,0.0018,0.0837,0.7250,1.2048,0.0756,-0.3260,
9.722695,0.2223,0.8453,0.5758,0.0018,0.0837,0.7250,1.4189,0.0288,-0.4213,
9.743236,0.2707,0.8978,0.4754,0.0018,0.0837,0.7250,1.4189,0.0288,-0.4213,
9.745326,0.2707,0.8978,0.4754,0.5991,0.3311,0.1588,1.4189,0.0288,-0.4213,
9.746755,0.2707,0.8978,0.4754,0.5991,0.3311,0.1588,1.5782,-0.0783,-0.5422,
9.762352,0.2707,0.8978,0.4754,0.5991,0.3311,0.1588,1.5894,-0.2338,-0.5465,
9.782124,0.2651,1.0148,0.3323,0.5991,0.3311,0.1588,1.5894,-0.2338,-0.5465,
9.783833,0.2651,1.0148,0.3323,0.6950,1.1714,-0.6891,1.5894,-0.2338,-0.5465,
9.784987,0.2651,1.0148,0.3323,0.6950,1.1714,-0.6891,1.3944,-0.2099,-0.5582,
9.803078,0.2651,1.0148,0.3323,0.6950,1.1714,-0.6891,1.0850,0.1135,-0.5768,
9.822917,0.2448,1.0170,0.3313,0.6950,1.1714,-0.6891,1.0850,0.1135,-0.5768,
9.825267,0.2448,1.0170,0.3313,0.6817,0.9696,-0.2559,1.0850,0.1135,-0.5768,
9.826629,0.2448,1.0170,0.3313,0.6817,0.9696,-0.2559,0.8277,0.3190,-0.5955,
9.842980,0.2448,1.0170,0.3313,0.6817,0.9696,-0.2559,0.6221,0.3281,-0.5534,
9.863370,0.1744,0.9797,0.3797,0.6817,0.9696,-0.2559,0.6221,0.3281,-0.5534,
9.865606,0.1744,0.9797,0.3797,0.2361,0.4716,0.4559,0.6221,0.3281,-0.5534,
9.867109,0.1744,0.9797,0.3797,0.2361,0.4716,0.4559,0.4906,0.3542,-0.4863,
9.883420,0.1744,0.9797,0.3797,0.2361,0.4716,0.4559,0.3760,0.2727,-0.4091,
9.902569,0.1192,0.9721,0.3476,0.2361,0.4716,0.4559,0.3760,0.2727,-0.4091,
9.905506,0.1192,0.9721,0.3476,-0.1080,0.3206,0.2777,0.3760,0.2727,-0.4091,
9.907106,0.1192,0.9721,0.3476,-0.1080,0.3206,0.2777,0.2727,0.3009,-0.4213,
9.922458,0.1192,0.9721,0.3476,-0.1080,0.3206,0.2777,0.1949,0.3276,-0.4155,
9.943208,-0.0716,0.9816,0.2927,-0.1080,0.3206,0.2777,0.1949,0.3276,-0.4155,
9.946471,-0.0716,0.9816,0.2927,-1.7734,0.3652,-0.1932,0.1949,0.3276,-0.4155,
9.948319,-0.0716,0.9816,0.2927,-1.7734,0.3652,-0.1932,0.2392,0.4645,-0.1577,
9.965550,-0.0716,0.9816,0.2927,-1.7734,0.3652,-0.1932,0.2850,0.5289,0.2530,
9.983430,0.1234,0.9552,0.2692,-1.7734,0.3652,-0.1932,0.2850,0.5289,0.2530,
9.987653,0.1234,0.9552,0.2692,0.1814,0.0766,-0.3461,0.2850,0.5289,0.2530,
9.989842,0.1234,0.9552,0.2692,0.1814,0.0766,-0.3461,0.1933,0.2583,0.5289,
10.003030,0.1234,0.9552,0.2692,0.1814,0.0766,-0.3461,0.0495,-0.1529,0.6903,
10.023006,0.2274,0.8272,0.3088,0.1814,0.0766,-0.3461,0.0495,-0.1529,0.6903,
10.026477,0.2274,0.8272,0.3088,0.9742,-1.1623,0.0800,0.0495,-0.1529,0.6903,
10.028081,0.2274,0.8272,0.3088,0.9742,-1.1623,0.0800,0.0698,-0.3047,0.5619,
10.042975,0.2274,0.8272,0.3088,0.9742,-1.1623,0.0800,0.1838,-0.3004,0.3979,
10.062908,-0.1554,1.1399,0.2099,0.9742,-1.1623,0.0800,0.1838,-0.3004,0.3979,
10.066613,-0.1554,1.1399,0.2099,-2.9602,1.9063,-0.8178,0.1838,-0.3004,0.3979,
10.068316,-0.1554,1.1399,0.2099,-2.9602,1.9063,-0.8178,0.1774,-0.4032,0.4655,
10.082705,-0.1554,1.1399,0.2099,-2.9602,1.9063,-0.8178,0.0053,-0.4437,0.6626,
10.102616,0.0799,1.0244,0.2868,-2.9602,1.9063,-0.8178,0.0053,-0.4437,0.6626,
10.105644,0.0799,1.0244,0.2868,-0.8865,0.7929,0.0010,0.0053,-0.4437,0.6626,
10.107515,0.0799,1.0244,0.2868,-0.8865,0.7929,0.0010,-0.1736,-0.5140,0.9364,
10.122502,0.0799,1.0244,0.2868,-0.8865,0.7929,0.0010,-0.3404,-0.6887,0.9081,
10.142419,0.3200,1.1030,0.3452,-0.8865,0.7929,0.0010,-0.3404,-0.6887,0.9081,
10.146417,0.3200,1.1030,0.3452,1.0597,1.6619,0.5241,-0.3404,-0.6887,0.9081,
10.148198,0.3200,1.1030,0.3452,1.0597,1.6619,0.5241,-0.3254,-0.6157,0.8085,
10.164936,0.3200,1.1030,0.3452,1.0597,1.6619,0.5241,-0.3665,-0.4245,0.7265,
10.183107,0.3706,1.0405,0.2985,1.0597,1.6619,0.5241,-0.3665,-0.4245,0.7265,
10.185322,0.3706,1.0405,0.2985,1.2164,1.1579,-0.0124,-0.3665,-0.4245,0.7265,
10.187039,0.3706,1.0405,0.2985,1.2164,1.1579,-0.0124,-0.6977,-0.4261,0.6221,
10.202611,0.3706,1.0405,0.2985,1.2164,1.1579,-0.0124,-1.0679,-0.5907,0.5902,
10.223297,0.4551,0.7241,0.3718,1.2164,1.1579,-0.0124,-1.0679,-0.5907,0.5902,
10.226546,0.4551,0.7241,0.3718,1.7487,-1.7675,0.4428,-1.0679,-0.5907,0.5902,
10.228096,0.4551,0.7241,0.3718,1.7487,-1.7675,0.4428,-1.4690,-0.8693,0.4485,
10.242643,0.4551,0.7241,0.3718,1.7487,-1.7675,0.4428,-1.7039,-0.9444,0.2567,
10.262749,0.2690,0.6858,0.3787,1.7487,-1.7675,0.4428,-1.7039,-0.9444,0.2567,
10.265264,0.2690,0.6858,0.3787,-0.3264,-1.8853,0.0593,-1.7039,-0.9444,0.2567,
10.267036,0.2690,0.6858,0.3787,-0.3264,-1.8853,0.0593,-1.6038,-0.8037,0.2253,
10.282261,0.2690,0.6858,0.3787,-0.3264,-1.8853,0.0593,-1.4658,-0.4005,0.2567,
10.302359,0.2832,0.7996,0.3447,-0.3264,-1.8853,0.0593,-1.4658,-0.4005,0.2567,
10.306142,0.2832,0.7996,0.3447,-0.3617,-0.5048,-0.7157,-1.4658,-0.4005,0.2567,
10.308057,0.2832,0.7996,0.3447,-0.3617,-0.5048,-0.7157,-1.5793,-0.1364,0.2040,
10.322082,0.2832,0.7996,0.3447,-0.3617,-0.5048,-0.7157,-1.4722,0.0623,0.1497,
10.342494,0.4229,0.7114,0.5321,-0.3617,-0.5048,-0.7157,-1.4722,0.0623,0.1497,
10.344960,0.4229,0.7114,0.5321,0.9359,-1.0805,0.6282,-1.4722,0.0623,0.1497,
10.346616,0.4229,0.7114,0.5321,0.9359,-1.0805,0.6282,-1.2016,-0.0085,-0.0719,
10.363222,0.4229,0.7114,0.5321,0.9359,-1.0805,0.6282,-0.7984,-0.0234,-0.2338,
10.382513,0.3584,0.6376,0.6029,0.9359,-1.0805,0.6282,-0.7984,-0.0234,-0.2338,
10.384782,0.3584,0.6376,0.6029,0.3406,-1.6265,1.0007,-0.7984,-0.0234,-0.2338,
10.386390,0.3584,0.6376,0.6029,0.3406,-1.6265,1.0007,-0.2924,-0.0687,-0.3318,
10.402063,0.3584,0.6376,0.6029,0.3406,-1.6265,1.0007,0.0980,0.0165,-0.4112,
10.422700,0.1962,0.6303,0.3103,0.3406,-1.6265,1.0007,0.0980,0.0165,-0.4112,
10.425334,0.1962,0.6303,0.3103,-1.1374,-1.7255,-1.8947,0.0980,0.0165,-0.4112,
10.427316,0.1962,0.6303,0.3103,-1.1374,-1.7255,-1.8947,0.1699,0.1603,-0.4011,
10.442520,0.1962,0.6303,0.3103,-1.1374,-1.7255,-1.8947,0.0250,0.3143,-0.3872,
10.462298,0.1546,0.7620,0.2761,-1.1374,-1.7255,-1.8947,0.0250,0.3143,-0.3872,
10.466081,0.1546,0.7620,0.2761,-1.3727,-0.5011,-2.2271,0.0250,0.3143,-0.3872,
10.468147,0.1546,0.7620,0.2761,-1.3727,-0.5011,-2.2271,-0.2216,0.4618,-0.3041,
10.482947,0.1546,0.7620,0.2761,-1.3727,-0.5011,-2.2271,-0.2791,0.5444,-0.2184,
10.501934,0.2670,0.7273,0.4678,-1.3727,-0.5011,-2.2271,-0.2791,0.5444,-0.2184,
10.505441,0.2670,0.7273,0.4678,-0.0878,-0.8203,-0.4834,-0.2791,0.5444,-0.2184,
10.507820,0.2670,0.7273,0.4678,-0.0878,-0.8203,-0.4834,-0.1715,0.3894,-0.1017,
10.521507,0.2670,0.7273,0.4678,-0.0878,-0.8203,-0.4834,-0.1060,0.2455,-0.0836,
10.542251,0.3379,0.7764,0.5385,-0.0878,-0.8203,-0.4834,-0.1060,0.2455,-0.0836,
10.545327,0.3379,0.7764,0.5385,0.6972,-0.3206,0.1326,-0.1060,0.2455,-0.0836,
10.547073,0.3379,0.7764,0.5385,0.6972,-0.3206,0.1326,0.0639,0.2482,-0.1401,
10.561902,0.3379,0.7764,0.5385,0.6972,-0.3206,0.1326,0.3654,0.3180,-0.2040,
10.581708,0.2634,0.9198,0.5702,0.6972,-0.3206,0.1326,0.3654,0.3180,-0.2040,
10.585259,0.2634,0.9198,0.5702,0.0744,1.0227,0.4867,0.3654,0.3180,-0.2040,
10.586862,0.2634,0.9198,0.5702,0.0744,1.0227,0.4867,0.6551,0.4416,-0.2509,
10.601830,0.2634,0.9198,0.5702,0.0744,1.0227,0.4867,0.9268,0.4581,-0.2967,
10.621924,0.1918,0.8624,0.5385,0.0744,1.0227,0.4867,0.9268,0.4581,-0.2967,
10.622631,0.1918,0.8624,0.5385,-0.4486,0.2771,0.3850,0.9268,0.4581,-0.2967,
10.623106,0.1918,0.8624,0.5385,-0.4486,0.2771,0.3850,1.1574,0.4405,-0.4692,
10.641853,0.1918,0.8624,0.5385,-0.4486,0.2771,0.3850,1.3279,0.4112,-0.5689,
10.661977,0.1671,0.8172,0.4300,-0.4486,0.2771,0.3850,1.3279,0.4112,-0.5689,
10.664230,0.1671,0.8172,0.4300,-0.4380,-0.4397,-0.3126,1.3279,0.4112,-0.5689,
10.666196,0.1671,0.8172,0.4300,-0.4380,-0.4397,-0.3126,1.4360,0.2301,-0.5305,
10.681188,0.1671,0.8172,0.4300,-0.4380,-0.4397,-0.3126,1.4109,-0.0266,-0.4229,
10.701150,0.2604,0.9650,0.3188,-0.4380,-0.4397,-0.3126,1.4109,-0.0266,-0.4229,
10.703493,0.2604,0.9650,0.3188,0.6444,0.7297,-0.9207,1.4109,-0.0266,-0.4229,
10.705235,0.2604,0.9650,0.3188,0.6444,0.7297,-0.9207,1.2437,-0.1390,-0.3260,
10.721550,0.2604,0.9650,0.3188,0.6444,0.7297,-0.9207,0.9651,-0.1129,-0.2748,
10.741150,0.3025,1.0776,0.3132,0.6444,0.7297,-0.9207,0.9651,-0.1129,-0.2748,
10.743815,0.3025,1.0776,0.3132,1.1355,1.6416,-0.5740,0.9651,-0.1129,-0.2748,
10.745475,0.3025,1.0776,0.3132,1.1355,1.6416,-0.5740,0.6711,0.1252,-0.2940,
10.760912,0.3025,1.0776,0.3132,1.1355,1.6416,-0.5740,0.4474,0.4224,-0.3963,
10.781464,0.1976,0.9882,0.4224,1.1355,1.6416,-0.5740,0.4474,0.4224,-0.3963,
10.783530,0.1976,0.9882,0.4224,0.2666,0.6630,0.6766,0.4474,0.4224,-0.3963,
10.785257,0.1976,0.9882,0.4224,0.2666,0.6630,0.6766,0.3947,0.5246,-0.3989,
10.801664,0.1976,0.9882,0.4224,0.2666,0.6630,0.6766,0.4991,0.5800,-0.4181,
10.821605,0.1366,0.9491,0.3626,0.2666,0.6630,0.6766,0.4991,0.5800,-0.4181,
10.824505,0.1366,0.9491,0.3626,-0.1152,0.1961,0.2139,0.4991,0.5800,-0.4181,
10.826497,0.1366,0.9491,0.3626,-0.1152,0.1961,0.2139,0.5736,0.5774,-0.4447,
10.841102,0.1366,0.9491,0.3626,-0.1152,0.1961,0.2139,0.5071,0.5172,-0.3851,
10.861292,-0.0511,1.0170,0.2682,-0.1152,0.1961,0.2139,0.5071,0.5172,-0.3851,
10.864047,-0.0511,1.0170,0.2682,-1.3233,0.7037,-0.4829,0.5071,0.5172,-0.3851,
10.865997,-0.0511,1.0170,0.2682,-1.3233,0.7037,-0.4829,0.3878,0.4900,-0.0341,
10.880980,-0.0511,1.0170,0.2682,-1.3233,0.7037,-0.4829,0.2802,0.4330,0.3957,
10.901194,0.2128,0.8455,0.2983,-1.3233,0.7037,-0.4829,0.2802,0.4330,0.3957,
10.903475,0.2128,0.8455,0.2983,1.2313,-1.0084,-0.0847,0.2802,0.4330,0.3957,
10.905282,0.2128,0.8455,0.2983,1.2313,-1.0084,-0.0847,0.1459,0.1555,0.5923,
10.921199,0.2128,0.8455,0.2983,1.2313,-1.0084,-0.0847,0.0474,-0.0282,0.5204,
10.941320,0.1407,0.9091,0.3406,1.2313,-1.0084,-0.0847,0.0474,-0.0282,0.5204,
10.943800,0.1407,0.9091,0.3406,0.3142,-0.3719,0.3534,0.0474,-0.0282,0.5204,
10.945594,0.1407,0.9091,0.3406,0.3142,-0.3719,0.3534,0.1236,-0.1901,0.3009,
10.963228,0.1407,0.9091,0.3406,0.3142,-0.3719,0.3534,0.1747,-0.1443,0.2972,
10.981230,-0.0985,1.1478,0.2673,0.3142,-0.3719,0.3534,0.1747,-0.1443,0.2972,
10.983410,-0.0985,1.1478,0.2673,-2.1473,1.9609,-0.3001,0.1747,-0.1443,0.2972,
10.985293,-0.0985,1.1478,0.2673,-2.1473,1.9609,-0.3001,0.0921,-0.1300,0.5092,
11.001176,-0.0985,1.1478,0.2673,-2.1473,1.9609,-0.3001,-0.0666,-0.4075,0.6168,
11.021042,0.1808,0.9731,0.2897,-2.1473,1.9609,-0.3001,-0.0666,-0.4075,0.6168,
11.023909,0.1808,0.9731,0.2897,0.3601,0.2743,-0.0583,-0.0666,-0.4075,0.6168,
11.025489,0.1808,0.9731,0.2897,0.3601,0.2743,-0.0583,-0.2349,-0.5758,0.8229,
11.041479,0.1808,0.9731,0.2897,0.3601,0.2743,-0.0583,-0.4181,-0.5923,0.7920,
11.061338,0.3452,1.0505,0.3105,0.3601,0.2743,-0.0583,-0.4181,-0.5923,0.7920,
11.064833,0.3452,1.0505,0.3105,1.6052,1.1227,0.0636,-0.4181,-0.5923,0.7920,
11.066583,0.3452,1.0505,0.3105,1.6052,1.1227,0.0636,-0.4788,-0.4043,0.6519,
11.080798,0.3452,1.0505,0.3105,1.6052,1.1227,0.0636,-0.6732,-0.4352,0.4469,
11.101160,0.3481,0.9567,0.2998,1.6052,1.1227,0.0636,-0.6732,-0.4352,0.4469,
11.103216,0.3481,0.9567,0.2998,1.3775,0.3151,-0.2148,-0.6732,-0.4352,0.4469,
11.104963,0.3481,0.9567,0.2998,1.3775,0.3151,-0.2148,-0.9891,-0.4400,0.3617,
11.121205,0.3481,0.9567,0.2998,1.3775,0.3151,-0.2148,-1.3998,-0.5673,0.3206,
11.141455,0.3806,0.7038,0.3689,1.3775,0.3151,-0.2148,-1.3998,-0.5673,0.3206,
11.143707,0.3806,0.7038,0.3689,1.4760,-1.9695,0.0851,-1.3998,-0.5673,0.3206,
11.145507,0.3806,0.7038,0.3689,1.4760,-1.9695,0.0851,-1.7582,-0.7617,0.2525,
11.162755,0.3806,0.7038,0.3689,1.4760,-1.9695,0.0851,-1.9191,-0.9193,0.2732,
11.181176,0.3340,0.8109,0.4261,1.4760,-1.9695,0.0851,-1.9191,-0.9193,0.2732,
11.184481,0.3340,0.8109,0.4261,0.7750,-0.6141,0.0951,-1.9191,-0.9193,0.2732,
11.186885,0.3340,0.8109,0.4261,0.7750,-0.6141,0.0951,-1.7843,-0.4549,0.3180,
11.200768,0.3340,0.8109,0.4261,0.7750,-0.6141,0.0951,-1.7300,-0.0985,0.1949,
11.220911,0.3797,0.7197,0.5260,0.7750,-0.6141,0.0951,-1.7300,-0.0985,0.1949,
11.223357,0.3797,0.7197,0.5260,1.0649,-1.1699,0.5184,-1.7300,-0.0985,0.1949,
11.224913,0.3797,0.7197,0.5260,1.0649,-1.1699,0.5184,-1.6016,-0.0959,0.0272,
11.240284,0.3797,0.7197,0.5260,1.0649,-1.1699,0.5184,-1.3225,-0.0746,-0.0810,
11.261079,0.3567,0.6430,0.5717,1.0649,-1.1699,0.5184,-1.3225,-0.0746,-0.0810,
11.263880,0.3567,0.6430,0.5717,0.8132,-1.6333,0.5020,-1.3225,-0.0746,-0.0810,
11.265794,0.3567,0.6430,0.5717,0.8132,-1.6333,0.5020,-1.0258,-0.0985,-0.2429,
11.280363,0.3567,0.6430,0.5717,0.8132,-1.6333,0.5020,-0.5795,-0.1880,-0.2892,
11.300698,0.3450,0.6064,0.4901,0.8132,-1.6333,0.5020,-0.5795,-0.1880,-0.2892,
11.302990,0.3450,0.6064,0.4901,0.7492,-1.8522,-0.5348,-0.5795,-0.1880,-0.2892,
11.305107,0.3450,0.6064,0.4901,0.7492,-1.8522,-0.5348,-0.2445,-0.2434,-0.3388,
11.321152,0.3450,0.6064,0.4901,0.7492,-1.8522,-0.5348,-0.0863,-0.0921,-0.4245,
11.341410,0.1070,0.7168,0.2976,0.7492,-1.8522,-0.5348,-0.0863,-0.0921,-0.4245,
11.343753,0.1070,0.7168,0.2976,-1.4999,-0.7742,-2.4554,-0.0863,-0.0921,-0.4245,
11.345811,0.1070,0.7168,0.2976,-1.4999,-0.7742,-2.4554,-0.1342,0.0836,-0.4778,
11.362829,0.1070,0.7168,0.2976,-1.4999,-0.7742,-2.4554,-0.2035,0.0932,-0.3244,
11.381151,0.1798,0.6459,0.3560,-1.4999,-0.7742,-2.4554,-0.2035,0.0932,-0.3244,
11.383648,0.1798,0.6459,0.3560,-0.6423,-1.4718,-1.9446,-0.2035,0.0932,-0.3244,
11.385575,0.1798,0.6459,0.3560,-0.6423,-1.4718,-1.9446,-0.1779,0.1273,-0.2264,
11.400956,0.1798,0.6459,0.3560,-0.6423,-1.4718,-1.9446,-0.0650,0.1278,-0.1933,
11.420754,0.3371,0.7471,0.4659,-0.6423,-1.4718,-1.9446,-0.0650,0.1278,-0.1933,
11.423229,0.3371,0.7471,0.4659,0.9927,-0.4739,-0.9170,-0.0650,0.1278,-0.1933,
11.425100,0.3371,0.7471,0.4659,0.9927,-0.4739,-0.9170,-0.0357,0.1401,-0.2221,
11.440796,0.3371,0.7471,0.4659,0.9927,-0.4739,-0.9170,0.0256,0.2344,-0.2956,
11.460332,0.3196,0.8363,0.6271,0.9927,-0.4739,-0.9170,0.0256,0.2344,-0.2956,
11.462788,0.3196,0.8363,0.6271,0.1670,0.4258,0.9483,0.0256,0.2344,-0.2956,
11.464353,0.3196,0.8363,0.6271,0.1670,0.4258,0.9483,0.3249,0.3036,-0.3409,
11.481383,0.3196,0.8363,0.6271,0.1670,0.4258,0.9483,0.7201,0.3569,-0.4368,
11.500581,0.1925,0.8455,0.6137,0.1670,0.4258,0.9483,0.7201,0.3569,-0.4368,
11.503438,0.1925,0.8455,0.6137,-0.8748,0.3691,0.9287,0.7201,0.3569,-0.4368,
11.505740,0.1925,0.8455,0.6137,-0.8748,0.3691,0.9287,1.0812,0.4011,-0.4708,
11.520519,0.1925,0.8455,0.6137,-0.8748,0.3691,0.9287,1.2964,0.3047,-0.4613,
11.540498,0.1918,0.8990,0.5101,-0.8748,0.3691,0.9287,1.2964,0.3047,-0.4613,
11.543507,0.1918,0.8990,0.5101,-0.6503,0.6143,0.2462,1.2964,0.3047,-0.4613,
11.545541,0.1918,0.8990,0.5101,-0.6503,0.6143,0.2462,1.3561,0.1784,-0.4783,
11.561297,0.1918,0.8990,0.5101,-0.6503,0.6143,0.2462,1.2900,0.0607,-0.4980,
11.579965,0.2221,0.8905,0.4275,-0.6503,0.6143,0.2462,1.2900,0.0607,-0.4980,
11.582927,0.2221,0.8905,0.4275,-0.1624,0.2482,-0.1475,1.2900,0.0607,-0.4980,
11.585349,0.2221,0.8905,0.4275,-0.1624,0.2482,-0.1475,1.1569,-0.0383,-0.4794,
11.599723,0.2221,0.8905,0.4275,-0.1624,0.2482,-0.1475,1.1276,-0.1081,-0.3563,
11.620312,0.2861,0.9313,0.3340,-0.1624,0.2482,-0.1475,1.1276,-0.1081,-0.3563,
11.623240,0.2861,0.9313,0.3340,0.5910,0.4241,-0.6691,1.1276,-0.1081,-0.3563,
11.625045,0.2861,0.9313,0.3340,0.5910,0.4241,-0.6691,1.1217,0.0234,-0.3009,
11.640418,0.2861,0.9313,0.3340,0.5910,0.4241,-0.6691,1.0067,0.3393,-0.4378,
11.660578,0.2118,0.9359,0.2763,0.5910,0.4241,-0.6691,1.0067,0.3393,-0.4378,
11.663007,0.2118,0.9359,0.2763,0.0141,0.2787,-0.8734,1.0067,0.3393,-0.4378,
11.664378,0.2118,0.9359,0.2763,0.0141,0.2787,-0.8734,0.8602,0.5332,-0.5763,
11.681183,0.2118,0.9359,0.2763,0.0141,0.2787,-0.8734,0.7238,0.6232,-0.6253,
11.700826,0.0975,0.9775,0.3183,0.0141,0.2787,-0.8734,0.7238,0.6232,-0.6253,
11.702878,0.0975,0.9775,0.3183,-0.8106,0.5300,-0.2216,0.7238,0.6232,-0.6253,
11.704591,0.0975,0.9775,0.3183,-0.8106,0.5300,-0.2216,0.5838,0.5960,-0.5795,
11.720223,0.0975,0.9775,0.3183,-0.8106,0.5300,-0.2216,0.4309,0.4964,-0.5092,
11.740381,-0.0093,1.1172,0.3960,-0.8106,0.5300,-0.2216,0.4309,0.4964,-0.5092,
11.743312,-0.0093,1.1172,0.3960,-1.5835,1.7974,0.6877,0.4309,0.4964,-0.5092,
11.744979,-0.0093,1.1172,0.3960,-1.5835,1.7974,0.6877,0.3723,0.3531,-0.3057,
11.764453,-0.0093,1.1172,0.3960,-1.5835,1.7974,0.6877,0.2743,0.4027,-0.0037,
11.780364,0.0704,0.9958,0.4288,-1.5835,1.7974,0.6877,0.2743,0.4027,-0.0037,
11.782582,0.0704,0.9958,0.4288,-0.6949,0.5583,1.1025,0.2743,0.4027,-0.0037,
11.784141,0.0704,0.9958,0.4288,-0.6949,0.5583,1.1025,0.2674,0.4117,0.3233,
11.799923,0.0704,0.9958,0.4288,-0.6949,0.5583,1.1025,0.3377,0.4027,0.4160,
11.820468,0.2475,0.7603,0.3125,-0.6949,0.5583,1.1025,0.3377,0.4027,0.4160,
11.822641,0.2475,0.7603,0.3125,0.9522,-1.7591,0.0324,0.3377,0.4027,0.4160,
11.824330,0.2475,0.7603,0.3125,0.9522,-1.7591,0.0324,0.3174,0.2903,0.5204,
11.840327,0.2475,0.7603,0.3125,0.9522,-1.7591,0.0324,0.1150,0.0985,0.4586,
11.860261,0.1876,0.8944,0.2722,0.9522,-1.7591,0.0324,0.1150,0.0985,0.4586,
11.863217,0.1876,0.8944,0.2722,0.2067,-0.4375,-0.3024,0.1150,0.0985,0.4586,
11.865016,0.1876,0.8944,0.2722,0.2067,-0.4375,-0.3024,-0.0240,-0.0442,0.2088,
11.880739,0.1876,0.8944,0.2722,0.2067,-0.4375,-0.3024,-0.0208,-0.0916,0.2120,
11.899889,-0.1226,1.1311,0.2836,0.2067,-0.4375,-0.3024,-0.0208,-0.0916,0.2120,
11.902309,-0.1226,1.1311,0.2836,-2.8903,1.8932,-0.1916,-0.0208,-0.0916,0.2120,
11.904153,-0.1226,1.1311,0.2836,-2.8903,1.8932,-0.1916,-0.1374,-0.3063,0.4053,
11.920696,-0.1226,1.1311,0.2836,-2.8903,1.8932,-0.1916,-0.3105,-0.5561,0.5779,
11.940338,0.1375,0.8270,0.3836,-2.8903,1.8932,-0.1916,-0.3105,-0.5561,0.5779,
11.942922,0.1375,0.8270,0.3836,-0.5342,-1.0290,0.7242,-0.3105,-0.5561,0.5779,
11.944630,0.1375,0.8270,0.3836,-0.5342,-1.0290,0.7242,-0.3878,-0.7196,0.6477,
11.962645,0.1375,0.8270,0.3836,-0.5342,-1.0290,0.7242,-0.3563,-0.7356,0.7164,
11.979775,0.2069,1.1568,0.3476,-0.5342,-1.0290,0.7242,-0.3563,-0.7356,0.7164,
11.982708,0.2069,1.1568,0.3476,-0.1867,2.3037,0.2968,-0.3563,-0.7356,0.7164,
11.984440,0.2069,1.1568,0.3476,-0.1867,2.3037,0.2968,-0.4671,-0.7127,0.7233,
12.000374,0.2069,1.1568,0.3476,-0.1867,2.3037,0.2968,-0.7025,-0.6141,0.6871,
12.019948,0.4085,1.0026,0.3672,-0.1867,2.3037,0.2968,-0.7025,-0.6141,0.6871,
12.023190,0.4085,1.0026,0.3672,1.4519,0.9344,0.3420,-0.7025,-0.6141,0.6871,
12.024573,0.4085,1.0026,0.3672,1.4519,0.9344,0.3420,-0.9385,-0.4314,0.6786,
12.040189,0.4085,1.0026,0.3672,1.4519,0.9344,0.3420,-1.1888,-0.4522,0.4421,
12.060311,0.3408,0.7038,0.3577,1.4519,0.9344,0.3420,-1.1888,-0.4522,0.4421,
12.062267,0.3408,0.7038,0.3577,0.5309,-1.7887,-0.0763,-1.1888,-0.4522,0.4421,
12.064056,0.3408,0.7038,0.3577,0.5309,-1.7887,-0.0763,-1.4743,-0.6141,0.1987,
12.080322,0.3408,0.7038,0.3577,0.5309,-1.7887,-0.0763,-1.6421,-0.6434,0.2189,
12.100159,0.2553,0.7886,0.3643,0.5309,-1.7887,-0.0763,-1.6421,-0.6434,0.2189,
12.102450,0.2553,0.7886,0.3643,-0.4710,-0.7013,-0.4640,-1.6421,-0.6434,0.2189,
12.104368,0.2553,0.7886,0.3643,-0.4710,-0.7013,-0.4640,-1.6911,-0.3989,0.2503,
12.119654,0.2553,0.7886,0.3643,-0.4710,-0.7013,-0.4640,-1.6980,-0.2242,0.2455,
12.139324,0.3643,0.7813,0.5235,-0.4710,-0.7013,-0.4640,-1.6980,-0.2242,0.2455,
12.141863,0.3643,0.7813,0.5235,0.4608,-0.4547,0.5799,-1.6980,-0.2242,0.2455,
12.143515,0.3643,0.7813,0.5235,0.4608,-0.4547,0.5799,-1.5761,-0.2131,0.1438,
12.159155,0.3643,0.7813,0.5235,0.4608,-0.4547,0.5799,-1.2682,-0.3148,-0.0506,
12.179882,0.3621,0.6113,0.5836,0.4608,-0.4547,0.5799,-1.2682,-0.3148,-0.0506,
12.182184,0.3621,0.6113,0.5836,0.3684,-1.8405,0.7460,-1.2682,-0.3148,-0.0506,
12.183854,0.3621,0.6113,0.5836,0.3684,-1.8405,0.7460,-0.9337,-0.3265,-0.1955,
12.199402,0.3621,0.6113,0.5836,0.3684,-1.8405,0.7460,-0.4698,-0.3702,-0.3068,
12.219389,0.2851,0.6352,0.4744,0.3684,-1.8405,0.7460,-0.4698,-0.3702,-0.3068,
12.221931,0.2851,0.6352,0.4744,-0.3786,-1.4958,-0.4978,-0.4698,-0.3702,-0.3068,
12.223960,0.2851,0.6352,0.4744,-0.3786,-1.4958,-0.4978,-0.1907,-0.2647,-0.3004,
12.239709,0.2851,0.6352,0.4744,-0.3786,-1.4958,-0.4978,-0.0506,-0.0884,-0.3478,
12.259514,0.0684,0.7378,0.3112,-0.3786,-1.4958,-0.4978,-0.0506,-0.0884,-0.3478,
12.262405,0.0684,0.7378,0.3112,-2.4386,-0.5061,-2.1121,-0.0506,-0.0884,-0.3478,
12.264224,0.0684,0.7378,0.3112,-2.4386,-0.5061,-2.1121,-0.0250,0.1949,-0.3862,
12.279232,0.0684,0.7378,0.3112,-2.4386,-0.5061,-2.1121,-0.1268,0.3041,-0.2168,
12.299284,0.1449,0.6753,0.3745,-2.4386,-0.5061,-2.1121,-0.1268,0.3041,-0.2168,
12.302588,0.1449,0.6753,0.3745,-1.5442,-1.1399,-1.5457,-0.1268,0.3041,-0.2168,
12.304792,0.1449,0.6753,0.3745,-1.5442,-1.1399,-1.5457,-0.1768,0.4080,-0.1454,
12.319619,0.1449,0.6753,0.3745,-1.5442,-1.1399,-1.5457,-0.1348,0.4591,-0.0501,
12.339784,0.3293,0.7762,0.4869,-1.5442,-1.1399,-1.5457,-0.1348,0.4591,-0.0501,
12.343190,0.3293,0.7762,0.4869,0.3849,-0.1298,-0.5428,-0.1348,0.4591,-0.0501,
12.345600,0.3293,0.7762,0.4869,0.3849,-0.1298,-0.5428,-0.1678,0.3808,-0.0016,
12.363267,0.3293,0.7762,0.4869,0.3849,-0.1298,-0.5428,-0.0964,0.2482,-0.0629,
12.379869,0.3931,0.7412,0.6032,0.3849,-0.1298,-0.5428,-0.0964,0.2482,-0.0629,
12.382175,0.3931,0.7412,0.6032,0.7039,-0.3755,0.6296,-0.0964,0.2482,-0.0629,
12.383873,0.3931,0.7412,0.6032,0.7039,-0.3755,0.6296,0.1870,0.2269,-0.2264,
12.399333,0.3931,0.7412,0.6032,0.7039,-0.3755,0.6296,0.5060,0.3148,-0.3904,
12.419172,0.2338,0.8710,0.6149,0.7039,-0.3755,0.6296,0.5060,0.3148,-0.3904,
12.421418,0.2338,0.8710,0.6149,-0.6941,0.7858,0.8106,0.5060,0.3148,-0.3904,
12.423057,0.2338,0.8710,0.6149,-0.6941,0.7858,0.8106,0.7760,0.4218,-0.4804,
12.439600,0.2338,0.8710,0.6149,-0.6941,0.7858,0.8106,1.0695,0.5156,-0.5252,
12.459184,0.1520,0.8570,0.5504,-0.6941,0.7858,0.8106,1.0695,0.5156,-0.5252,
12.462125,0.1520,0.8570,0.5504,-1.2228,0.4052,0.4024,1.0695,0.5156,-0.5252,
12.463558,0.1520,0.8570,0.5504,-1.2228,0.4052,0.4024,1.3806,0.4922,-0.5465,
12.479429,0.1520,0.8570,0.5504,-1.2228,0.4052,0.4024,1.5303,0.4506,-0.5800,
12.499131,0.1764,0.8218,0.3799,-1.2228,0.4052,0.4024,1.5303,0.4506,-0.5800,
12.501175,0.1764,0.8218,0.3799,-0.6985,-0.2745,-0.8502,1.5303,0.4506,-0.5800,
12.502823,0.1764,0.8218,0.3799,-0.6985,-0.2745,-0.8502,1.5143,0.4011,-0.6216,
12.519268,0.1764,0.8218,0.3799,-0.6985,-0.2745,-0.8502,1.4418,0.3579,-0.5896,
12.539287,0.1774,1.0051,0.2900,-0.6985,-0.2745,-0.8502,1.4418,0.3579,-0.5896,
12.542292,0.1774,1.0051,0.2900,-0.4069,1.2026,-1.2564,1.4418,0.3579,-0.5896,
12.544375,0.1774,1.0051,0.2900,-0.4069,1.2026,-1.2564,1.2831,0.2780,-0.5167,
12.562231,0.1774,1.0051,0.2900,-0.4069,1.2026,-1.2564,1.0243,0.2541,-0.4634,
12.578986,0.1713,1.0811,0.3164,-0.4069,1.2026,-1.2564,1.0243,0.2541,-0.4634,
12.581374,0.1713,1.0811,0.3164,-0.2499,1.7239,-0.6100,1.0243,0.2541,-0.4634,
12.583143,0.1713,1.0811,0.3164,-0.2499,1.7239,-0.6100,0.7537,0.3750,-0.4671,
12.600048,0.1713,1.0811,0.3164,-0.2499,1.7239,-0.6100,0.5923,0.5673,-0.4799,
12.618782,0.1031,1.0283,0.4483,-0.2499,1.7239,-0.6100,0.5923,0.5673,-0.4799,
12.622188,0.1031,1.0283,0.4483,-0.6793,1.0754,0.8886,0.5923,0.5673,-0.4799,
12.624203,0.1031,1.0283,0.4483,-0.6793,1.0754,0.8886,0.5257,0.6551,-0.3755,
12.639257,0.1031,1.0283,0.4483,-0.6793,1.0754,0.8886,0.5081,0.7292,-0.2956,
12.658980,0.0814,0.9951,0.4615,-0.6793,1.0754,0.8886,0.5081,0.7292,-0.2956,
12.661655,0.0814,0.9951,0.4615,-0.6748,0.6581,1.1594,0.5081,0.7292,-0.2956,
12.663205,0.0814,0.9951,0.4615,-0.6748,0.6581,1.1594,0.5188,0.6173,-0.2855,
12.679065,0.0814,0.9951,0.4615,-0.6748,0.6581,1.1594,0.5151,0.5055,-0.2839,
12.699931,-0.0831,1.0046,0.3130,-0.6748,0.6581,1.1594,0.5151,0.5055,-0.2839,
12.702220,-0.0831,1.0046,0.3130,-1.4974,0.6596,-0.2994,0.5151,0.5055,-0.2839,
12.704105,-0.0831,1.0046,0.3130,-1.4974,0.6596,-0.2994,0.5028,0.3760,0.0879,
12.718796,-0.0831,1.0046,0.3130,-1.4974,0.6596,-0.2994,0.3446,0.3707,0.4139,
12.739118,0.1994,0.7671,0.2773,-1.4974,0.6596,-0.2994,0.3446,0.3707,0.4139,
12.742302,0.1994,0.7671,0.2773,1.2181,-1.7140,-0.5079,0.3446,0.3707,0.4139,
12.744538,0.1994,0.7671,0.2773,1.2181,-1.7140,-0.5079,0.1651,0.0916,0.5902,
12.762719,0.1994,0.7671,0.2773,1.2181,-1.7140,-0.5079,0.0032,-0.0192,0.6216,
12.778928,0.1160,0.8622,0.3174,1.2181,-1.7140,-0.5079,0.0032,-0.0192,0.6216,
12.781309,0.1160,0.8622,0.3174,0.1803,-0.7718,-0.0882,0.0032,-0.0192,0.6216,
12.783105,0.1160,0.8622,0.3174,0.1803,-0.7718,-0.0882,0.0437,-0.2455,0.4176,
12.799637,0.1160,0.8622,0.3174,0.1803,-0.7718,-0.0882,0.0879,-0.3675,0.3739,
12.818539,-0.1752,1.0872,0.2507,0.1803,-0.7718,-0.0882,0.0879,-0.3675,0.3739,
12.821361,-0.1752,1.0872,0.2507,-2.8149,1.4328,-0.6947,0.0879,-0.3675,0.3739,
12.823115,-0.1752,1.0872,0.2507,-2.8149,1.4328,-0.6947,0.0037,-0.3547,0.5907,
12.839258,-0.1752,1.0872,0.2507,-2.8149,1.4328,-0.6947,-0.1427,-0.4730,0.7867,
12.859469,0.1182,0.9374,0.3283,-2.8149,1.4328,-0.6947,-0.1427,-0.4730,0.7867,
12.861647,0.1182,0.9374,0.3283,-0.2079,0.0011,0.0667,-0.1427,-0.4730,0.7867,
12.863298,0.1182,0.9374,0.3283,-0.2079,0.0011,0.0667,-0.2285,-0.6823,0.8384,
12.879345,0.1182,0.9374,0.3283,-0.2079,0.0011,0.0667,-0.2626,-0.7361,0.8389,
12.899583,0.1722,1.1517,0.2910,-0.2079,0.0011,0.0667,-0.2626,-0.7361,0.8389,
12.901866,0.1722,1.1517,0.2910,-0.0705,2.1826,-0.3424,-0.2626,-0.7361,0.8389,
12.903683,0.1722,1.1517,0.2910,-0.0705,2.1826,-0.3424,-0.3404,-0.4756,0.8719,
12.918356,0.1722,1.1517,0.2910,-0.0705,2.1826,-0.3424,-0.6072,-0.4772,0.7920,
12.938749,0.3564,1.0706,0.3684,-0.0705,2.1826,-0.3424,-0.6072,-0.4772,0.7920,
12.940623,0.3564,1.0706,0.3684,1.3722,1.5138,0.2825,-0.6072,-0.4772,0.7920,
12.941898,0.3564,1.0706,0.3684,1.3722,1.5138,0.2825,-0.9934,-0.7803,0.8389,
12.961571,0.3564,1.0706,0.3684,1.3722,1.5138,0.2825,-1.4695,-1.0908,0.7276,
12.978365,0.5360,0.6342,0.5099,1.3722,1.5138,0.2825,-1.4695,-1.0908,0.7276,
12.980381,0.5360,0.6342,0.5099,2.6986,-2.5071,1.3137,-1.4695,-1.0908,0.7276,
12.982139,0.5360,0.6342,0.5099,2.6986,-2.5071,1.3137,-1.8056,-1.3715,0.4266,
12.998886,0.5360,0.6342,0.5099,2.6986,-2.5071,1.3137,-1.8370,-1.3875,0.2003,
13.018104,0.3564,0.7652,0.4131,2.6986,-2.5071,1.3137,-1.8370,-1.3875,0.2003,
13.020500,0.3564,0.7652,0.4131,0.5932,-0.8986,-0.1044,-1.8370,-1.3875,0.2003,
13.022051,0.3564,0.7652,0.4131,0.5932,-0.8986,-0.1044,-1.5952,-1.0125,0.1241,
13.038958,0.3564,0.7652,0.4131,0.5932,-0.8986,-0.1044,-1.4280,-0.3819,0.0889,
13.058475,0.3156,0.7581,0.3408,0.5932,-0.8986,-0.1044,-1.4280,-0.3819,0.0889,
13.061353,0.3156,0.7581,0.3408,0.0300,-0.6953,-1.2185,-1.4280,-0.3819,0.0889,
13.063243,0.3156,0.7581,0.3408,0.0300,-0.6953,-1.2185,-1.5835,0.0005,-0.0565,
13.078253,0.3156,0.7581,0.3408,0.0300,-0.6953,-1.2185,-1.4802,0.2844,-0.2024,
13.099081,0.2348,0.6574,0.4962,0.0300,-0.6953,-1.2185,-1.4802,0.2844,-0.2024,
13.101462,0.2348,0.6574,0.4962,-0.6934,-1.4033,-0.2013,-1.4802,0.2844,-0.2024,
13.103319,0.2348,0.6574,0.4962,-0.6934,-1.4033,-0.2013,-1.1830,0.1193,-0.2434,
13.118872,0.2348,0.6574,0.4962,-0.6934,-1.4033,-0.2013,-0.7734,-0.2866,-0.2242,
13.138646,0.3029,0.4588,0.5240,-0.6934,-1.4033,-0.2013,-0.7734,-0.2866,-0.2242,
13.141296,0.3029,0.4588,0.5240,0.0288,-3.1736,-0.2217,-0.7734,-0.2866,-0.2242,
13.143123,0.3029,0.4588,0.5240,0.0288,-3.1736,-0.2217,-0.4501,-0.2402,-0.2605,
13.161595,0.3029,0.4588,0.5240,0.0288,-3.1736,-0.2217,-0.2274,-0.0985,-0.2834,
13.179061,0.1764,0.7703,0.3691,0.0288,-3.1736,-0.2217,-0.2274,-0.0985,-0.2834,
13.183379,0.1764,0.7703,0.3691,-1.1648,-0.0796,-1.8233,-0.2274,-0.0985,-0.2834,
13.185627,0.1764,0.7703,0.3691,-1.1648,-0.0796,-1.8233,-0.2115,0.0043,-0.3238,
13.198512,0.1764,0.7703,0.3691,-1.1648,-0.0796,-1.8233,-0.2743,0.1688,-0.3063,
13.218694,0.1986,0.7561,0.4280,-1.1648,-0.0796,-1.8233,-0.2743,0.1688,-0.3063,
13.221293,0.1986,0.7561,0.4280,-0.8321,-0.2011,-1.3299,-0.2743,0.1688,-0.3063,
13.223212,0.1986,0.7561,0.4280,-0.8321,-0.2011,-1.3299,-0.1603,0.2791,-0.2178,
13.238252,0.1986,0.7561,0.4280,-0.8321,-0.2011,-1.3299,-0.0639,0.3675,-0.1891,
13.258407,0.2751,0.7671,0.5213,-0.8321,-0.2011,-1.3299,-0.0639,0.3675,-0.1891,
13.262133,0.2751,0.7671,0.5213,0.0509,-0.0915,-0.4830,-0.0639,0.3675,-0.1891,
13.263621,0.2751,0.7671,0.5213,0.0509,-0.0915,-0.4830,-0.0394,0.3563,-0.1955,
13.278472,0.2751,0.7671,0.5213,0.0509,-0.0915,-0.4830,0.0746,0.3254,-0.1683,
13.298946,0.3171,0.7266,0.5389,0.0509,-0.0915,-0.4830,0.0746,0.3254,-0.1683,
13.301353,0.3171,0.7266,0.5389,0.5899,-0.5130,-0.3365,0.0746,0.3254,-0.1683,
13.303103,0.3171,0.7266,0.5389,0.5899,-0.5130,-0.3365,0.2626,0.4101,-0.2562,
13.318002,0.3171,0.7266,0.5389,0.5899,-0.5130,-0.3365,0.4740,0.4463,-0.3441,
13.338195,0.2460,0.8121,0.5585,0.5899,-0.5130,-0.3365,0.4740,0.4463,-0.3441,
13.340934,0.2460,0.8121,0.5585,0.0718,0.2125,-0.0677,0.4740,0.4463,-0.3441,
13.342500,0.2460,0.8121,0.5585,0.0718,0.2125,-0.0677,0.7324,0.4602,-0.4256,
13.362215,0.2460,0.8121,0.5585,0.0718,0.2125,-0.0677,0.9987,0.5465,-0.4645,
13.378167,0.1825,0.8091,0.5016,0.0718,0.2125,-0.0677,0.9987,0.5465,-0.4645,
13.380338,0.1825,0.8091,0.5016,-0.3062,-0.0433,-0.3966,0.9987,0.5465,-0.4645,
13.382304,0.1825,0.8091,0.5016,-0.3062,-0.0433,-0.3966,1.2112,0.5747,-0.5225,
13.398391,0.1825,0.8091,0.5016,-0.3062,-0.0433,-0.3966,1.4338,0.5028,-0.5832,
13.417869,0.2091,0.8644,0.3911,-0.3062,-0.0433,-0.3966,1.4338,0.5028,-0.5832,
13.420865,0.2091,0.8644,0.3911,0.2335,0.1832,-1.0853,1.4338,0.5028,-0.5832,
13.422207,0.2091,0.8644,0.3911,0.2335,0.1832,-1.0853,1.5990,0.3164,-0.5960,
13.438931,0.2091,0.8644,0.3911,0.2335,0.1832,-1.0853,1.5308,0.0543,-0.5007,
13.458236,0.2311,1.1043,0.3362,0.2335,0.1832,-1.0853,1.5308,0.0543,-0.5007,
13.461704,0.2311,1.1043,0.3362,0.6590,2.2014,-1.0966,1.5308,0.0543,-0.5007,
13.463211,0.2311,1.1043,0.3362,0.6590,2.2014,-1.0966,1.2091,-0.0714,-0.4202,
13.477804,0.2311,1.1043,0.3362,0.6590,2.2014,-1.0966,0.7910,0.0197,-0.3888,
13.498226,0.1935,1.1509,0.5299,0.6590,2.2014,-1.0966,0.7910,0.0197,-0.3888,
13.500385,0.1935,1.1509,0.5299,0.4268,2.4654,1.1520,0.7910,0.0197,-0.3888,
13.502289,0.1935,1.1509,0.5299,0.4268,2.4654,1.1520,0.5683,0.1449,-0.3654,
13.517924,0.1935,1.1509,0.5299,0.4268,2.4654,1.1520,0.5220,0.2349,-0.2732,
13.537934,0.1471,0.9562,0.5722,0.4268,2.4654,1.1520,0.5220,0.2349,-0.2732,
13.540808,0.1471,0.9562,0.5722,0.1148,0.4533,1.7487,0.5220,0.2349,-0.2732,
13.542436,0.1471,0.9562,0.5722,0.1148,0.4533,1.7487,0.6338,0.3595,-0.2077,
13.558721,0.1471,0.9562,0.5722,0.1148,0.4533,1.7487,0.7856,0.3579,-0.1646,
13.578169,0.1498,0.8468,0.3357,0.1148,0.4533,1.7487,0.7856,0.3579,-0.1646,
13.580024,0.1498,0.8468,0.3357,0.2528,-0.7293,-0.3431,0.7856,0.3579,-0.1646,
13.581890,0.1498,0.8468,0.3357,0.2528,-0.7293,-0.3431,0.8575,0.3563,-0.1822,
13.597763,0.1498,0.8468,0.3357,0.2528,-0.7293,-0.3431,0.6828,0.3270,-0.2051,
13.617749,0.0095,0.9191,0.1373,0.2528,-0.7293,-0.3431,0.6828,0.3270,-0.2051,
13.621206,0.0095,0.9191,0.1373,-1.0005,-0.1412,-2.0136,0.6828,0.3270,-0.2051,
13.623401,0.0095,0.9191,0.1373,-1.0005,-0.1412,-2.0136,0.4037,0.3718,0.0405,
13.637417,0.0095,0.9191,0.1373,-1.0005,-0.1412,-2.0136,0.1955,0.2653,0.3957,
13.658465,0.0821,0.9225,0.2328,-1.0005,-0.1412,-2.0136,0.1955,0.2653,0.3957,
13.662546,0.0821,0.9225,0.2328,-0.3219,-0.1431,-0.9684,0.1955,0.2653,0.3957,
13.664632,0.0821,0.9225,0.2328,-0.3219,-0.1431,-0.9684,0.1113,-0.0245,0.6104,
13.677408,0.0821,0.9225,0.2328,-0.3219,-0.1431,-0.9684,-0.0218,-0.2269,0.6903,
13.698177,0.0716,0.9345,0.3440,-0.3219,-0.1431,-0.9684,-0.0218,-0.2269,0.6903,
13.700621,0.0716,0.9345,0.3440,-0.6618,-0.0037,0.1496,-0.0218,-0.2269,0.6903,
13.702602,0.0716,0.9345,0.3440,-0.6618,-0.0037,0.1496,-0.0485,-0.3238,0.5689,
13.717870,0.0716,0.9345,0.3440,-0.6618,-0.0037,0.1496,-0.0447,-0.3888,0.6924,
13.737361,-0.0936,1.2477,0.3501,-0.6618,-0.0037,0.1496,-0.0447,-0.3888,0.6924,
13.740013,-0.0936,1.2477,0.3501,-2.5564,3.1094,0.2138,-0.0447,-0.3888,0.6924,
13.741835,-0.0936,1.2477,0.3501,-2.5564,3.1094,0.2138,-0.2674,-0.6967,0.8538,
13.757678,-0.0936,1.2477,0.3501,-2.5564,3.1094,0.2138,-0.4256,-0.8735,0.9342,
13.778177,0.3447,0.7837,0.4630,-2.5564,3.1094,0.2138,-0.4256,-0.8735,0.9342,
13.780220,0.3447,0.7837,0.4630,1.3302,-1.3262,1.2424,-0.4256,-0.8735,0.9342,
13.782044,0.3447,0.7837,0.4630,1.3302,-1.3262,1.2424,-0.4506,-0.8964,0.9033,
13.797236,0.3447,0.7837,0.4630,1.3302,-1.3262,1.2424,-0.3957,-0.7398,0.8043,
13.816947,0.3630,1.1419,0.3704,1.3302,-1.3262,1.2424,-0.3957,-0.7398,0.8043,
13.819692,0.3630,1.1419,0.3704,1.0959,2.3171,0.2574,-0.3957,-0.7398,0.8043,
13.821554,0.3630,1.1419,0.3704,1.0959,2.3171,0.2574,-0.4043,-0.7478,0.6109,
13.836953,0.3630,1.1419,0.3704,1.0959,2.3171,0.2574,-0.7233,-0.6935,0.3888,
13.857690,0.4332,0.6775,0.3125,1.0959,2.3171,0.2574,-0.7233,-0.6935,0.3888,
13.860508,0.4332,0.6775,0.3125,1.4906,-2.1006,-0.4308,-0.7233,-0.6935,0.3888,
13.862640,0.4332,0.6775,0.3125,1.4906,-2.1006,-0.4308,-1.1340,-0.8884,0.1981,
13.877445,0.4332,0.6775,0.3125,1.4906,-2.1006,-0.4308,-1.3380,-1.0067,0.1939,
13.897424,0.2846,0.8184,0.2932,1.4906,-2.1006,-0.4308,-1.3380,-1.0067,0.1939,
13.899561,0.2846,0.8184,0.2932,-0.1753,-0.5204,-0.9261,-1.3380,-1.0067,0.1939,
13.901482,0.2846,0.8184,0.2932,-0.1753,-0.5204,-0.9261,-1.4892,-1.0509,0.2434,
13.917354,0.2846,0.8184,0.2932,-0.1753,-0.5204,-0.9261,-1.5510,-0.4890,0.2136,
13.937034,0.3122,0.8123,0.3887,-0.1753,-0.5204,-0.9261,-1.5510,-0.4890,0.2136,
13.939350,0.3122,0.8123,0.3887,-0.1036,-0.3162,-0.3927,-1.5510,-0.4890,0.2136,
13.941278,0.3122,0.8123,0.3887,-0.1036,-0.3162,-0.3927,-1.5809,-0.1220,0.1294,
13.957305,0.3122,0.8123,0.3887,-0.1036,-0.3162,-0.3927,-1.5350,0.0107,-0.0027,
13.977371,0.3767,0.7385,0.5729,-0.1036,-0.3162,-0.3927,-1.5350,0.0107,-0.0027,
13.979694,0.3767,0.7385,0.5729,0.4927,-0.7547,0.9179,-1.5350,0.0107,-0.0027,
13.981531,0.3767,0.7385,0.5729,0.4927,-0.7547,0.9179,-1.3827,-0.1113,-0.0969,
13.997729,0.3767,0.7385,0.5729,0.4927,-0.7547,0.9179,-1.0317,-0.3665,-0.2248,
14.017138,0.3826,0.5663,0.5590,0.4927,-0.7547,0.9179,-1.0317,-0.3665,-0.2248,
14.019849,0.3826,0.5663,0.5590,0.5475,-2.2241,0.4295,-1.0317,-0.3665,-0.2248,
14.021448,0.3826,0.5663,0.5590,0.5475,-2.2241,0.4295,-0.5433,-0.2759,-0.2748,
14.037128,0.3826,0.5663,0.5590,0.5475,-2.2241,0.4295,-0.2051,-0.1555,-0.3649,
14.057108,0.2084,0.5714,0.2538,0.5475,-2.2241,0.4295,-0.2051,-0.1555,-0.3649,
14.059643,0.2084,0.5714,0.2538,-1.1046,-2.1382,-2.6493,-0.2051,-0.1555,-0.3649,
14.061523,0.2084,0.5714,0.2538,-1.1046,-2.1382,-2.6493,-0.1481,0.1917,-0.4623,
14.078388,0.2084,0.5714,0.2538,-1.1046,-2.1382,-2.6493,-0.2818,0.3393,-0.4192,
14.097232,0.1121,0.7026,0.3220,-1.1046,-2.1382,-2.6493,-0.2818,0.3393,-0.4192,
14.099682,0.1121,0.7026,0.3220,-1.8565,-0.8618,-2.0800,-0.2818,0.3393,-0.4192,
14.101665,0.1121,0.7026,0.3220,-1.8565,-0.8618,-2.0800,-0.3776,0.3542,-0.2940,
14.116886,0.1121,0.7026,0.3220,-1.8565,-0.8618,-2.0800,-0.3169,0.2093,-0.2125,
14.136971,0.3198,0.7578,0.5646,-1.8565,-0.8618,-2.0800,-0.3169,0.2093,-0.2125,
14.139259,0.3198,0.7578,0.5646,0.3165,-0.2763,0.1577,-0.3169,0.2093,-0.2125,
14.140915,0.3198,0.7578,0.5646,0.3165,-0.2763,0.1577,-0.1470,0.1667,-0.2328,
14.157051,0.3198,0.7578,0.5646,0.3165,-0.2763,0.1577,0.1257,0.1566,-0.2871,
14.176627,0.3924,0.8292,0.6276,0.3165,-0.2763,0.1577,0.1257,0.1566,-0.2871,
14.179359,0.3924,0.8292,0.6276,1.1277,0.3993,0.7576,0.1257,0.1566,-0.2871,
14.181203,0.3924,0.8292,0.6276,1.1277,0.3993,0.7576,0.4378,0.2045,-0.3318,
14.196621,0.3924,0.8292,0.6276,1.1277,0.3993,0.7576,0.7894,0.3079,-0.3510,
14.216922,0.2585,0.7742,0.5592,1.1277,0.3993,0.7576,0.7894,0.3079,-0.3510,
14.219382,0.2585,0.7742,0.5592,-0.0352,-0.2981,0.2462,0.7894,0.3079,-0.3510,
14.220991,0.2585,0.7742,0.5592,-0.0352,-0.2981,0.2462,1.1249,0.4293,-0.3776,
14.236946,0.2585,0.7742,0.5592,-0.0352,-0.2981,0.2462,1.3540,0.6173,-0.4533,
14.257164,0.1666,0.8668,0.4168,-0.0352,-0.2981,0.2462,1.3540,0.6173,-0.4533,
14.260577,0.1666,0.8668,0.4168,-0.6969,0.3183,-0.8032,1.3540,0.6173,-0.4533,
14.262577,0.1666,0.8668,0.4168,-0.6969,0.3183,-0.8032,1.4669,0.7015,-0.4804,
14.278097,0.1666,0.8668,0.4168,-0.6969,0.3183,-0.8032,1.4749,0.6685,-0.4634,
14.296250,0.1524,0.9482,0.3704,-0.6969,0.3183,-0.8032,1.4749,0.6685,-0.4634,
14.298420,0.1524,0.9482,0.3704,-0.5496,0.7980,-0.8255,1.4749,0.6685,-0.4634,
14.300047,0.1524,0.9482,0.3704,-0.5496,0.7980,-0.8255,1.4168,0.4176,-0.4330,
14.316181,0.1524,0.9482,0.3704,-0.5496,0.7980,-0.8255,1.2464,0.0692,-0.4032,
14.337241,0.1717,0.9582,0.3232,-0.5496,0.7980,-0.8255,1.2464,0.0692,-0.4032,
14.340854,0.1717,0.9582,0.3232,-0.1740,0.6352,-0.8417,1.2464,0.0692,-0.4032,
14.342477,0.1717,0.9582,0.3232,-0.1740,0.6352,-0.8417,1.0173,-0.0820,-0.3499,
14.357467,0.1717,0.9582,0.3232,-0.1740,0.6352,-0.8417,0.7888,0.0474,-0.2658,
14.377166,0.1923,0.9885,0.3811,-0.1740,0.6352,-0.8417,0.7888,0.0474,-0.2658,
14.379449,0.1923,0.9885,0.3811,0.1327,0.7710,0.0461,0.7888,0.0474,-0.2658,
14.381142,0.1923,0.9885,0.3811,0.1327,0.7710,0.0461,0.6285,0.2908,-0.1971,
14.396869,0.1923,0.9885,0.3811,0.1327,0.7710,0.0461,0.5811,0.4112,-0.1683,
14.416220,0.1937,1.0126,0.4693,0.1327,0.7710,0.0461,0.5811,0.4112,-0.1683,
14.418457,0.1937,1.0126,0.4693,0.2616,0.9103,1.1001,0.5811,0.4112,-0.1683,
14.420028,0.1937,1.0126,0.4693,0.2616,0.9103,1.1001,0.6083,0.4197,-0.1758,
14.436848,0.1937,1.0126,0.4693,0.2616,0.9103,1.1001,0.6493,0.3505,-0.2045,
14.457083,0.0970,1.0811,0.3894,0.2616,0.9103,1.1001,0.6493,0.3505,-0.2045,
14.459949,0.0970,1.0811,0.3894,-0.5653,1.4833,0.5205,0.6493,0.3505,-0.2045,
14.462039,0.0970,1.0811,0.3894,-0.5653,1.4833,0.5205,0.5848,0.3036,-0.2040,
14.476232,0.0970,1.0811,0.3894,-0.5653,1.4833,0.5205,0.4751,0.3382,0.0170,
14.496760,0.0423,1.0058,0.2646,-0.5653,1.4833,0.5205,0.4751,0.3382,0.0170,
14.499131,0.0423,1.0058,0.2646,-0.7842,0.6438,-0.5459,0.4751,0.3382,0.0170,
14.501270,0.0423,1.0058,0.2646,-0.7842,0.6438,-0.5459,0.4538,0.4884,0.3180,
14.516483,0.0423,1.0058,0.2646,-0.7842,0.6438,-0.5459,0.3883,0.4756,0.4772,
14.536855,0.2267,0.7808,0.2805,-0.7842,0.6438,-0.5459,0.3883,0.4756,0.4772,
14.539183,0.2267,0.7808,0.2805,0.9269,-1.5902,-0.2644,0.3883,0.4756,0.4772,
14.541005,0.2267,0.7808,0.2805,0.9269,-1.5902,-0.2644,0.1305,0.2455,0.5129,
14.556783,0.2267,0.7808,0.2805,0.9269,-1.5902,-0.2644,0.0485,-0.1012,0.3686,
14.576326,0.0403,0.9526,0.3205,0.9269,-1.5902,-0.2644,0.0485,-0.1012,0.3686,
14.579597,0.0403,0.9526,0.3205,-1.0401,0.1062,0.1511,0.0485,-0.1012,0.3686,
14.581792,0.0403,0.9526,0.3205,-1.0401,0.1062,0.1511,0.0858,-0.1731,0.3627,
14.597087,0.0403,0.9526,0.3205,-1.0401,0.1062,0.1511,0.0948,-0.2551,0.4362,
14.616294,-0.0332,1.0307,0.2963,-1.0401,0.1062,0.1511,0.0948,-0.2551,0.4362,
14.618741,-0.0332,1.0307,0.2963,-1.8973,0.8802,-0.0410,0.0948,-0.2551,0.4362,
14.620504,-0.0332,1.0307,0.2963,-1.8973,0.8802,-0.0410,0.0490,-0.3728,0.4863,
14.635825,-0.0332,1.0307,0.2963,-1.8973,0.8802,-0.0410,-0.0522,-0.4735,0.5976,
14.656728,0.1248,0.9975,0.3093,-1.8973,0.8802,-0.0410,-0.0522,-0.4735,0.5976,
14.659039,0.1248,0.9975,0.3093,-0.5691,0.5862,0.1132,-0.0522,-0.4735,0.5976,
14.660771,0.1248,0.9975,0.3093,-0.5691,0.5862,0.1132,-0.1752,-0.3957,0.7478,
14.676886,0.1248,0.9975,0.3093,-0.5691,0.5862,0.1132,-0.2988,-0.3936,0.8266,
14.696100,0.2629,1.1583,0.3247,-0.5691,0.5862,0.1132,-0.2988,-0.3936,0.8266,
14.699428,0.2629,1.1583,0.3247,0.4496,2.2512,0.2083,-0.2988,-0.3936,0.8266,
14.701115,0.2629,1.1583,0.3247,0.4496,2.2512,0.2083,-0.4597,-0.4027,0.8645,
14.715990,0.2629,1.1583,0.3247,0.4496,2.2512,0.2083,-0.6882,-0.4394,0.7622,
14.736226,0.4544,0.8140,0.3811,0.4496,2.2512,0.2083,-0.6882,-0.4394,0.7622,
14.738270,0.4544,0.8140,0.3811,1.9796,-0.9767,0.5925,-0.6882,-0.4394,0.7622,
14.739950,0.4544,0.8140,0.3811,1.9796,-0.9767,0.5925,-0.9001,-0.5087,0.6056,
14.756504,0.4544,0.8140,0.3811,1.9796,-0.9767,0.5925,-1.2272,-0.7856,0.5001,
14.776745,0.3875,0.7339,0.3711,1.9796,-0.9767,0.5925,-1.2272,-0.7856,0.5001,
14.779879,0.3875,0.7339,0.3711,1.0244,-1.5573,0.1831,-1.2272,-0.7856,0.5001,
14.781881,0.3875,0.7339,0.3711,1.0244,-1.5573,0.1831,-1.5468,-1.0045,0.4266,
14.795714,0.3875,0.7339,0.3711,1.0244,-1.5573,0.1831,-1.5739,-0.8682,0.3750,
14.815278,0.3516,0.9135,0.3232,1.0244,-1.5573,0.1831,-1.5739,-0.8682,0.3750,
14.817156,0.3516,0.9135,0.3232,0.3876,0.4718,-0.6936,-1.5739,-0.8682,0.3750,
14.818623,0.3516,0.9135,0.3232,0.3876,0.4718,-0.6936,-1.5175,-0.3782,0.2961,
14.835956,0.3516,0.9135,0.3232,0.3876,0.4718,-0.6936,-1.7082,-0.0506,0.1284,
14.856033,0.3731,0.6887,0.4840,0.3876,0.4718,-0.6936,-1.7082,-0.0506,0.1284,
14.858870,0.3731,0.6887,0.4840,0.4821,-1.4387,0.3778,-1.7082,-0.0506,0.1284,
14.860929,0.3731,0.6887,0.4840,0.4821,-1.4387,0.3778,-1.7337,0.3302,-0.0522,
14.877385,0.3731,0.6887,0.4840,0.4821,-1.4387,0.3778,-1.3721,0.1411,-0.1864,
14.896193,0.3362,0.6462,0.5956,0.4821,-1.4387,0.3778,-1.3721,0.1411,-0.1864,
14.898483,0.3362,0.6462,0.5956,0.1930,-1.5776,0.9402,-1.3721,0.1411,-0.1864,
14.900123,0.3362,0.6462,0.5956,0.1930,-1.5776,0.9402,-0.9385,-0.2471,-0.2237,
14.916268,0.3362,0.6462,0.5956,0.1930,-1.5776,0.9402,-0.5939,-0.1390,-0.2344,
14.936093,0.2971,0.6462,0.5189,0.1930,-1.5776,0.9402,-0.5939,-0.1390,-0.2344,
14.938994,0.2971,0.6462,0.5189,-0.1596,-1.4505,-0.0295,-0.5939,-0.1390,-0.2344,
14.940831,0.2971,0.6462,0.5189,-0.1596,-1.4505,-0.0295,-0.3084,0.0346,-0.2583,
14.955943,0.2971,0.6462,0.5189,-0.1596,-1.4505,-0.0295,-0.1214,0.2040,-0.3297,
14.976195,0.0704,0.6667,0.3276,-0.1596,-1.4505,-0.0295,-0.1214,0.2040,-0.3297,
14.979112,0.0704,0.6667,0.3276,-2.2655,-1.2406,-1.9852,-0.1214,0.2040,-0.3297,
14.980960,0.0704,0.6667,0.3276,-2.2655,-1.2406,-1.9852,-0.0383,0.3531,-0.2876,
14.995633,0.0704,0.6667,0.3276,-2.2655,-1.2406,-1.9852,0.0117,0.4085,-0.1747,
15.016427,0.2191,0.6203,0.3357,-2.2655,-1.2406,-1.9852,0.0117,0.4085,-0.1747,
15.018978,0.2191,0.6203,0.3357,-0.6561,-1.7194,-1.9541,0.0117,0.4085,-0.1747,
15.020963,0.2191,0.6203,0.3357,-0.6561,-1.7194,-1.9541,0.0719,0.3696,-0.1150,
15.036044,0.2191,0.6203,0.3357,-0.6561,-1.7194,-1.9541,0.1438,0.3696,-0.0991,
15.056347,0.2900,0.8008,0.4361,-0.6561,-1.7194,-1.9541,0.1438,0.3696,-0.0991,
15.058936,0.2900,0.8008,0.4361,0.1492,0.0155,-0.9770,0.1438,0.3696,-0.0991,
15.060563,0.2900,0.8008,0.4361,0.1492,0.0155,-0.9770,0.1784,0.3430,-0.1182,
15.076389,0.2900,0.8008,0.4361,0.1492,0.0155,-0.9770,0.2839,0.4277,-0.1406,
15.096087,0.2612,0.7938,0.5778,0.1492,0.0155,-0.9770,0.2839,0.4277,-0.1406,
15.098403,0.2612,0.7938,0.5778,-0.0438,-0.1291,0.4797,0.2839,0.4277,-0.1406,
15.100264,0.2612,0.7938,0.5778,-0.0438,-0.1291,0.4797,0.4661,0.5044,-0.1342,
15.116419,0.2612,0.7938,0.5778,-0.0438,-0.1291,0.4797,0.6280,0.6274,-0.1337,
15.134839,0.2592,0.8939,0.6367,-0.0438,-0.1291,0.4797,0.6280,0.6274,-0.1337,
15.135821,0.2592,0.8939,0.6367,0.0944,0.7320,1.1665,0.6280,0.6274,-0.1337,
15.136377,0.2592,0.8939,0.6367,0.0944,0.7320,1.1665,0.8501,0.7191,-0.1630,
15.155531,0.2592,0.8939,0.6367,0.0944,0.7320,1.1665,1.1255,0.7468,-0.2466,
15.176039,0.2580,0.8990,0.5326,0.0944,0.7320,1.1665,1.1255,0.7468,-0.2466,
15.178165,0.2580,0.8990,0.5326,0.2894,0.5733,0.3919,1.1255,0.7468,-0.2466,
15.179702,0.2580,0.8990,0.5326,0.2894,0.5733,0.3919,1.2916,0.7121,-0.3755,
15.195696,0.2580,0.8990,0.5326,0.2894,0.5733,0.3919,1.4264,0.5981,-0.4756,
15.215373,0.2431,0.8910,0.3938,0.2894,0.5733,0.3919,1.4264,0.5981,-0.4756,
15.218307,0.2431,0.8910,0.3938,0.3937,0.2132,-0.5736,1.4264,0.5981,-0.4756,
15.220626,0.2431,0.8910,0.3938,0.3937,0.2132,-0.5736,1.5217,0.4234,-0.5167,
15.235073,0.2431,0.8910,0.3938,0.3937,0.2132,-0.5736,1.4557,0.1150,-0.5135,
15.255356,0.1720,0.9665,0.2436,0.3937,0.2132,-0.5736,1.4557,0.1150,-0.5135,
15.258440,0.1720,0.9665,0.2436,-0.0917,0.6636,-1.5414,1.4557,0.1150,-0.5135,
15.260320,0.1720,0.9665,0.2436,-0.0917,0.6636,-1.5414,1.1494,0.0368,-0.4618,
15.277749,0.1720,0.9665,0.2436,-0.0917,0.6636,-1.5414,0.6770,0.3382,-0.4325,
15.295970,0.1207,1.1182,0.3713,-0.0917,0.6636,-1.5414,0.6770,0.3382,-0.4325,
15.298295,0.1207,1.1182,0.3713,-0.4079,1.9822,0.0238,0.6770,0.3382,-0.4325,
15.299989,0.1207,1.1182,0.3713,-0.4079,1.9822,0.0238,0.2967,0.4959,-0.4293,
15.316370,0.1207,1.1182,0.3713,-0.4079,1.9822,0.0238,0.1886,0.5417,-0.3680,
15.335269,0.0997,0.9875,0.5648,-0.4079,1.9822,0.0238,0.1886,0.5417,-0.3680,
15.338069,0.0997,0.9875,0.5648,-0.3962,0.6430,1.9766,0.1886,0.5417,-0.3680,
15.339541,0.0997,0.9875,0.5648,-0.3962,0.6430,1.9766,0.3430,0.6242,-0.2983,
15.355630,0.0997,0.9875,0.5648,-0.3962,0.6430,1.9766,0.6764,0.6093,-0.1443,
15.375312,0.1065,0.9152,0.3447,-0.3962,0.6430,1.9766,0.6764,0.6093,-0.1443,
15.377529,0.1065,0.9152,0.3447,-0.1626,-0.1451,-0.0355,0.6764,0.6093,-0.1443,
15.379396,0.1065,0.9152,0.3447,-0.1626,-0.1451,-0.0355,0.7302,0.5305,0.0368,
15.395640,0.1065,0.9152,0.3447,-0.1626,-0.1451,-0.0355,0.4437,0.4570,0.2083,
15.415581,0.1234,0.9496,0.2956,-0.1626,-0.1451,-0.0355,0.4437,0.4570,0.2083,
15.418605,0.1234,0.9496,0.2956,0.0228,0.1218,-0.3294,0.4437,0.4570,0.2083,
15.420532,0.1234,0.9496,0.2956,0.0228,0.1218,-0.3294,0.2530,0.2738,0.3414,
15.435343,0.1234,0.9496,0.2956,0.0228,0.1218,-0.3294,0.2658,0.1683,0.4618,
15.455220,0.2079,0.7979,0.2744,0.0228,0.1218,-0.3294,0.2658,0.1683,0.4618,
15.457220,0.2079,0.7979,0.2744,0.7240,-1.3756,-0.4572,0.2658,0.1683,0.4618,
15.459033,0.2079,0.7979,0.2744,0.7240,-1.3756,-0.4572,0.1683,0.0261,0.3728,
15.478531,0.2079,0.7979,0.2744,0.7240,-1.3756,-0.4572,0.0676,-0.0746,0.1891,
15.495280,-0.1757,1.1338,0.3017,0.7240,-1.3756,-0.4572,0.0676,-0.0746,0.1891,
15.497729,-0.1757,1.1338,0.3017,-3.1117,1.9116,-0.1415,0.0676,-0.0746,0.1891,
15.499796,-0.1757,1.1338,0.3017,-3.1117,1.9116,-0.1415,-0.0085,-0.1965,0.2850,
15.515180,-0.1757,1.1338,0.3017,-3.1117,1.9116,-0.1415,-0.1156,-0.3862,0.4969,
15.535319,0.1041,1.0114,0.3691,-3.1117,1.9116,-0.1415,-0.1156,-0.3862,0.4969,
15.537642,0.1041,1.0114,0.3691,-0.5317,0.7400,0.5131,-0.1156,-0.3862,0.4969,
15.539230,0.1041,1.0114,0.3691,-0.5317,0.7400,0.5131,-0.2178,-0.5380,0.6349,
15.555210,0.1041,1.0114,0.3691,-0.5317,0.7400,0.5131,-0.3169,-0.5561,0.6892,
15.575345,0.2497,1.0491,0.3875,-0.5317,0.7400,0.5131,-0.3169,-0.5561,0.6892,
15.577399,0.2497,1.0491,0.3875,0.5875,1.1870,0.6321,-0.3169,-0.5561,0.6892,
15.578915,0.2497,1.0491,0.3875,0.5875,1.1870,0.6321,-0.4368,-0.6690,0.6796,
15.595242,0.2497,1.0491,0.3875,0.5875,1.1870,0.6321,-0.5699,-0.6642,0.5987,
15.614939,0.3161,0.9210,0.3789,0.5875,1.1870,0.6321,-0.5699,-0.6642,0.5987,
15.617532,0.3161,0.9210,0.3789,0.9239,0.0487,0.4198,-0.5699,-0.6642,0.5987,
15.619455,0.3161,0.9210,0.3789,0.9239,0.0487,0.4198,-0.7686,-0.6663,0.5294,
15.634912,0.3161,0.9210,0.3789,0.9239,0.0487,0.4198,-1.0541,-0.8527,0.4719,
