
time,gFx,gFy,gFz,ax,ay,az,wx,wy,wz,
0.026919,0.0081,0.3472,1.0061,0.0000,0.0000,0.0000,0.0000,0.0000,0.0000,
0.028388,0.0081,0.3472,1.0061,0.0000,0.0000,0.0000,0.0826,0.0378,0.0043,
0.041334,0.0081,0.3472,1.0061,0.0000,0.0000,0.0000,0.0826,0.0378,0.0043,
0.061315,0.0423,0.3386,0.9354,0.0000,0.0000,0.0000,0.0826,0.0378,0.0043,
0.062798,0.0423,0.3386,0.9354,-0.0021,-0.0164,-0.0454,0.0826,0.0378,0.0043,
0.064202,0.0423,0.3386,0.9354,-0.0021,-0.0164,-0.0454,0.0826,0.0378,0.0043,
0.082348,0.0423,0.3386,0.9354,-0.0021,-0.0164,-0.0454,0.0826,0.0378,0.0043,
0.101475,0.0596,0.3489,0.8697,-0.0021,-0.0164,-0.0454,0.0826,0.0378,0.0043,
0.103506,0.0596,0.3489,0.8697,0.0823,-0.0446,-0.6376,0.0826,0.0378,0.0043,
0.105430,0.0596,0.3489,0.8697,0.0823,-0.0446,-0.6376,0.8634,0.5582,-0.2839,
0.122732,0.0596,0.3489,0.8697,0.0823,-0.0446,-0.6376,0.8437,0.5316,-0.3574,
0.141745,0.0418,0.3626,0.9088,0.0823,-0.0446,-0.6376,0.8437,0.5316,-0.3574,
0.143810,0.0418,0.3626,0.9088,-0.0565,0.0173,-0.2288,0.8437,0.5316,-0.3574,
0.145475,0.0418,0.3626,0.9088,-0.0565,0.0173,-0.2288,0.8437,0.4378,-0.4772,
0.161358,0.0418,0.3626,0.9088,-0.0565,0.0173,-0.2288,0.9726,0.4586,-0.5774,
0.182689,-0.0352,0.4241,0.9064,-0.0565,0.0173,-0.2288,0.9726,0.4586,-0.5774,
0.185136,-0.0352,0.4241,0.9064,-0.4575,0.3458,-0.1529,0.9726,0.4586,-0.5774,
0.186889,-0.0352,0.4241,0.9064,-0.4575,0.3458,-0.1529,1.1867,0.6349,-0.6147,
0.201788,-0.0352,0.4241,0.9064,-0.4575,0.3458,-0.1529,1.3337,0.8117,-0.6104,
0.221977,-0.1160,0.4762,0.8067,-0.4575,0.3458,-0.1529,1.3337,0.8117,-0.6104,
0.224134,-0.1160,0.4762,0.8067,-0.6956,0.3607,-0.8942,1.3337,0.8117,-0.6104,
0.226362,-0.1160,0.4762,0.8067,-0.6956,0.3607,-0.8942,1.3715,0.9337,-0.6200,
0.241526,-0.1160,0.4762,0.8067,-0.6956,0.3607,-0.8942,1.4365,1.1217,-0.5960,
0.261104,-0.2294,0.5064,0.8675,-0.6956,0.3607,-0.8942,1.4365,1.1217,-0.5960,
0.263012,-0.2294,0.5064,0.8675,-1.0240,0.4071,-0.0955,1.4365,1.1217,-0.5960,
0.264714,-0.2294,0.5064,0.8675,-1.0240,0.4071,-0.0955,1.6155,1.1292,-0.6386,
0.281456,-0.2294,0.5064,0.8675,-1.0240,0.4071,-0.0955,1.7603,1.1127,-0.6567,
0.300811,-0.3169,0.5856,0.7605,-1.0240,0.4071,-0.0955,1.7603,1.1127,-0.6567,
0.302915,-0.3169,0.5856,0.7605,-1.0599,0.6529,-0.6782,1.7603,1.1127,-0.6567,
0.304195,-0.3169,0.5856,0.7605,-1.0599,0.6529,-0.6782,1.9127,1.1718,-0.6322,
0.320598,-0.3169,0.5856,0.7605,-1.0599,0.6529,-0.6782,2.0277,1.3140,-0.5470,
0.340620,-0.3215,0.6342,0.6110,-1.0599,0.6529,-0.6782,2.0277,1.3140,-0.5470,
0.342100,-0.3215,0.6342,0.6110,-0.5885,0.5628,-1.6051,2.0277,1.3140,-0.5470,
0.343319,-0.3215,0.6342,0.6110,-0.5885,0.5628,-1.6051,2.1614,1.5569,-0.4991,
0.361049,-0.3215,0.6342,0.6110,-0.5885,0.5628,-1.6051,2.1401,1.6208,-0.5183,
0.381289,-0.4114,0.6801,0.4964,-0.5885,0.5628,-1.6051,2.1401,1.6208,-0.5183,
0.383210,-0.4114,0.6801,0.4964,-0.8856,0.4449,-2.0326,2.1401,1.6208,-0.5183,
0.385011,-0.4114,0.6801,0.4964,-0.8856,0.4449,-2.0326,1.9777,1.4722,-0.5641,
0.400233,-0.4114,0.6801,0.4964,-0.8856,0.4449,-2.0326,1.8850,1.2852,-0.5470,
0.420627,-0.5262,0.7503,0.4896,-0.8856,0.4449,-2.0326,1.8850,1.2852,-0.5470,
0.423172,-0.5262,0.7503,0.4896,-1.4927,0.6977,-1.4032,1.8850,1.2852,-0.5470,
0.424821,-0.5262,0.7503,0.4896,-1.4927,0.6977,-1.4032,1.8775,1.2618,-0.3995,
0.441068,-0.5262,0.7503,0.4896,-1.4927,0.6977,-1.4032,1.7758,1.0653,-0.2999,
0.460812,-0.3982,0.7280,0.1322,-1.4927,0.6977,-1.4032,1.7758,1.0653,-0.2999,
0.463350,-0.3982,0.7280,0.1322,0.1300,0.1060,-4.2280,1.7758,1.0653,-0.2999,
0.464811,-0.3982,0.7280,0.1322,0.1300,0.1060,-4.2280,1.3049,0.5241,-0.2269,
0.481369,-0.3982,0.7280,0.1322,0.1300,0.1060,-4.2280,0.8693,0.1246,-0.4128,
0.500109,-0.4119,0.7407,0.4979,0.1300,0.1060,-4.2280,0.8693,0.1246,-0.4128,
0.501814,-0.4119,0.7407,0.4979,0.1581,0.0475,-0.2748,0.8693,0.1246,-0.4128,
0.502847,-0.4119,0.7407,0.4979,0.1581,0.0475,-0.2748,0.9923,0.3649,-0.4053,
0.520295,-0.4119,0.7407,0.4979,0.1581,0.0475,-0.2748,1.2810,0.6024,-0.4213,
0.540429,-0.5927,0.8199,0.3112,0.1581,0.0475,-0.2748,1.2810,0.6024,-0.4213,
0.542326,-0.5927,0.8199,0.3112,-1.3827,0.6605,-1.6617,1.2810,0.6024,-0.4213,
0.544056,-0.5927,0.8199,0.3112,-1.3827,0.6605,-1.6617,1.3513,0.6818,-0.3185,
0.560359,-0.5927,0.8199,0.3112,-1.3827,0.6605,-1.6617,1.2426,0.5603,-0.1790,
0.580670,-0.5213,0.8529,0.1835,-1.3827,0.6605,-1.6617,1.2426,0.5603,-0.1790,
0.583771,-0.5213,0.8529,0.1835,-0.4842,0.7819,-2.3709,1.2426,0.5603,-0.1790,
0.585567,-0.5213,0.8529,0.1835,-0.4842,0.7819,-2.3709,1.0061,0.1992,-0.1427,
0.599882,-0.5213,0.8529,0.1835,-0.4842,0.7819,-2.3709,0.6743,-0.1454,-0.2067,
0.620570,-0.4280,0.7522,0.3288,-0.4842,0.7819,-2.3709,0.6743,-0.1454,-0.2067,
0.622489,-0.4280,0.7522,0.3288,0.4915,-0.3144,-0.6676,0.6743,-0.1454,-0.2067,
0.624164,-0.4280,0.7522,0.3288,0.4915,-0.3144,-0.6676,0.6456,-0.2242,-0.3467,
0.639784,-0.4280,0.7522,0.3288,0.4915,-0.3144,-0.6676,0.8687,0.0240,-0.3798,
0.659833,-0.6547,0.8414,0.2257,0.4915,-0.3144,-0.6676,0.8687,0.0240,-0.3798,
0.661809,-0.6547,0.8414,0.2257,-1.6143,0.5093,-1.4289,0.8687,0.0240,-0.3798,
0.663204,-0.6547,0.8414,0.2257,-1.6143,0.5093,-1.4289,1.0306,0.2242,-0.2551,
0.680429,-0.6547,0.8414,0.2257,-1.6143,0.5093,-1.4289,0.9710,0.0170,-0.0969,
0.700294,-0.5218,0.8074,0.2167,-1.6143,0.5093,-1.4289,0.9710,0.0170,-0.0969,
0.702406,-0.5218,0.8074,0.2167,-0.2236,0.0680,-1.1493,0.9710,0.0170,-0.0969,
0.704153,-0.5218,0.8074,0.2167,-0.2236,0.0680,-1.1493,0.9055,-0.2434,-0.1598,
0.719483,-0.5218,0.8074,0.2167,-0.2236,0.0680,-1.1493,0.7792,-0.3105,-0.3270,
0.739789,-0.5551,0.7823,0.2331,-0.2236,0.0680,-1.1493,0.7792,-0.3105,-0.3270,
0.741700,-0.5551,0.7823,0.2331,-0.4902,-0.2362,-0.7532,0.7792,-0.3105,-0.3270,
0.743544,-0.5551,0.7823,0.2331,-0.4902,-0.2362,-0.7532,0.7462,-0.1854,-0.4352,
0.759803,-0.5551,0.7823,0.2331,-0.4902,-0.2362,-0.7532,0.9822,0.0985,-0.3579,
0.780222,-0.6565,0.8077,0.1544,-0.4902,-0.2362,-0.7532,0.9822,0.0985,-0.3579,
0.782308,-0.6565,0.8077,0.1544,-1.3417,-0.0032,-1.2337,0.9822,0.0985,-0.3579,
0.784145,-0.6565,0.8077,0.1544,-1.3417,-0.0032,-1.2337,1.1057,0.1135,-0.2274,
0.799688,-0.6565,0.8077,0.1544,-1.3417,-0.0032,-1.2337,0.9284,-0.2157,-0.2083,
0.820270,-0.6103,0.7774,0.1808,-1.3417,-0.0032,-1.2337,0.9284,-0.2157,-0.2083,
0.822423,-0.6103,0.7774,0.1808,-0.8005,-0.3504,-0.6437,0.9284,-0.2157,-0.2083,
0.824246,-0.6103,0.7774,0.1808,-0.8005,-0.3504,-0.6437,0.7856,-0.4016,-0.2253,
0.839735,-0.6103,0.7774,0.1808,-0.8005,-0.3504,-0.6437,0.8900,-0.3755,-0.2216,
0.859616,-0.5299,0.7571,0.0271,-0.8005,-0.3504,-0.6437,0.8900,-0.3755,-0.2216,
0.862139,-0.5299,0.7571,0.0271,0.0386,-0.5775,-1.9358,0.8900,-0.3755,-0.2216,
0.863981,-0.5299,0.7571,0.0271,0.0386,-0.5775,-1.9358,0.9028,-0.4197,-0.3324,
0.880122,-0.5299,0.7571,0.0271,0.0386,-0.5775,-1.9358,0.6285,-0.4804,-0.3702,
0.899796,-0.5705,0.8463,-0.0095,0.0386,-0.5775,-1.9358,0.6285,-0.4804,-0.3702,
0.901831,-0.5705,0.8463,-0.0095,-0.2704,0.3024,-2.0959,0.6285,-0.4804,-0.3702,
0.903703,-0.5705,0.8463,-0.0095,-0.2704,0.3024,-2.0959,0.3127,-0.4847,-0.3249,
0.920529,-0.5705,0.8463,-0.0095,-0.2704,0.3024,-2.0959,0.2871,-0.5268,-0.1907,
0.940348,-0.5888,0.9347,0.1830,-0.2704,0.3024,-2.0959,0.2871,-0.5268,-0.1907,
0.942397,-0.5888,0.9347,0.1830,-0.4063,1.1963,-0.2010,0.2871,-0.5268,-0.1907,
0.944168,-0.5888,0.9347,0.1830,-0.4063,1.1963,-0.2010,0.5838,-0.1641,-0.0815,
0.960076,-0.5888,0.9347,0.1830,-0.4063,1.1963,-0.2010,1.0253,0.7830,-0.0197,
0.979559,-0.4498,1.1370,0.0518,-0.4063,1.1963,-0.2010,1.0253,0.7830,-0.0197,
0.981741,-0.4498,1.1370,0.0518,0.9937,3.1300,-1.1635,1.0253,0.7830,-0.0197,
0.983469,-0.4498,1.1370,0.0518,0.9937,3.1300,-1.1635,1.5681,1.5771,-0.2498,
0.999544,-0.4498,1.1370,0.0518,0.9937,3.1300,-1.1635,1.6123,1.8706,-0.0591,
1.020183,-0.5411,1.1030,0.0567,0.9937,3.1300,-1.1635,1.6123,1.8706,-0.0591,
1.024045,-0.5411,1.1030,0.0567,0.2317,2.7524,-0.2279,1.6123,1.8706,-0.0591,
1.025853,-0.5411,1.1030,0.0567,0.2317,2.7524,-0.2279,1.2565,1.1441,0.3824,
1.039285,-0.5411,1.1030,0.0567,0.2317,2.7524,-0.2279,1.2235,0.7510,0.7201,
1.059478,-0.4903,0.9281,0.0779,0.2317,2.7524,-0.2279,1.2235,0.7510,0.7201,
1.062043,-0.4903,0.9281,0.0779,0.5696,0.8949,0.5896,1.2235,0.7510,0.7201,
1.063710,-0.4903,0.9281,0.0779,0.5696,0.8949,0.5896,1.2080,-0.0362,1.2655,
1.079257,-0.4903,0.9281,0.0779,0.5696,0.8949,0.5896,0.8996,-0.1955,1.3295,
1.099483,-0.5231,0.8116,0.1129,0.5696,0.8949,0.5896,0.8996,-0.1955,1.3295,
1.102279,-0.5231,0.8116,0.1129,-0.1848,-0.5163,1.2396,0.8996,-0.1955,1.3295,
1.104555,-0.5231,0.8116,0.1129,-0.1848,-0.5163,1.2396,0.7196,-0.1854,1.1638,
1.120315,-0.5231,0.8116,0.1129,-0.1848,-0.5163,1.2396,0.6674,-0.7020,1.1473,
1.140009,-0.5597,0.7175,0.0552,-0.1848,-0.5163,1.2396,0.6674,-0.7020,1.1473,
1.142110,-0.5597,0.7175,0.0552,-0.9067,-1.6369,0.7919,0.6674,-0.7020,1.1473,
1.143853,-0.5597,0.7175,0.0552,-0.9067,-1.6369,0.7919,0.5044,-1.2868,1.1100,
1.159676,-0.5597,0.7175,0.0552,-0.9067,-1.6369,0.7919,0.1337,-1.3769,0.9273,
1.179184,-0.5499,0.5968,-0.0640,-0.9067,-1.6369,0.7919,0.1337,-1.3769,0.9273,
1.181086,-0.5499,0.5968,-0.0640,-1.1510,-2.9935,-0.4999,0.1337,-1.3769,0.9273,
1.182983,-0.5499,0.5968,-0.0640,-1.1510,-2.9935,-0.4999,-0.3665,-1.2480,0.6823,
1.199531,-0.5499,0.5968,-0.0640,-1.1510,-2.9935,-0.4999,-0.6669,-1.2405,0.4410,
1.219979,-0.6469,0.6921,0.0613,-1.1510,-2.9935,-0.4999,-0.6669,-1.2405,0.4410,
1.223105,-0.6469,0.6921,0.0613,-2.2829,-2.1415,0.3387,-0.6669,-1.2405,0.4410,
1.225365,-0.6469,0.6921,0.0613,-2.2829,-2.1415,0.3387,-0.7015,-1.1553,0.1443,
1.239532,-0.6469,0.6921,0.0613,-2.2829,-2.1415,0.3387,-0.8155,-1.4514,-0.1337,
1.259202,-0.6867,0.7046,-0.1407,-2.2829,-2.1415,0.3387,-0.8155,-1.4514,-0.1337,
1.261778,-0.6867,0.7046,-0.1407,-2.6611,-1.9882,-2.1045,-0.8155,-1.4514,-0.1337,
1.263809,-0.6867,0.7046,-0.1407,-2.6611,-1.9882,-2.1045,-1.1478,-1.5436,-0.4043,
1.279164,-0.6867,0.7046,-0.1407,-2.6611,-1.9882,-2.1045,-1.4882,-1.6208,-0.7542,
1.298950,-0.7835,0.7253,-0.1331,-2.6611,-1.9882,-2.1045,-1.4882,-1.6208,-0.7542,
1.301082,-0.7835,0.7253,-0.1331,-3.4000,-1.6046,-2.7016,-1.4882,-1.6208,-0.7542,
1.303031,-0.7835,0.7253,-0.1331,-3.4000,-1.6046,-2.7016,-1.6288,-1.6453,-1.1276,
1.319373,-0.7835,0.7253,-0.1331,-3.4000,-1.6046,-2.7016,-1.7854,-1.4179,-1.5862,
1.339086,-0.8179,0.7266,-0.0364,-3.4000,-1.6046,-2.7016,-1.7854,-1.4179,-1.5862,
1.341795,-0.8179,0.7266,-0.0364,-3.3451,-1.2142,-2.5681,-1.7854,-1.4179,-1.5862,
1.343695,-0.8179,0.7266,-0.0364,-3.3451,-1.2142,-2.5681,-1.6149,-1.1420,-1.8749,
1.359244,-0.8179,0.7266,-0.0364,-3.3451,-1.2142,-2.5681,-1.0988,-1.2980,-1.7971,
1.378885,-0.6100,0.7495,-0.1498,-3.3451,-1.2142,-2.5681,-1.0988,-1.2980,-1.7971,
1.381179,-0.6100,0.7495,-0.1498,-0.7985,-0.4912,-4.2832,-1.0988,-1.2980,-1.7971,
1.383090,-0.6100,0.7495,-0.1498,-0.7985,-0.4912,-4.2832,-0.4820,-1.2799,-1.6719,
1.399014,-0.6100,0.7495,-0.1498,-0.7985,-0.4912,-4.2832,1.1063,-1.5579,-1.0759,
1.419004,0.0589,0.8793,-0.5394,-0.7985,-0.4912,-4.2832,1.1063,-1.5579,-1.0759,
1.421123,0.0589,0.8793,-0.5394,6.0083,1.0246,-8.2915,1.1063,-1.5579,-1.0759,
1.422731,0.0589,0.8793,-0.5394,6.0083,1.0246,-8.2915,1.9292,-0.4474,-0.4059,
1.439133,0.0589,0.8793,-0.5394,6.0083,1.0246,-8.2915,1.3129,0.8597,-0.3739,
1.459028,-0.8392,0.6528,-0.3474,6.0083,1.0246,-8.2915,1.3129,0.8597,-0.3739,
1.462553,-0.8392,0.6528,-0.3474,-2.6399,-1.3018,-5.7944,1.3129,0.8597,-0.3739,
1.464475,-0.8392,0.6528,-0.3474,-2.6399,-1.3018,-5.7944,1.8109,0.0240,-0.3185,
1.479117,-0.8392,0.6528,-0.3474,-2.6399,-1.3018,-5.7944,2.4592,1.3902,-1.2128,
1.498458,-1.1443,1.0696,0.1439,-2.6399,-1.3018,-5.7944,2.4592,1.3902,-1.2128,
1.500546,-1.1443,1.0696,0.1439,-5.3423,2.7861,-0.1594,2.4592,1.3902,-1.2128,
1.502401,-1.1443,1.0696,0.1439,-5.3423,2.7861,-0.1594,2.9375,0.0730,-1.3619,
1.518605,-1.1443,1.0696,0.1439,-5.3423,2.7861,-0.1594,1.9169,-0.9513,-1.2794,
1.539639,-0.7573,0.7151,0.0618,-5.3423,2.7861,-0.1594,1.9169,-0.9513,-1.2794,
1.541629,-0.7573,0.7151,0.0618,-1.1665,-0.4858,-0.3346,1.9169,-0.9513,-1.2794,
1.543588,-0.7573,0.7151,0.0618,-1.1665,-0.4858,-0.3346,0.8123,0.1337,-1.3156,
1.559144,-0.7573,0.7151,0.0618,-1.1665,-0.4858,-0.3346,-0.0517,0.2381,-0.9278,
1.579527,-0.6274,0.4991,0.3582,-1.1665,-0.4858,-0.3346,-0.0517,0.2381,-0.9278,
1.581794,-0.6274,0.4991,0.3582,0.4632,-2.3072,2.7107,-0.0517,0.2381,-0.9278,
1.583396,-0.6274,0.4991,0.3582,0.4632,-2.3072,2.7107,-0.2194,0.3649,-0.6013,
1.598443,-0.6274,0.4991,0.3582,0.4632,-2.3072,2.7107,-0.3830,0.2360,-0.3665,
1.618884,-0.5692,0.4950,0.1099,0.4632,-2.3072,2.7107,-0.3830,0.2360,-0.3665,
1.620814,-0.5692,0.4950,0.1099,1.1803,-2.2092,0.2729,-0.3830,0.2360,-0.3665,
1.622555,-0.5692,0.4950,0.1099,1.1803,-2.2092,0.2729,-0.4453,0.2147,-0.0607,
1.638368,-0.5692,0.4950,0.1099,1.1803,-2.2092,0.2729,-0.0719,0.0048,-0.0985,
1.658271,-0.6721,1.0273,0.0012,1.1803,-2.2092,0.2729,-0.0719,0.0048,-0.0985,
1.660963,-0.6721,1.0273,0.0012,0.1853,3.0246,-0.8304,-0.0719,0.0048,-0.0985,
1.662839,-0.6721,1.0273,0.0012,0.1853,3.0246,-0.8304,0.5151,-0.3894,-0.1976,
1.677995,-0.6721,1.0273,0.0012,0.1853,3.0246,-0.8304,0.6482,-0.7926,-0.1411,
1.698166,-0.6064,0.9296,-0.3450,0.1853,3.0246,-0.8304,0.6482,-0.7926,-0.1411,
1.699983,-0.6064,0.9296,-0.3450,0.8465,2.0800,-4.1941,0.6482,-0.7926,-0.1411,
1.701705,-0.6064,0.9296,-0.3450,0.8465,2.0800,-4.1941,0.2503,-0.8836,-0.1001,
1.718489,-0.6064,0.9296,-0.3450,0.8465,2.0800,-4.1941,-0.1252,-0.7819,-0.1896,
1.738337,-0.7784,1.1795,-0.0921,0.8465,2.0800,-4.1941,-0.1252,-0.7819,-0.1896,
1.740076,-0.7784,1.1795,-0.0921,-0.8285,4.5667,-1.9242,-0.1252,-0.7819,-0.1896,
1.741950,-0.7784,1.1795,-0.0921,-0.8285,4.5667,-1.9242,-0.2871,0.0298,-0.0863,
1.758019,-0.7784,1.1795,-0.0921,-0.8285,4.5667,-1.9242,-0.4943,0.3270,-0.1076,
1.778352,-0.8653,1.3124,-0.0875,-0.8285,4.5667,-1.9242,-0.4943,0.3270,-0.1076,
1.781861,-0.8653,1.3124,-0.0875,-1.6463,5.9120,-1.9388,-0.4943,0.3270,-0.1076,
1.783819,-0.8653,1.3124,-0.0875,-1.6463,5.9120,-1.9388,-0.3963,1.0163,-0.1614,
1.798507,-0.8653,1.3124,-0.0875,-1.6463,5.9120,-1.9388,-0.6306,0.6024,-0.1236,
1.818900,-0.8966,0.9569,0.1456,-1.6463,5.9120,-1.9388,-0.6306,0.6024,-0.1236,
1.820758,-0.8966,0.9569,0.1456,-1.8803,2.4883,0.4254,-0.6306,0.6024,-0.1236,
1.822514,-0.8966,0.9569,0.1456,-1.8803,2.4883,0.4254,-0.4080,0.3489,-0.2210,
1.838117,-0.8966,0.9569,0.1456,-1.8803,2.4883,0.4254,0.6024,0.2578,-0.3947,
1.857740,-0.7745,0.6469,0.3105,-1.8803,2.4883,0.4254,0.6024,0.2578,-0.3947,
1.861114,-0.7745,0.6469,0.3105,-0.5872,-0.4677,2.1517,0.6024,0.2578,-0.3947,
1.863395,-0.7745,0.6469,0.3105,-0.5872,-0.4677,2.1517,0.9364,-0.6860,-0.3414,
1.878189,-0.7745,0.6469,0.3105,-0.5872,-0.4677,2.1517,1.1143,-1.1526,-0.3537,
1.898856,-0.5629,0.2155,0.2296,-0.5872,-0.4677,2.1517,1.1143,-1.1526,-0.3537,
1.902158,-0.5629,0.2155,0.2296,1.5527,-4.6274,1.3645,1.1143,-1.1526,-0.3537,
1.904394,-0.5629,0.2155,0.2296,1.5527,-4.6274,1.3645,0.7143,-0.8357,-0.3835,
1.918146,-0.5629,0.2155,0.2296,1.5527,-4.6274,1.3645,-0.0341,-0.6594,-0.4112,
1.937831,-0.5910,-0.0711,-0.0283,1.5527,-4.6274,1.3645,-0.0341,-0.6594,-0.4112,
1.939713,-0.5910,-0.0711,-0.0283,1.3560,-7.3351,-1.2846,-0.0341,-0.6594,-0.4112,
1.941589,-0.5910,-0.0711,-0.0283,1.3560,-7.3351,-1.2846,-0.6125,-0.4831,-0.4176,
1.958090,-0.5910,-0.0711,-0.0283,1.3560,-7.3351,-1.2846,-0.7217,-0.3089,-0.4421,
1.978191,-0.6882,0.0261,0.1786,1.3560,-7.3351,-1.2846,-0.7217,-0.3089,-0.4421,
1.980213,-0.6882,0.0261,0.1786,0.4978,-6.2278,0.4548,-0.7217,-0.3089,-0.4421,
1.981986,-0.6882,0.0261,0.1786,0.4978,-6.2278,0.4548,-0.1806,-0.2700,-0.7201,
1.997215,-0.6882,0.0261,0.1786,0.4978,-6.2278,0.4548,0.5555,-0.4692,-0.9705,
2.017259,-0.7288,0.1823,0.1263,0.4978,-6.2278,0.4548,0.5555,-0.4692,-0.9705,
2.019585,-0.7288,0.1823,0.1263,0.2951,-4.4605,-0.1192,0.5555,-0.4692,-0.9705,
2.021426,-0.7288,0.1823,0.1263,0.2951,-4.4605,-0.1192,1.0408,-1.0003,-1.0924,
2.037655,-0.7288,0.1823,0.1263,0.2951,-4.4605,-0.1192,1.2852,-1.2911,-0.9140,
2.057259,-0.6301,0.3713,-0.0831,0.2951,-4.4605,-0.1192,1.2852,-1.2911,-0.9140,
2.059304,-0.6301,0.3713,-0.0831,1.4444,-2.3699,-2.2322,1.2852,-1.2911,-0.9140,
2.061088,-0.6301,0.3713,-0.0831,1.4444,-2.3699,-2.2322,1.3715,-1.5963,-0.3095,
2.077113,-0.6301,0.3713,-0.0831,1.4444,-2.3699,-2.2322,1.4264,-1.4541,0.4432,
2.096860,-0.5035,0.4451,-0.0591,1.4444,-2.3699,-2.2322,1.4264,-1.4541,0.4432,
2.098405,-0.5035,0.4451,-0.0591,2.5776,-1.7498,-2.1227,1.4264,-1.4541,0.4432,
2.099793,-0.5035,0.4451,-0.0591,2.5776,-1.7498,-2.1227,1.5739,-1.3454,1.3657,
2.118576,-0.5035,0.4451,-0.0591,2.5776,-1.7498,-2.1227,2.0762,-0.7404,1.8797,
2.138553,-0.5619,0.5988,-0.1148,2.5776,-1.7498,-2.1227,2.0762,-0.7404,1.8797,
2.140619,-0.5619,0.5988,-0.1148,1.5270,-0.8243,-2.5067,2.0762,-0.7404,1.8797,
2.142521,-0.5619,0.5988,-0.1148,1.5270,-0.8243,-2.5067,2.4554,-0.2610,2.8730,
2.157313,-0.5619,0.5988,-0.1148,1.5270,-0.8243,-2.5067,2.4363,0.0921,3.4850,
2.177555,-0.2602,0.9010,-0.4290,1.5270,-0.8243,-2.5067,2.4363,0.0921,3.4850,
2.179319,-0.2602,0.9010,-0.4290,3.5685,1.1985,-4.9113,2.4363,0.0921,3.4850,
2.181047,-0.2602,0.9010,-0.4290,3.5685,1.1985,-4.9113,2.2967,1.7337,3.8467,
2.197173,-0.2602,0.9010,-0.4290,3.5685,1.1985,-4.9113,1.1063,1.7694,3.8850,
2.217643,-0.8929,1.4719,-0.2968,3.5685,1.1985,-4.9113,1.1063,1.7694,3.8850,
2.219565,-0.8929,1.4719,-0.2968,-3.8674,5.9237,-2.6860,1.1063,1.7694,3.8850,
2.221472,-0.8929,1.4719,-0.2968,-3.8674,5.9237,-2.6860,0.6184,1.5398,3.3007,
2.237536,-0.8929,1.4719,-0.2968,-3.8674,5.9237,-2.6860,0.7308,1.2208,2.3175,
2.257657,-0.7329,1.3278,-0.0687,-3.8674,5.9237,-2.6860,0.7308,1.2208,2.3175,
2.260112,-0.7329,1.3278,-0.0687,-3.3052,4.0322,0.0274,0.7308,1.2208,2.3175,
2.261819,-0.7329,1.3278,-0.0687,-3.3052,4.0322,0.0274,0.5539,1.1670,2.0586,
2.277445,-0.7329,1.3278,-0.0687,-3.3052,4.0322,0.0274,0.7766,1.9004,2.2493,
2.299134,-0.3775,1.0483,-0.2575,-3.3052,4.0322,0.0274,0.7766,1.9004,2.2493,
2.301303,-0.3775,1.0483,-0.2575,-0.6637,1.0199,-1.3711,0.7766,1.9004,2.2493,
2.303187,-0.3775,1.0483,-0.2575,-0.6637,1.0199,-1.3711,-0.3419,1.0914,2.8682,
2.317512,-0.3775,1.0483,-0.2575,-0.6637,1.0199,-1.3711,-0.5997,-0.6658,2.9854,
2.337759,-0.2516,1.2254,0.2800,-0.6637,1.0199,-1.3711,-0.5997,-0.6658,2.9854,
2.340156,-0.2516,1.2254,0.2800,-0.5423,2.4459,3.7496,-0.5997,-0.6658,2.9854,
2.343470,-0.2516,1.2254,0.2800,-0.5423,2.4459,3.7496,0.3020,-1.9026,2.8485,
2.357000,-0.2516,1.2254,0.2800,-0.5423,2.4459,3.7496,0.9406,-1.8610,2.5849,
2.377278,-0.1138,1.1316,-0.3037,-0.5423,2.4459,3.7496,0.9406,-1.8610,2.5849,
2.379189,-0.1138,1.1316,-0.3037,-0.1594,1.3966,-1.8381,0.9406,-1.8610,2.5849,
2.381020,-0.1138,1.1316,-0.3037,-0.1594,1.3966,-1.8381,0.9060,-0.9710,1.9622,
2.397087,-0.1138,1.1316,-0.3037,-0.1594,1.3966,-1.8381,0.7313,-0.2312,1.7561,
2.416683,0.2592,1.0708,-0.3977,-0.1594,1.3966,-1.8381,0.7313,-0.2312,1.7561,
2.419656,0.2592,1.0708,-0.3977,2.8062,0.7968,-2.4598,0.7313,-0.2312,1.7561,
2.421929,0.2592,1.0708,-0.3977,2.8062,0.7968,-2.4598,0.4906,-0.0091,1.2757,
2.436969,0.2592,1.0708,-0.3977,2.8062,0.7968,-2.4598,0.2866,0.3366,0.7100,
2.457363,0.0645,1.0742,-0.3220,2.8062,0.7968,-2.4598,0.2866,0.3366,0.7100,
2.459263,0.0645,1.0742,-0.3220,0.5035,0.8509,-1.5676,0.2866,0.3366,0.7100,
2.460835,0.0645,1.0742,-0.3220,0.5035,0.8509,-1.5676,0.0900,0.9380,0.5491,
2.476955,0.0645,1.0742,-0.3220,0.5035,0.8509,-1.5676,-0.0320,0.8266,0.5060,
2.498299,0.0254,1.1492,-0.0623,0.5035,0.8509,-1.5676,-0.0320,0.8266,0.5060,
2.499984,0.0254,1.1492,-0.0623,-0.1397,1.5933,0.9796,-0.0320,0.8266,0.5060,
2.501758,0.0254,1.1492,-0.0623,-0.1397,1.5933,0.9796,0.2173,0.2764,0.1752,
2.517102,0.0254,1.1492,-0.0623,-0.1397,1.5933,0.9796,0.3201,0.1502,-0.1784,
2.537571,0.2055,1.1135,-0.1554,-0.1397,1.5933,0.9796,0.3201,0.1502,-0.1784,
2.539629,0.2055,1.1135,-0.1554,1.6116,1.2612,0.1675,0.3201,0.1502,-0.1784,
2.541225,0.2055,1.1135,-0.1554,1.6116,1.2612,0.1675,0.3899,0.1795,-0.5539,
2.557291,0.2055,1.1135,-0.1554,1.6116,1.2612,0.1675,0.3052,0.1795,-1.1606,
2.576329,0.3147,0.8419,-0.3750,1.6116,1.2612,0.1675,0.3052,0.1795,-1.1606,
2.578281,0.3147,0.8419,-0.3750,2.9645,-1.3822,-1.8398,0.3052,0.1795,-1.1606,
2.579686,0.3147,0.8419,-0.3750,2.9645,-1.3822,-1.8398,0.1209,-0.0447,-1.7833,
2.597049,0.3147,0.8419,-0.3750,2.9645,-1.3822,-1.8398,-0.0927,0.1225,-1.5004,
2.617221,-0.2756,0.5968,-0.4329,2.9645,-1.3822,-1.8398,-0.0927,0.1225,-1.5004,
2.619272,-0.2756,0.5968,-0.4329,-2.1919,-3.7697,-2.4009,-0.0927,0.1225,-1.5004,
2.621343,-0.2756,0.5968,-0.4329,-2.1919,-3.7697,-2.4009,-0.2855,0.4581,-0.5939,
2.636844,-0.2756,0.5968,-0.4329,-2.1919,-3.7697,-2.4009,-0.4543,0.3201,-0.2525,
2.657028,-0.1972,0.8929,-0.2482,-2.1919,-3.7697,-2.4009,-0.4543,0.3201,-0.2525,
2.659688,-0.1972,0.8929,-0.2482,-1.2873,-0.8834,-0.7186,-0.4543,0.3201,-0.2525,
2.661597,-0.1972,0.8929,-0.2482,-1.2873,-0.8834,-0.7186,-0.3617,0.5641,-0.1502,
2.676544,-0.1972,0.8929,-0.2482,-1.2873,-0.8834,-0.7186,-0.3206,0.8852,-0.1800,
2.697215,-0.0432,0.9174,-0.5600,-1.2873,-0.8834,-0.7186,-0.3206,0.8852,-0.1800,
2.699412,-0.0432,0.9174,-0.5600,0.2388,-0.6502,-3.8160,-0.3206,0.8852,-0.1800,
2.701338,-0.0432,0.9174,-0.5600,0.2388,-0.6502,-3.8160,-0.7526,0.7862,-0.5135,
2.717580,-0.0432,0.9174,-0.5600,0.2388,-0.6502,-3.8160,-1.1020,0.6482,-0.7132,
2.736476,-0.1173,1.1409,0.1407,0.2388,-0.6502,-3.8160,-1.1020,0.6482,-0.7132,
2.738713,-0.1173,1.1409,0.1407,-0.2930,1.5051,2.7264,-1.1020,0.6482,-0.7132,
2.740420,-0.1173,1.1409,0.1407,-0.2930,1.5051,2.7264,-0.5577,-0.4927,-0.5507,
2.755970,-0.1173,1.1409,0.1407,-0.2930,1.5051,2.7264,0.0336,-1.0717,-0.1886,
2.776273,-0.0545,1.0715,-0.1808,-0.2930,1.5051,2.7264,0.0336,-1.0717,-0.1886,
2.778141,-0.0545,1.0715,-0.1808,0.4963,0.8259,-0.5460,0.0336,-1.0717,-0.1886,
2.779803,-0.0545,1.0715,-0.1808,0.4963,0.8259,-0.5460,0.0543,-0.7888,-0.1241,
2.796696,-0.0545,1.0715,-0.1808,0.4963,0.8259,-0.5460,-0.1119,-0.5300,-0.2083,
2.816335,-0.1021,0.9017,-0.1146,0.4963,0.8259,-0.5460,-0.1119,-0.5300,-0.2083,
2.818309,-0.1021,0.9017,-0.1146,0.1163,-0.8320,0.0741,-0.1119,-0.5300,-0.2083,
2.819910,-0.1021,0.9017,-0.1146,0.1163,-0.8320,0.0741,-0.1768,-0.3052,-0.2248,
2.837213,-0.1021,0.9017,-0.1146,0.1163,-0.8320,0.0741,-0.1784,-0.1981,-0.1736,
2.856540,-0.1488,0.8917,-0.1612,0.1163,-0.8320,0.0741,-0.1784,-0.1981,-0.1736,
2.859162,-0.1488,0.8917,-0.1612,-0.2535,-0.9280,-0.4527,-0.1784,-0.1981,-0.1736,
2.861466,-0.1488,0.8917,-0.1612,-0.2535,-0.9280,-0.4527,-0.0884,-0.0549,-0.1619,
2.876208,-0.1488,0.8917,-0.1612,-0.2535,-0.9280,-0.4527,0.0533,0.1406,-0.1443,
2.896799,-0.2160,0.9645,-0.2861,-0.2535,-0.9280,-0.4527,0.0533,0.1406,-0.1443,
2.899090,-0.2160,0.9645,-0.2861,-0.8442,-0.2025,-1.6473,0.0533,0.1406,-0.1443,
2.901129,-0.2160,0.9645,-0.2861,-0.8442,-0.2025,-1.6473,0.1140,0.2205,-0.1028,
2.916116,-0.2160,0.9645,-0.2861,-0.8442,-0.2025,-1.6473,-0.0160,0.2136,-0.0964,
2.936833,-0.3137,1.2079,-0.3386,-0.8442,-0.2025,-1.6473,-0.0160,0.2136,-0.0964,
2.940039,-0.3137,1.2079,-0.3386,-1.7736,2.1896,-2.1320,-0.0160,0.2136,-0.0964,
2.941857,-0.3137,1.2079,-0.3386,-1.7736,2.1896,-2.1320,-0.1161,0.4075,-0.1619,
2.956048,-0.3137,1.2079,-0.3386,-1.7736,2.1896,-2.1320,-0.0655,0.5832,-0.1981,
2.976052,-0.2221,0.9726,-0.3137,-1.7736,2.1896,-2.1320,-0.0655,0.5832,-0.1981,
2.977913,-0.2221,0.9726,-0.3137,-0.8255,-0.1091,-1.8878,-0.0655,0.5832,-0.1981,
2.979566,-0.2221,0.9726,-0.3137,-0.8255,-0.1091,-1.8878,-0.3388,0.0357,0.0639,
2.996403,-0.2221,0.9726,-0.3137,-0.8255,-0.1091,-1.8878,-0.7574,-0.2993,0.3031,
3.015723,-0.0090,1.0095,-0.1788,-0.8255,-0.1091,-1.8878,-0.7574,-0.2993,0.3031,
3.017927,-0.0090,1.0095,-0.1788,1.1960,0.2215,-0.7600,-0.7574,-0.2993,0.3031,
3.019708,-0.0090,1.0095,-0.1788,1.1960,0.2215,-0.7600,-0.8080,-0.1284,0.3020,
3.035269,-0.0090,1.0095,-0.1788,1.1960,0.2215,-0.7600,-0.6237,-0.0762,0.1491,
3.055280,-0.0704,1.0811,-0.1285,1.1960,0.2215,-0.7600,-0.6237,-0.0762,0.1491,
3.056082,-0.0704,1.0811,-0.1285,0.5083,0.8881,-0.5346,-0.6237,-0.0762,0.1491,
3.056504,-0.0704,1.0811,-0.1285,0.5083,0.8881,-0.5346,-0.5491,-0.2727,0.0511,
3.075941,-0.0704,1.0811,-0.1285,0.5083,0.8881,-0.5346,-0.5630,-0.2988,0.0282,
3.096457,-0.1595,0.9499,-0.1178,0.5083,0.8881,-0.5346,-0.5630,-0.2988,0.0282,
3.098085,-0.1595,0.9499,-0.1178,-0.3726,-0.4111,-0.6268,-0.5630,-0.2988,0.0282,
3.099673,-0.1595,0.9499,-0.1178,-0.3726,-0.4111,-0.6268,-0.5177,-0.0234,-0.0192,
3.115104,-0.1595,0.9499,-0.1178,-0.3726,-0.4111,-0.6268,-0.4746,-0.0352,-0.0863,
3.135448,-0.2362,0.8668,-0.1554,-0.3726,-0.4111,-0.6268,-0.4746,-0.0352,-0.0863,
3.137333,-0.2362,0.8668,-0.1554,-1.0870,-1.2278,-1.1525,-0.4746,-0.0352,-0.0863,
3.139272,-0.2362,0.8668,-0.1554,-1.0870,-1.2278,-1.1525,-0.5236,-0.1854,-0.0937,
3.156117,-0.2362,0.8668,-0.1554,-1.0870,-1.2278,-1.1525,-0.4847,-0.2221,-0.0399,
3.175547,-0.2582,0.9621,-0.1173,-1.0870,-1.2278,-1.1525,-0.4847,-0.2221,-0.0399,
3.177950,-0.2582,0.9621,-0.1173,-1.2454,-0.2915,-0.9428,-0.4847,-0.2221,-0.0399,
3.179694,-0.2582,0.9621,-0.1173,-1.2454,-0.2915,-0.9428,-0.3723,-0.3079,0.0037,
3.195413,-0.2582,0.9621,-0.1173,-1.2454,-0.2915,-0.9428,-0.3159,-0.4373,0.0644,
3.215623,-0.2411,1.0266,-0.1094,-1.2454,-0.2915,-0.9428,-0.3159,-0.4373,0.0644,
3.218519,-0.2411,1.0266,-0.1094,-1.0592,0.3413,-0.9797,-0.3159,-0.4373,0.0644,
3.220485,-0.2411,1.0266,-0.1094,-1.0592,0.3413,-0.9797,-0.3611,-0.4703,0.0836,
3.235600,-0.2411,1.0266,-0.1094,-1.0592,0.3413,-0.9797,-0.3659,-0.3846,0.0533,
3.256061,-0.2228,1.0828,-0.0750,-1.0592,0.3413,-0.9797,-0.3659,-0.3846,0.0533,
3.258810,-0.2228,1.0828,-0.0750,-0.1892,1.0486,0.1320,-0.3659,-0.3846,0.0533,
3.260572,-0.2228,1.0828,-0.0750,-0.1892,1.0486,0.1320,-0.2567,-0.3819,0.0091,
3.275225,-0.2228,1.0828,-0.0750,-0.1892,1.0486,0.1320,-0.2434,-0.4224,0.0288,
3.295680,-0.2143,1.0337,-0.1380,-0.1892,1.0486,0.1320,-0.2434,-0.4224,0.0288,
3.298483,-0.2143,1.0337,-0.1380,-0.0738,0.5911,-0.3144,-0.2434,-0.4224,0.0288,
3.300416,-0.2143,1.0337,-0.1380,-0.0738,0.5911,-0.3144,-0.3276,-0.3654,0.0213,
3.315478,-0.2143,1.0337,-0.1380,-0.0738,0.5911,-0.3144,-0.4112,-0.3941,0.0399,
3.336375,-0.2177,0.9462,-0.1160,-0.0738,0.5911,-0.3144,-0.4112,-0.3941,0.0399,
3.338584,-0.2177,0.9462,-0.1160,-0.0397,-0.2413,-0.0098,-0.4112,-0.3941,0.0399,
3.340474,-0.2177,0.9462,-0.1160,-0.0397,-0.2413,-0.0098,-0.4618,-0.4304,0.0666,
3.355982,-0.2177,0.9462,-0.1160,-0.0397,-0.2413,-0.0098,-0.5486,-0.4906,0.1316,
3.376180,-0.2270,0.9291,-0.0999,-0.0397,-0.2413,-0.0098,-0.5486,-0.4906,0.1316,
3.378760,-0.2270,0.9291,-0.0999,-0.1470,-0.4365,-0.0778,-0.5486,-0.4906,0.1316,
3.380464,-0.2270,0.9291,-0.0999,-0.1470,-0.4365,-0.0778,-0.6274,-0.4416,0.1635,
3.395800,-0.2270,0.9291,-0.0999,-0.1470,-0.4365,-0.0778,-0.7052,-0.4112,0.1555,
3.415078,-0.2824,0.9438,-0.0674,-0.1470,-0.4365,-0.0778,-0.7052,-0.4112,0.1555,
3.417855,-0.2824,0.9438,-0.0674,-0.7228,-0.3220,-0.0378,-0.7052,-0.4112,0.1555,
3.419423,-0.2824,0.9438,-0.0674,-0.7228,-0.3220,-0.0378,-0.7697,-0.3622,0.1816,
3.435572,-0.2824,0.9438,-0.0674,-0.7228,-0.3220,-0.0378,-0.8080,-0.3068,0.2253,
3.454869,-0.2502,0.9462,-0.0200,-0.7228,-0.3220,-0.0378,-0.8080,-0.3068,0.2253,
3.457506,-0.2502,0.9462,-0.0200,0.0247,-0.1967,0.4100,-0.8080,-0.3068,0.2253,
3.459117,-0.2502,0.9462,-0.0200,0.0247,-0.1967,0.4100,-0.8256,-0.3143,0.2200,
3.475488,-0.2502,0.9462,-0.0200,0.0247,-0.1967,0.4100,-0.8538,-0.3377,0.1992,
3.495330,-0.2304,0.9379,0.0056,0.0247,-0.1967,0.4100,-0.8538,-0.3377,0.1992,
3.497766,-0.2304,0.9379,0.0056,0.1503,-0.3110,0.3333,-0.8538,-0.3377,0.1992,
3.499600,-0.2304,0.9379,0.0056,0.1503,-0.3110,0.3333,-0.8996,-0.2423,0.1470,
3.514877,-0.2304,0.9379,0.0056,0.1503,-0.3110,0.3333,-0.9012,-0.1981,0.1023,
3.536366,-0.2453,0.9545,0.0327,0.1503,-0.3110,0.3333,-0.9012,-0.1981,0.1023,
3.539693,-0.2453,0.9545,0.0327,0.0040,-0.1523,0.3236,-0.9012,-0.1981,0.1023,
3.541545,-0.2453,0.9545,0.0327,0.0040,-0.1523,0.3236,-0.9215,-0.1854,0.0671,
3.554983,-0.2453,0.9545,0.0327,0.0040,-0.1523,0.3236,-0.9454,-0.1886,0.0538,
3.575757,-0.2475,0.9557,0.0655,0.0040,-0.1523,0.3236,-0.9454,-0.1886,0.0538,
3.579655,-0.2475,0.9557,0.0655,-0.0382,-0.1387,0.2792,-0.9454,-0.1886,0.0538,
3.581382,-0.2475,0.9557,0.0655,-0.0382,-0.1387,0.2792,-0.9667,-0.2360,0.0783,
3.594986,-0.2475,0.9557,0.0655,-0.0382,-0.1387,0.2792,-0.9971,-0.2988,0.0703,
3.615276,-0.2533,0.9704,0.0823,-0.0382,-0.1387,0.2792,-0.9971,-0.2988,0.0703,
3.617448,-0.2533,0.9704,0.0823,-0.1143,0.0207,0.0877,-0.9971,-0.2988,0.0703,
3.619102,-0.2533,0.9704,0.0823,-0.1143,0.0207,0.0877,-1.0408,-0.3483,0.0964,
3.635310,-0.2533,0.9704,0.0823,-0.1143,0.0207,0.0877,-1.0541,-0.3957,0.1582,
3.655630,-0.2426,0.9824,0.1004,-0.1143,0.0207,0.0877,-1.0541,-0.3957,0.1582,
3.658871,-0.2426,0.9824,0.1004,-0.0514,0.1597,-0.0787,-1.0541,-0.3957,0.1582,
3.660652,-0.2426,0.9824,0.1004,-0.0514,0.1597,-0.0787,-1.0733,-0.4810,0.1944,
3.675161,-0.2426,0.9824,0.1004,-0.0514,0.1597,-0.0787,-1.1436,-0.6498,0.1997,
3.694942,-0.2853,0.9740,0.1060,-0.0514,0.1597,-0.0787,-1.1436,-0.6498,0.1997,
3.698348,-0.2853,0.9740,0.1060,-0.5622,0.1167,-0.4684,-1.1436,-0.6498,0.1997,
3.700403,-0.2853,0.9740,0.1060,-0.5622,0.1167,-0.4684,-1.3156,-0.8165,0.1901,
3.714830,-0.2853,0.9740,0.1060,-0.5622,0.1167,-0.4684,-1.5026,-0.8288,0.2407,
3.735589,-0.3286,0.9218,0.2978,-0.5622,0.1167,-0.4684,-1.5026,-0.8288,0.2407,
3.737893,-0.3286,0.9218,0.2978,-1.0988,-0.3095,0.8255,-1.5026,-0.8288,0.2407,
3.739507,-0.3286,0.9218,0.2978,-1.0988,-0.3095,0.8255,-1.5164,-0.6051,0.3009,
3.755066,-0.3286,0.9218,0.2978,-1.0988,-0.3095,0.8255,-1.3779,-0.4698,0.2887,
3.775168,-0.4248,0.9526,0.5978,-1.0988,-0.3095,0.8255,-1.3779,-0.4698,0.2887,
3.777490,-0.4248,0.9526,0.5978,-2.1893,0.1107,3.1782,-1.3779,-0.4698,0.2887,
3.779142,-0.4248,0.9526,0.5978,-2.1893,0.1107,3.1782,-1.0312,-0.5715,0.3531,
3.795520,-0.4248,0.9526,0.5978,-2.1893,0.1107,3.1782,-0.4852,-0.5902,0.5188,
3.815627,-0.2856,0.9452,0.8121,-2.1893,0.1107,3.1782,-0.4852,-0.5902,0.5188,
3.819435,-0.2856,0.9452,0.8121,-1.0511,0.0924,4.9562,-0.4852,-0.5902,0.5188,
3.821248,-0.2856,0.9452,0.8121,-1.0511,0.0924,4.9562,0.2407,-0.3952,0.5923,
3.835047,-0.2856,0.9452,0.8121,-1.0511,0.0924,4.9562,0.7425,-0.3340,0.3435,
3.855446,-0.1309,0.9591,0.6462,-1.0511,0.0924,4.9562,0.7425,-0.3340,0.3435,
3.857687,-0.1309,0.9591,0.6462,0.2494,0.1407,3.4879,0.7425,-0.3340,0.3435,
3.859191,-0.1309,0.9591,0.6462,0.2494,0.1407,3.4879,0.8996,-0.4458,0.0799,
3.875411,-0.1309,0.9591,0.6462,0.2494,0.1407,3.4879,0.8751,-0.6152,0.1017,
3.894605,-0.0687,0.9943,0.3843,0.2494,0.1407,3.4879,0.8751,-0.6152,0.1017,
3.898277,-0.0687,0.9943,0.3843,0.7694,0.3846,1.2196,0.8751,-0.6152,0.1017,
3.900134,-0.0687,0.9943,0.3843,0.7694,0.3846,1.2196,0.7627,-0.3824,0.1763,
3.914654,-0.0687,0.9943,0.3843,0.7694,0.3846,1.2196,0.7611,0.0948,0.1523,
3.935068,-0.0559,0.8631,0.2812,0.7694,0.3846,1.2196,0.7611,0.0948,0.1523,
3.937002,-0.0559,0.8631,0.2812,0.8110,-0.9708,0.4305,0.7611,0.0948,0.1523,
3.938632,-0.0559,0.8631,0.2812,0.8110,-0.9708,0.4305,0.8661,0.3776,0.1561,
3.954745,-0.0559,0.8631,0.2812,0.8110,-0.9708,0.4305,1.0141,0.2562,0.2045,
3.974841,0.0740,0.7456,0.2883,0.8110,-0.9708,0.4305,1.0141,0.2562,0.2045,
3.976810,0.0740,0.7456,0.2883,2.0367,-2.2103,0.8578,1.0141,0.2562,0.2045,
3.978434,0.0740,0.7456,0.2883,2.0367,-2.2103,0.8578,1.1239,-0.2205,0.2679,
3.994623,0.0740,0.7456,0.2883,2.0367,-2.2103,0.8578,1.1627,-0.5555,0.2615,
4.014479,0.0860,0.8871,0.3450,2.0367,-2.2103,0.8578,1.1627,-0.5555,0.2615,
4.016775,0.0860,0.8871,0.3450,2.0103,-0.9150,1.8037,1.1627,-0.5555,0.2615,
4.018556,0.0860,0.8871,0.3450,2.0103,-0.9150,1.8037,1.1750,-0.4607,0.1507,
4.034957,0.0860,0.8871,0.3450,2.0103,-0.9150,1.8037,1.1329,-0.3148,0.0676,
4.054908,0.1270,1.1636,0.3867,2.0103,-0.9150,1.8037,1.1329,-0.3148,0.0676,
4.057122,0.1270,1.1636,0.3867,2.3266,1.7286,2.6089,1.1329,-0.3148,0.0676,
4.058669,0.1270,1.1636,0.3867,2.3266,1.7286,2.6089,0.8975,-0.1230,-0.0080,
4.073804,0.1270,1.1636,0.3867,2.3266,1.7286,2.6089,0.8021,0.1635,0.0304,
4.094707,0.1837,1.2677,0.4038,2.3266,1.7286,2.6089,0.8021,0.1635,0.0304,
4.098315,0.1837,1.2677,0.4038,2.8780,2.7135,3.1062,0.8021,0.1635,0.0304,
4.100146,0.1837,1.2677,0.4038,2.8780,2.7135,3.1062,0.9806,0.3159,0.2045,
4.114558,0.1837,1.2677,0.4038,2.8780,2.7135,3.1062,1.1516,0.3249,0.4059,
4.135093,0.1583,1.2105,0.3689,2.8780,2.7135,3.1062,1.1516,0.3249,0.4059,
4.137331,0.1583,1.2105,0.3689,2.5187,2.1137,3.1910,1.1516,0.3249,0.4059,
4.138888,0.1583,1.2105,0.3689,2.5187,2.1137,3.1910,1.3555,0.1891,0.4943,
4.154268,0.1583,1.2105,0.3689,2.5187,2.1137,3.1910,1.6576,0.0415,0.4602,
4.175376,-0.0525,1.2411,0.3174,2.5187,2.1137,3.1910,1.6576,0.0415,0.4602,
4.178915,-0.0525,1.2411,0.3174,0.2675,2.3886,3.2776,1.6576,0.0415,0.4602,
4.180423,-0.0525,1.2411,0.3174,0.2675,2.3886,3.2776,2.0064,0.0921,0.4224,
4.193853,-0.0525,1.2411,0.3174,0.2675,2.3886,3.2776,2.3052,0.0426,0.4618,
4.214286,-0.0533,1.2677,0.1864,0.2675,2.3886,3.2776,2.3052,0.0426,0.4618,
4.217119,-0.0533,1.2677,0.1864,0.0866,2.6880,2.8367,2.3052,0.0426,0.4618,
4.218869,-0.0533,1.2677,0.1864,0.0866,2.6880,2.8367,2.3665,0.0405,0.7691,
4.233990,-0.0533,1.2677,0.1864,0.0866,2.6880,2.8367,1.9745,0.0613,0.9028,
4.254946,0.4173,0.7942,-0.0430,0.0866,2.6880,2.8367,1.9745,0.0613,0.9028,
4.256872,0.4173,0.7942,-0.0430,4.3532,-1.8487,1.4010,1.9745,0.0613,0.9028,
4.258557,0.4173,0.7942,-0.0430,4.3532,-1.8487,1.4010,1.5361,0.3819,0.8293,
4.273825,0.4173,0.7942,-0.0430,4.3532,-1.8487,1.4010,1.2900,0.7787,0.5007,
4.293962,0.5172,0.7522,-0.2253,4.3532,-1.8487,1.4010,1.2900,0.7787,0.5007,
4.297116,0.5172,0.7522,-0.2253,4.9697,-2.1539,0.1212,1.2900,0.7787,0.5007,
4.298887,0.5172,0.7522,-0.2253,4.9697,-2.1539,0.1212,1.0743,0.8442,0.1108,
4.314152,0.5172,0.7522,-0.2253,4.9697,-2.1539,0.1212,0.7111,0.6860,-0.0900,
4.334479,0.3562,0.7876,-0.5333,4.9697,-2.1539,0.1212,0.7111,0.6860,-0.0900,
4.336560,0.3562,0.7876,-0.5333,3.2588,-1.7169,-2.5652,0.7111,0.6860,-0.0900,
4.338434,0.3562,0.7876,-0.5333,3.2588,-1.7169,-2.5652,0.0447,0.7025,-0.2509,
4.353907,0.3562,0.7876,-0.5333,3.2588,-1.7169,-2.5652,-0.6136,0.7148,-0.3238,
4.373946,0.1649,0.6748,-0.5507,3.2588,-1.7169,-2.5652,-0.6136,0.7148,-0.3238,
4.376237,0.1649,0.6748,-0.5507,1.4146,-2.8544,-2.8467,-0.6136,0.7148,-0.3238,
4.378090,0.1649,0.6748,-0.5507,1.4146,-2.8544,-2.8467,-1.1356,0.4762,-0.3451,
4.393499,0.1649,0.6748,-0.5507,1.4146,-2.8544,-2.8467,-1.5345,-0.5747,-0.2482,
4.413970,0.0662,0.7153,-0.2599,1.4146,-2.8544,-2.8467,-1.5345,-0.5747,-0.2482,
4.417291,0.0662,0.7153,-0.2599,0.5620,-2.5812,-0.5061,-1.5345,-0.5747,-0.2482,
4.419149,0.0662,0.7153,-0.2599,0.5620,-2.5812,-0.5061,-1.5793,-1.1121,-0.1374,
4.433888,0.0662,0.7153,-0.2599,0.5620,-2.5812,-0.5061,-1.5127,-1.1404,-0.1150,
4.455098,0.1998,0.6762,0.0975,0.5620,-2.5812,-0.5061,-1.5127,-1.1404,-0.1150,
4.457361,0.1998,0.6762,0.0975,1.9985,-3.0722,2.4017,-1.5127,-1.1404,-0.1150,
4.458993,0.1998,0.6762,0.0975,1.9985,-3.0722,2.4017,-1.2964,-0.9816,-0.1055,
4.473753,0.1998,0.6762,0.0975,1.9985,-3.0722,2.4017,-0.8884,-0.6748,-0.1774,
4.493751,0.0923,0.8436,0.2047,1.9985,-3.0722,2.4017,-0.8884,-0.6748,-0.1774,
4.496755,0.0923,0.8436,0.2047,1.0409,-1.4854,3.0255,-0.8884,-0.6748,-0.1774,
4.499096,0.0923,0.8436,0.2047,1.0409,-1.4854,3.0255,-0.3601,-0.6077,-0.1534,
4.513299,0.0923,0.8436,0.2047,1.0409,-1.4854,3.0255,-0.0378,-0.5534,-0.1726,
4.533373,0.0589,0.8094,-0.0726,1.0409,-1.4854,3.0255,-0.0378,-0.5534,-0.1726,
4.536017,0.0589,0.8094,-0.0726,0.7987,-1.8272,0.2265,-0.0378,-0.5534,-0.1726,
4.538203,0.0589,0.8094,-0.0726,0.7987,-1.8272,0.2265,-0.0277,-0.3989,-0.1774,
4.553630,0.0589,0.8094,-0.0726,0.7987,-1.8272,0.2265,-0.1007,-0.2301,-0.1726,
4.573389,-0.0193,0.9574,-0.0992,0.7987,-1.8272,0.2265,-0.1007,-0.2301,-0.1726,
4.575329,-0.0193,0.9574,-0.0992,0.1125,-0.3769,-0.0628,-0.1007,-0.2301,-0.1726,
4.577164,-0.0193,0.9574,-0.0992,0.1125,-0.3769,-0.0628,-0.2008,-0.1752,-0.1635,
4.593347,-0.0193,0.9574,-0.0992,0.1125,-0.3769,-0.0628,-0.2589,-0.1454,-0.0415,
4.613689,0.1011,1.0019,-0.0371,0.1125,-0.3769,-0.0628,-0.2589,-0.1454,-0.0415,
4.616005,0.1011,1.0019,-0.0371,1.3269,0.0516,0.4508,-0.2589,-0.1454,-0.0415,
4.617692,0.1011,1.0019,-0.0371,1.3269,0.0516,0.4508,-0.4165,-0.0767,-0.1161,
4.634224,0.1011,1.0019,-0.0371,1.3269,0.0516,0.4508,-0.4943,0.1816,-0.0751,
4.653569,0.0340,1.4754,0.0814,1.3269,0.0516,0.4508,-0.4943,0.1816,-0.0751,
4.655691,0.0340,1.4754,0.0814,0.7045,4.6798,1.4350,-0.4943,0.1816,-0.0751,
4.657366,0.0340,1.4754,0.0814,0.7045,4.6798,1.4350,-0.3563,-0.3153,0.3446,
4.673446,0.0340,1.4754,0.0814,0.7045,4.6798,1.4350,-0.6525,-0.4703,0.4421,
4.693241,0.4256,0.9240,0.1278,0.7045,4.6798,1.4350,-0.6525,-0.4703,0.4421,
4.695641,0.4256,0.9240,0.1278,4.3804,-0.7402,1.6806,-0.6525,-0.4703,0.4421,
4.697335,0.4256,0.9240,0.1278,4.3804,-0.7402,1.6806,-1.1196,-0.1055,0.2061,
4.713434,0.4256,0.9240,0.1278,4.3804,-0.7402,1.6806,-1.0045,0.1928,-0.0282,
4.732444,0.0865,0.7981,0.2384,4.3804,-0.7402,1.6806,-1.0045,0.1928,-0.0282,
4.734126,0.0865,0.7981,0.2384,0.9730,-1.9840,2.3110,-1.0045,0.1928,-0.0282,
4.735033,0.0865,0.7981,0.2384,0.9730,-1.9840,2.3110,-0.5055,0.3127,-0.0810,
4.753160,0.0865,0.7981,0.2384,0.9730,-1.9840,2.3110,-0.2583,0.2519,0.0501,
4.773641,0.0992,0.9188,0.0154,0.9730,-1.9840,2.3110,-0.2583,0.2519,0.0501,
4.775799,0.0992,0.9188,0.0154,1.0760,-0.7997,-0.0361,-0.2583,0.2519,0.0501,
4.777706,0.0992,0.9188,0.0154,1.0760,-0.7997,-0.0361,-0.4139,0.1790,0.1108,
4.793369,0.0992,0.9188,0.0154,1.0760,-0.7997,-0.0361,-0.6716,0.2093,0.0687,
4.812769,0.0513,0.9887,0.0821,1.0760,-0.7997,-0.0361,-0.6716,0.2093,0.0687,
4.815049,0.0513,0.9887,0.0821,0.5456,-0.1086,0.3939,-0.6716,0.2093,0.0687,
4.816678,0.0513,0.9887,0.0821,0.5456,-0.1086,0.3939,-0.7260,0.1204,0.0703,
4.832588,0.0513,0.9887,0.0821,0.5456,-0.1086,0.3939,-0.6962,0.0687,0.0543,
4.853147,0.0318,0.9232,0.1652,0.5456,-0.1086,0.3939,-0.6962,0.0687,0.0543,
4.855298,0.0318,0.9232,0.1652,0.3163,-0.7340,0.9190,-0.6962,0.0687,0.0543,
4.856956,0.0318,0.9232,0.1652,0.3163,-0.7340,0.9190,-0.5422,0.1641,0.0399,
4.873243,0.0318,0.9232,0.1652,0.3163,-0.7340,0.9190,-0.4474,0.2354,0.0085,
4.892989,-0.0428,1.0324,0.1652,0.3163,-0.7340,0.9190,-0.4474,0.2354,0.0085,
4.895534,-0.0428,1.0324,0.1652,-0.4247,0.3535,0.7086,-0.4474,0.2354,0.0085,
4.897081,-0.0428,1.0324,0.1652,-0.4247,0.3535,0.7086,-0.4432,0.3281,0.0453,
4.913841,-0.0428,1.0324,0.1652,-0.4247,0.3535,0.7086,-0.4479,0.3702,0.0948,
4.932872,-0.0210,1.0210,0.2035,-0.4247,0.3535,0.7086,-0.4479,0.3702,0.0948,
4.934945,-0.0210,1.0210,0.2035,-0.2254,0.2609,0.8920,-0.4479,0.3702,0.0948,
4.936522,-0.0210,1.0210,0.2035,-0.2254,0.2609,0.8920,-0.4666,0.3345,0.1635,
4.953221,-0.0210,1.0210,0.2035,-0.2254,0.2609,0.8920,-0.4160,0.3680,0.2210,
4.972436,0.0481,0.9643,0.2001,-0.2254,0.2609,0.8920,-0.4160,0.3680,0.2210,
4.974601,0.0481,0.9643,0.2001,0.2510,-0.1926,0.1879,-0.4160,0.3680,0.2210,
4.976085,0.0481,0.9643,0.2001,0.2510,-0.1926,0.1879,-0.3366,0.3372,0.2232,
4.993447,0.0481,0.9643,0.2001,0.2510,-0.1926,0.1879,-0.3041,0.3244,0.2253,
5.014293,0.0760,0.9142,0.1722,0.2510,-0.1926,0.1879,-0.3041,0.3244,0.2253,
5.016771,0.0760,0.9142,0.1722,0.3102,-0.6703,-0.1165,-0.3041,0.3244,0.2253,
5.018669,0.0760,0.9142,0.1722,0.3102,-0.6703,-0.1165,-0.2999,0.3611,0.1981,
5.032733,0.0760,0.9142,0.1722,0.3102,-0.6703,-0.1165,-0.2732,0.3595,0.1438,
5.052324,0.0672,0.8868,0.1744,0.3102,-0.6703,-0.1165,-0.2732,0.3595,0.1438,
5.054631,0.0672,0.8868,0.1744,0.1819,-0.9145,-0.2086,-0.2732,0.3595,0.1438,
5.056429,0.0672,0.8868,0.1744,0.1819,-0.9145,-0.2086,-0.2317,0.3505,0.0943,
5.072581,0.0672,0.8868,0.1744,0.1819,-0.9145,-0.2086,-0.1683,0.3755,0.0804,
5.092555,0.0357,0.9679,0.1673,0.1819,-0.9145,-0.2086,-0.1683,0.3755,0.0804,
5.095733,0.0357,0.9679,0.1673,-0.1315,-0.1066,-0.3410,-0.1683,0.3755,0.0804,
5.097671,0.0357,0.9679,0.1673,-0.1315,-0.1066,-0.3410,-0.0895,0.4336,0.0602,
5.114538,0.0357,0.9679,0.1673,-0.1315,-0.1066,-0.3410,-0.0575,0.4416,0.0043,
5.133014,0.0083,1.0222,0.1424,-0.1315,-0.1066,-0.3410,-0.0575,0.4416,0.0043,
5.136809,0.0083,1.0222,0.1424,-0.3483,0.4139,-0.5431,-0.0575,0.4416,0.0043,
5.139436,0.0083,1.0222,0.1424,-0.3483,0.4139,-0.5431,-0.1044,0.4320,-0.0527,
5.152147,0.0083,1.0222,0.1424,-0.3483,0.4139,-0.5431,-0.2115,0.3670,-0.0948,
5.172848,-0.0173,1.0581,0.1730,-0.3483,0.4139,-0.5431,-0.2115,0.3670,-0.0948,
5.175307,-0.0173,1.0581,0.1730,-0.4985,0.7625,-0.2471,-0.2115,0.3670,-0.0948,
5.177120,-0.0173,1.0581,0.1730,-0.4985,0.7625,-0.2471,-0.3329,0.2684,-0.0756,
5.192696,-0.0173,1.0581,0.1730,-0.4985,0.7625,-0.2471,-0.4176,0.2178,-0.0506,
5.213199,-0.0134,0.9858,0.2194,-0.4985,0.7625,-0.2471,-0.4176,0.2178,-0.0506,
5.215795,-0.0134,0.9858,0.2194,-0.4071,0.0810,0.0699,-0.4176,0.2178,-0.0506,
5.217515,-0.0134,0.9858,0.2194,-0.4071,0.0810,0.0699,-0.4618,0.2258,-0.0607,
5.232788,-0.0134,0.9858,0.2194,-0.4071,0.0810,0.0699,-0.4831,0.2083,-0.0655,
5.251831,-0.0308,0.9347,0.2355,-0.4071,0.0810,0.0699,-0.4831,0.2083,-0.0655,
5.253573,-0.0308,0.9347,0.2355,-0.1702,-0.4272,0.2504,-0.4831,0.2083,-0.0655,
5.254732,-0.0308,0.9347,0.2355,-0.1702,-0.4272,0.2504,-0.5076,0.1720,-0.0368,
5.271756,-0.0308,0.9347,0.2355,-0.1702,-0.4272,0.2504,-0.5673,0.1023,-0.0021,
5.291637,-0.0147,0.9169,0.2712,-0.1702,-0.4272,0.2504,-0.5673,0.1023,-0.0021,
5.293612,-0.0147,0.9169,0.2712,0.0018,-0.5443,0.3483,-0.5673,0.1023,-0.0021,
5.294696,-0.0147,0.9169,0.2712,0.0018,-0.5443,0.3483,-0.6290,0.0996,0.0218,
5.312598,-0.0147,0.9169,0.2712,0.0018,-0.5443,0.3483,-0.6088,0.1497,-0.0005,
5.331771,0.0572,0.9254,0.3804,0.0018,-0.5443,0.3483,-0.6088,0.1497,-0.0005,
5.333614,0.0572,0.9254,0.3804,0.3947,-0.2770,0.7629,-0.6088,0.1497,-0.0005,
5.334688,0.0572,0.9254,0.3804,0.3947,-0.2770,0.7629,-0.5055,0.1369,-0.0543,
5.351544,0.0572,0.9254,0.3804,0.3947,-0.2770,0.7629,-0.3606,0.1944,-0.1214,
5.372394,0.0435,0.9430,0.4566,0.3947,-0.2770,0.7629,-0.3606,0.1944,-0.1214,
5.374400,0.0435,0.9430,0.4566,0.2843,-0.0253,1.2695,-0.3606,0.1944,-0.1214,
5.376035,0.0435,0.9430,0.4566,0.2843,-0.0253,1.2695,-0.2274,0.2285,-0.1582,
5.392654,0.0435,0.9430,0.4566,0.2843,-0.0253,1.2695,-0.1113,0.4266,-0.1177,
5.412487,0.0826,0.9188,0.5326,0.2843,-0.0253,1.2695,-0.1113,0.4266,-0.1177,
5.414506,0.0826,0.9188,0.5326,0.7483,-0.2318,1.9245,-0.1113,0.4266,-0.1177,
5.416262,0.0826,0.9188,0.5326,0.7483,-0.2318,1.9245,0.1289,0.6674,-0.1087,
5.433220,0.0826,0.9188,0.5326,0.7483,-0.2318,1.9245,0.4282,0.7015,-0.0778,
5.452455,0.0689,0.9557,0.4696,0.7483,-0.2318,1.9245,0.4282,0.7015,-0.0778,
5.454427,0.0689,0.9557,0.4696,0.7242,0.1017,1.3864,0.4282,0.7015,-0.0778,
5.456001,0.0689,0.9557,0.4696,0.7242,0.1017,1.3864,0.5965,0.6195,-0.0261,
5.471817,0.0689,0.9557,0.4696,0.7242,0.1017,1.3864,0.5465,0.5832,0.0517,
5.491979,0.0804,1.0366,0.4456,0.7242,0.1017,1.3864,0.5465,0.5832,0.0517,
5.493782,0.0804,1.0366,0.4456,0.9011,0.8257,1.3579,0.5465,0.5832,0.0517,
5.495256,0.0804,1.0366,0.4456,0.9011,0.8257,1.3579,0.4229,0.6637,0.0517,
5.511859,0.0804,1.0366,0.4456,0.9011,0.8257,1.3579,0.3899,0.7398,-0.0447,
5.531612,0.0889,1.0100,0.4920,0.9011,0.8257,1.3579,0.3899,0.7398,-0.0447,
5.533420,0.0889,1.0100,0.4920,1.0657,0.5172,1.9689,0.3899,0.7398,-0.0447,
5.534907,0.0889,1.0100,0.4920,1.0657,0.5172,1.9689,0.5683,0.7089,-0.1598,
5.551368,0.0889,1.0100,0.4920,1.0657,0.5172,1.9689,0.7894,0.6551,-0.2418,
5.571190,0.0171,0.9655,0.3985,1.0657,0.5172,1.9689,0.7894,0.6551,-0.2418,
5.572822,0.0171,0.9655,0.3985,0.5038,0.0135,1.3002,0.7894,0.6551,-0.2418,
5.573887,0.0171,0.9655,0.3985,0.5038,0.0135,1.3002,0.9284,0.6013,-0.2828,
5.591881,0.0171,0.9655,0.3985,0.5038,0.0135,1.3002,0.9662,0.4373,-0.3079,
5.611874,-0.0728,1.0105,0.2631,0.5038,0.0135,1.3002,0.9662,0.4373,-0.3079,
5.614919,-0.0728,1.0105,0.2631,-0.2228,0.3715,0.3222,0.9662,0.4373,-0.3079,
5.617026,-0.0728,1.0105,0.2631,-0.2228,0.3715,0.3222,0.8650,0.3318,-0.1630,
5.631915,-0.0728,1.0105,0.2631,-0.2228,0.3715,0.3222,0.6546,0.2589,0.0399,
5.651442,-0.0064,0.9181,0.2016,-0.2228,0.3715,0.3222,0.6546,0.2589,0.0399,
5.653725,-0.0064,0.9181,0.2016,0.4577,-0.5901,-0.0198,0.6546,0.2589,0.0399,
5.655319,-0.0064,0.9181,0.2016,0.4577,-0.5901,-0.0198,0.5161,0.2264,0.1459,
5.671594,-0.0064,0.9181,0.2016,0.4577,-0.5901,-0.0198,0.4405,0.2658,0.2392,
5.690944,0.1031,0.7654,0.1759,0.4577,-0.5901,-0.0198,0.4405,0.2658,0.2392,
5.692637,0.1031,0.7654,0.1759,1.4711,-2.1261,-0.0863,0.4405,0.2658,0.2392,
5.693771,0.1031,0.7654,0.1759,1.4711,-2.1261,-0.0863,0.2461,0.3169,0.2210,
5.711685,0.1031,0.7654,0.1759,1.4711,-2.1261,-0.0863,0.1236,0.3297,0.1694,
5.730957,-0.1207,1.1060,0.2309,1.4711,-2.1261,-0.0863,0.1236,0.3297,0.1694,
5.732738,-0.1207,1.1060,0.2309,-0.7795,1.1989,0.5064,0.1236,0.3297,0.1694,
5.733800,-0.1207,1.1060,0.2309,-0.7795,1.1989,0.5064,0.0751,0.2216,0.1933,
5.751791,-0.1207,1.1060,0.2309,-0.7795,1.1989,0.5064,0.0229,0.0517,0.2839,
5.771651,-0.0894,1.0725,0.3230,-0.7795,1.1989,0.5064,0.0229,0.0517,0.2839,
5.773811,-0.0894,1.0725,0.3230,-0.5521,0.8668,1.4149,0.0229,0.0517,0.2839,
5.775396,-0.0894,1.0725,0.3230,-0.5521,0.8668,1.4149,0.1188,-0.1001,0.3558,
5.791544,-0.0894,1.0725,0.3230,-0.5521,0.8668,1.4149,0.2221,-0.2013,0.4320,
5.811162,-0.0493,0.9650,0.2511,-0.5521,0.8668,1.4149,0.2221,-0.2013,0.4320,
5.813797,-0.0493,0.9650,0.2511,-0.3121,-0.1979,0.7518,0.2221,-0.2013,0.4320,
5.815533,-0.0493,0.9650,0.2511,-0.3121,-0.1979,0.7518,0.2525,-0.1933,0.5667,
5.833252,-0.0493,0.9650,0.2511,-0.3121,-0.1979,0.7518,0.2099,-0.2365,0.6711,
5.851984,-0.0518,1.0056,0.1803,-0.3121,-0.1979,0.7518,0.2099,-0.2365,0.6711,
5.855623,-0.0518,1.0056,0.1803,-0.5721,0.1858,0.1295,0.2099,-0.2365,0.6711,
5.857404,-0.0518,1.0056,0.1803,-0.5721,0.1858,0.1295,0.1880,-0.2296,0.7441,
5.871278,-0.0518,1.0056,0.1803,-0.5721,0.1858,0.1295,0.1513,-0.2594,0.7840,
5.891930,0.0054,1.0393,0.1608,-0.5721,0.1858,0.1295,0.1513,-0.2594,0.7840,
5.894614,0.0054,1.0393,0.1608,-0.3064,0.5127,-0.0026,0.1513,-0.2594,0.7840,
5.896340,0.0054,1.0393,0.1608,-0.3064,0.5127,-0.0026,0.1305,-0.3590,0.8725,
5.911192,0.0054,1.0393,0.1608,-0.3064,0.5127,-0.0026,0.0581,-0.5720,0.8362,
5.931610,0.0801,1.0273,0.1722,-0.3064,0.5127,-0.0026,0.0581,-0.5720,0.8362,
5.934890,0.0801,1.0273,0.1722,0.0812,0.4078,0.1507,0.0581,-0.5720,0.8362,
5.936558,0.0801,1.0273,0.1722,0.0812,0.4078,0.1507,0.0655,-0.5374,0.8282,
5.952019,0.0801,1.0273,0.1722,0.0812,0.4078,0.1507,0.1065,-0.3521,0.7798,
5.971886,0.1422,1.0920,0.1976,0.0812,0.4078,0.1507,0.1065,-0.3521,0.7798,
5.973960,0.1422,1.0920,0.1976,0.3569,1.0652,0.4449,0.1065,-0.3521,0.7798,
5.975429,0.1422,1.0920,0.1976,0.3569,1.0652,0.4449,0.1481,-0.3638,0.7047,
5.991840,0.1422,1.0920,0.1976,0.3569,1.0652,0.4449,0.2402,-0.4549,0.6099,
6.011770,0.2634,1.0163,0.1720,0.3569,1.0652,0.4449,0.2402,-0.4549,0.6099,
6.013823,0.2634,1.0163,0.1720,1.1942,0.3843,0.0869,0.2402,-0.4549,0.6099,
6.015283,0.2634,1.0163,0.1720,1.1942,0.3843,0.0869,0.2354,-0.5513,0.4927,
6.031542,0.2634,1.0163,0.1720,1.1942,0.3843,0.0869,0.1641,-0.5396,0.2903,
6.051517,0.2470,0.9027,0.1402,1.1942,0.3843,0.0869,0.1641,-0.5396,0.2903,
6.053535,0.2470,0.9027,0.1402,0.8396,-0.7158,-0.1195,0.1641,-0.5396,0.2903,
6.055438,0.2470,0.9027,0.1402,0.8396,-0.7158,-0.1195,0.0863,-0.5129,0.1662,
6.070765,0.2470,0.9027,0.1402,0.8396,-0.7158,-0.1195,0.0320,-0.3798,0.1150,
6.091887,0.1757,0.9794,0.1104,0.8396,-0.7158,-0.1195,0.0320,-0.3798,0.1150,
6.095955,0.1757,0.9794,0.1104,0.0579,0.0419,-0.3589,0.0320,-0.3798,0.1150,
6.097655,0.1757,0.9794,0.1104,0.0579,0.0419,-0.3589,-0.0671,-0.2855,0.1369,
6.110986,0.1757,0.9794,0.1104,0.0579,0.0419,-0.3589,-0.2083,-0.3009,0.1411,
6.131132,0.2724,0.9249,0.1678,0.0579,0.0419,-0.3589,-0.2083,-0.3009,0.1411,
6.134426,0.2724,0.9249,0.1678,0.9185,-0.4712,0.1698,-0.2083,-0.3009,0.1411,
6.136178,0.2724,0.9249,0.1678,0.9185,-0.4712,0.1698,-0.3249,-0.3057,0.1230,
6.151311,0.2724,0.9249,0.1678,0.9185,-0.4712,0.1698,-0.3201,-0.2290,0.0613,
6.171741,0.2973,1.0173,0.2035,0.9185,-0.4712,0.1698,-0.3201,-0.2290,0.0613,
6.173897,0.2973,1.0173,0.2035,1.0935,0.4638,0.4132,-0.3201,-0.2290,0.0613,
6.175450,0.2973,1.0173,0.2035,1.0935,0.4638,0.4132,-0.2498,0.0320,-0.0991,
6.191534,0.2973,1.0173,0.2035,1.0935,0.4638,0.4132,-0.2115,0.1395,-0.2056,
6.211380,0.2954,0.8942,0.2201,1.0935,0.4638,0.4132,-0.2115,0.1395,-0.2056,
6.213553,0.2954,0.8942,0.2201,1.1015,-0.7303,0.4732,-0.2115,0.1395,-0.2056,
6.215266,0.2954,0.8942,0.2201,1.1015,-0.7303,0.4732,-0.2035,0.1822,-0.3670,
6.233556,0.2954,0.8942,0.2201,1.1015,-0.7303,0.4732,-0.2642,0.2599,-0.4128,
6.252127,0.2121,0.8497,0.2133,1.1015,-0.7303,0.4732,-0.2642,0.2599,-0.4128,
6.254419,0.2121,0.8497,0.2133,0.4276,-1.1717,0.2956,-0.2642,0.2599,-0.4128,
6.256100,0.2121,0.8497,0.2133,0.4276,-1.1717,0.2956,-0.3185,0.1294,-0.3313,
6.270995,0.2121,0.8497,0.2133,0.4276,-1.1717,0.2956,-0.2503,-0.1145,-0.2487,
6.290633,0.2643,0.8003,0.1994,0.4276,-1.1717,0.2956,-0.2503,-0.1145,-0.2487,
6.292833,0.2643,0.8003,0.1994,1.0420,-1.6510,0.0488,-0.2503,-0.1145,-0.2487,
6.294605,0.2643,0.8003,0.1994,1.0420,-1.6510,0.0488,-0.2072,-0.4288,-0.3260,
6.311505,0.2643,0.8003,0.1994,1.0420,-1.6510,0.0488,-0.2386,-0.4139,-0.3622,
6.331857,0.2812,0.8602,0.1451,1.0420,-1.6510,0.0488,-0.2386,-0.4139,-0.3622,
6.333802,0.2812,0.8602,0.1451,1.2959,-1.0665,-0.5417,-0.2386,-0.4139,-0.3622,
6.335539,0.2812,0.8602,0.1451,1.2959,-1.0665,-0.5417,-0.3787,-0.2924,-0.4171,
6.350915,0.2812,0.8602,0.1451,1.2959,-1.0665,-0.5417,-0.4501,-0.2056,-0.4075,
6.370990,0.2008,0.8377,0.1634,1.2959,-1.0665,-0.5417,-0.4501,-0.2056,-0.4075,
6.373385,0.2008,0.8377,0.1634,0.6444,-1.2760,-0.5053,-0.4501,-0.2056,-0.4075,
6.375183,0.2008,0.8377,0.1634,0.6444,-1.2760,-0.5053,-0.5145,-0.1534,-0.4634,
6.391119,0.2008,0.8377,0.1634,0.6444,-1.2760,-0.5053,-0.4996,-0.1587,-0.4410,
6.411297,0.0826,0.9435,0.2042,0.6444,-1.2760,-0.5053,-0.4996,-0.1587,-0.4410,
6.413726,0.0826,0.9435,0.2042,-0.3634,-0.2172,-0.2865,-0.4996,-0.1587,-0.4410,
6.415659,0.0826,0.9435,0.2042,-0.3634,-0.2172,-0.2865,-0.5326,-0.1145,-0.4261,
6.432744,0.0826,0.9435,0.2042,-0.3634,-0.2172,-0.2865,-0.5012,-0.0437,-0.4048,
6.451061,0.1007,0.9064,0.2480,-0.3634,-0.2172,-0.2865,-0.5012,-0.0437,-0.4048,
6.453481,0.1007,0.9064,0.2480,-0.3305,-0.5539,0.1083,-0.5012,-0.0437,-0.4048,
6.455147,0.1007,0.9064,0.2480,-0.3305,-0.5539,0.1083,-0.4352,-0.0442,-0.3755,
6.470763,0.1007,0.9064,0.2480,-0.3305,-0.5539,0.1083,-0.3925,-0.0575,-0.3159,
6.490944,0.1190,0.9049,0.2042,-0.3305,-0.5539,0.1083,-0.3925,-0.0575,-0.3159,
6.494278,0.1190,0.9049,0.2042,-0.1508,-0.5763,-0.2876,-0.3925,-0.0575,-0.3159,
6.496345,0.1190,0.9049,0.2042,-0.1508,-0.5763,-0.2876,-0.3814,-0.1060,-0.2658,
6.510612,0.1190,0.9049,0.2042,-0.1508,-0.5763,-0.2876,-0.4400,-0.1449,-0.2573,
6.530931,0.1234,0.9389,0.1744,-0.1508,-0.5763,-0.2876,-0.4400,-0.1449,-0.2573,
6.533127,0.1234,0.9389,0.1744,-0.0299,-0.2267,-0.6897,-0.4400,-0.1449,-0.2573,
6.535053,0.1234,0.9389,0.1744,-0.0299,-0.2267,-0.6897,-0.4575,-0.1470,-0.2013,
6.550421,0.1234,0.9389,0.1744,-0.0299,-0.2267,-0.6897,-0.4565,-0.0820,-0.2162,
6.570500,0.0735,0.9596,0.2304,-0.0299,-0.2267,-0.6897,-0.4565,-0.0820,-0.2162,
6.571434,0.0735,0.9596,0.2304,-0.4376,-0.0044,-0.2530,-0.4565,-0.0820,-0.2162,
6.572053,0.0735,0.9596,0.2304,-0.4376,-0.0044,-0.2530,-0.3878,-0.0154,-0.2109,
6.590428,0.0735,0.9596,0.2304,-0.4376,-0.0044,-0.2530,-0.2892,0.0123,-0.1491,
6.610180,0.0953,1.0236,0.2277,-0.4376,-0.0044,-0.2530,-0.2892,0.0123,-0.1491,
6.613205,0.0953,1.0236,0.2277,-0.1364,0.6198,-0.3066,-0.2892,0.0123,-0.1491,
6.615075,0.0953,1.0236,0.2277,-0.1364,0.6198,-0.3066,-0.2567,0.0746,-0.1502,
6.632725,0.0953,1.0236,0.2277,-0.1364,0.6198,-0.3066,-0.2487,0.1113,-0.1545,
6.650459,0.1046,0.8372,0.2113,-0.1364,0.6198,-0.3066,-0.2487,0.1113,-0.1545,
6.652595,0.1046,0.8372,0.2113,0.0162,-1.1967,-0.5295,-0.2487,0.1113,-0.1545,
6.654482,0.1046,0.8372,0.2113,0.0162,-1.1967,-0.5295,-0.2583,0.0282,-0.1838,
6.670482,0.1046,0.8372,0.2113,0.0162,-1.1967,-0.5295,-0.2775,-0.0154,-0.1838,
6.690442,0.0154,0.8394,0.1886,0.0162,-1.1967,-0.5295,-0.2775,-0.0154,-0.1838,
6.692707,0.0154,0.8394,0.1886,-0.7847,-1.1564,-0.8456,-0.2775,-0.0154,-0.1838,
6.694729,0.0154,0.8394,0.1886,-0.7847,-1.1564,-0.8456,-0.3233,-0.0011,-0.1603,
6.710945,0.0154,0.8394,0.1886,-0.7847,-1.1564,-0.8456,-0.3510,0.0650,-0.0463,
6.730835,-0.0032,0.9582,0.2089,-0.7847,-1.1564,-0.8456,-0.3510,0.0650,-0.0463,
6.733394,-0.0032,0.9582,0.2089,-0.8853,0.0220,-0.7243,-0.3510,0.0650,-0.0463,
6.735052,-0.0032,0.9582,0.2089,-0.8853,0.0220,-0.7243,-0.3499,0.1103,0.0123,
6.750352,-0.0032,0.9582,0.2089,-0.8853,0.0220,-0.7243,-0.3782,0.0048,-0.0064,
6.771014,0.0577,0.9030,0.2871,-0.8853,0.0220,-0.7243,-0.3782,0.0048,-0.0064,
6.773376,0.0577,0.9030,0.2871,-0.2524,-0.4908,-0.0628,-0.3782,0.0048,-0.0064,
6.775219,0.0577,0.9030,0.2871,-0.2524,-0.4908,-0.0628,-0.4352,-0.0027,-0.0064,
6.789995,0.0577,0.9030,0.2871,-0.2524,-0.4908,-0.0628,-0.4495,-0.0186,0.0714,
6.810536,0.1705,0.9154,0.3757,-0.2524,-0.4908,-0.0628,-0.4495,-0.0186,0.0714,
6.813909,0.1705,0.9154,0.3757,0.8288,-0.3144,0.6423,-0.4495,-0.0186,0.0714,
6.815479,0.1705,0.9154,0.3757,0.8288,-0.3144,0.6423,-0.4144,-0.0426,0.0714,
6.832639,0.1705,0.9154,0.3757,0.8288,-0.3144,0.6423,-0.3659,0.0336,-0.0399,
6.850090,0.1796,0.9413,0.4317,0.8288,-0.3144,0.6423,-0.3659,0.0336,-0.0399,
6.852266,0.1796,0.9413,0.4317,0.8193,0.0188,0.9849,-0.3659,0.0336,-0.0399,
6.853916,0.1796,0.9413,0.4317,0.8193,0.0188,0.9849,-0.3217,0.1395,-0.1124,
6.870684,0.1796,0.9413,0.4317,0.8193,0.0188,0.9849,-0.2892,0.2892,-0.2083,
6.890275,0.1483,0.9797,0.5614,0.8193,0.0188,0.9849,-0.2892,0.2892,-0.2083,
6.893368,0.1483,0.9797,0.5614,0.5921,0.4350,2.1227,-0.2892,0.2892,-0.2083,
6.895228,0.1483,0.9797,0.5614,0.5921,0.4350,2.1227,-0.1806,0.4021,-0.2754,
6.910112,0.1483,0.9797,0.5614,0.5921,0.4350,2.1227,-0.0144,0.4874,-0.3174,
6.930395,0.1266,1.0420,0.6396,0.5921,0.4350,2.1227,-0.0144,0.4874,-0.3174,
6.932306,0.1266,1.0420,0.6396,0.5481,1.0496,2.8394,-0.0144,0.4874,-0.3174,
6.934089,0.1266,1.0420,0.6396,0.5481,1.0496,2.8394,0.1230,0.5310,-0.3803,
6.950109,0.1266,1.0420,0.6396,0.5481,1.0496,2.8394,0.2919,0.6296,-0.4357,
6.970161,0.0674,0.9863,0.6029,0.5481,1.0496,2.8394,0.2919,0.6296,-0.4357,
6.972859,0.0674,0.9863,0.6029,0.1972,0.4662,2.5429,0.2919,0.6296,-0.4357,
6.975104,0.0674,0.9863,0.6029,0.1972,0.4662,2.5429,0.4932,0.6168,-0.4016,
6.990095,0.0674,0.9863,0.6029,0.1972,0.4662,2.5429,0.6200,0.5539,-0.3201,
7.010756,0.0559,0.9130,0.4527,0.1972,0.4662,2.5429,0.6200,0.5539,-0.3201,
7.013037,0.0559,0.9130,0.4527,0.2919,-0.3273,1.2600,0.6200,0.5539,-0.3201,
7.014719,0.0559,0.9130,0.4527,0.2919,-0.3273,1.2600,0.7313,0.5172,-0.2429,
7.031462,0.0559,0.9130,0.4527,0.2919,-0.3273,1.2600,0.7750,0.3920,-0.1411,
7.050190,0.0381,0.8517,0.2797,0.2919,-0.3273,1.2600,0.7750,0.3920,-0.1411,
7.052274,0.0381,0.8517,0.2797,0.2241,-1.0064,-0.2043,0.7750,0.3920,-0.1411,
7.054169,0.0381,0.8517,0.2797,0.2241,-1.0064,-0.2043,0.6498,0.3968,-0.0911,
7.069376,0.0381,0.8517,0.2797,0.2241,-1.0064,-0.2043,0.4586,0.4064,-0.0916,
7.089704,-0.0269,0.9303,0.2807,0.2241,-1.0064,-0.2043,0.4586,0.4064,-0.0916,
7.093105,-0.0269,0.9303,0.2807,-0.3393,-0.2906,-0.0167,0.4586,0.4064,-0.0916,
7.095022,-0.0269,0.9303,0.2807,-0.3393,-0.2906,-0.0167,0.3957,0.2173,0.0208,
7.109203,-0.0269,0.9303,0.2807,-0.3393,-0.2906,-0.0167,0.3723,0.1422,0.2274,
7.129764,0.1195,0.9467,0.3220,-0.3393,-0.2906,-0.0167,0.3723,0.1422,0.2274,
7.133192,0.1195,0.9467,0.3220,1.0472,-0.1629,0.5036,0.3723,0.1422,0.2274,
7.134984,0.1195,0.9467,0.3220,1.0472,-0.1629,0.5036,0.2503,0.0820,0.4186,
7.149836,0.1195,0.9467,0.3220,1.0472,-0.1629,0.5036,0.1502,-0.1401,0.3851,
7.169763,0.0181,0.9846,0.3784,1.0472,-0.1629,0.5036,0.1502,-0.1401,0.3851,
7.173155,0.0181,0.9846,0.3784,-0.1061,0.1983,1.1044,0.1502,-0.1401,0.3851,
7.174699,0.0181,0.9846,0.3784,-0.1061,0.1983,1.1044,0.0953,-0.3936,0.3521,
7.189359,0.0181,0.9846,0.3784,-0.1061,0.1983,1.1044,0.1087,-0.4549,0.3792,
7.209564,-0.0682,1.0493,0.3310,-0.1061,0.1983,1.1044,0.1087,-0.4549,0.3792,
7.212167,-0.0682,1.0493,0.3310,-1.1237,0.8307,0.6721,0.1087,-0.4549,0.3792,
7.213800,-0.0682,1.0493,0.3310,-1.1237,0.8307,0.6721,0.1854,-0.5433,0.3803,
7.228724,-0.0682,1.0493,0.3310,-1.1237,0.8307,0.6721,0.1774,-0.6535,0.4250,
7.249757,-0.0279,1.0043,0.3083,-1.1237,0.8307,0.6721,0.1774,-0.6535,0.4250,
7.251809,-0.0279,1.0043,0.3083,-0.9256,0.3829,0.5197,0.1774,-0.6535,0.4250,
7.253498,-0.0279,1.0043,0.3083,-0.9256,0.3829,0.5197,0.0527,-0.7744,0.5715,
7.270410,-0.0279,1.0043,0.3083,-0.9256,0.3829,0.5197,-0.0629,-0.8314,0.6541,
7.289469,0.0970,0.9802,0.3652,-0.9256,0.3829,0.5197,-0.0629,-0.8314,0.6541,
7.291817,0.0970,0.9802,0.3652,-0.0001,0.1689,1.0861,-0.0629,-0.8314,0.6541,
7.293413,0.0970,0.9802,0.3652,-0.0001,0.1689,1.0861,-0.1252,-0.9603,0.6152,
7.309615,0.0970,0.9802,0.3652,-0.0001,0.1689,1.0861,-0.0192,-0.9950,0.5981,
7.329014,0.1739,0.9420,0.3840,-0.0001,0.1689,1.0861,-0.0192,-0.9950,0.5981,
7.331424,0.1739,0.9420,0.3840,0.4381,-0.1656,1.2636,-0.0192,-0.9950,0.5981,
7.333357,0.1739,0.9420,0.3840,0.4381,-0.1656,1.2636,0.1465,-1.0035,0.5571,
7.349075,0.1739,0.9420,0.3840,0.4381,-0.1656,1.2636,0.2828,-1.0045,0.5119,
7.369420,0.2160,1.0283,0.3088,0.4381,-0.1656,1.2636,0.2828,-1.0045,0.5119,
7.371651,0.2160,1.0283,0.3088,0.5549,0.6915,0.6513,0.2828,-1.0045,0.5119,
7.373234,0.2160,1.0283,0.3088,0.5549,0.6915,0.6513,0.3462,-0.8442,0.3766,
7.389421,0.2160,1.0283,0.3088,0.5549,0.6915,0.6513,0.3904,-0.7590,0.1678,
7.409050,0.2516,0.9259,0.2062,0.5549,0.6915,0.6513,0.3904,-0.7590,0.1678,
7.411465,0.2516,0.9259,0.2062,0.7261,-0.3230,-0.1790,0.3904,-0.7590,0.1678,
7.413161,0.2516,0.9259,0.2062,0.7261,-0.3230,-0.1790,0.3899,-0.5720,0.0378,
7.431571,0.2516,0.9259,0.2062,0.7261,-0.3230,-0.1790,0.2312,-0.3659,-0.0602,
7.449518,0.2091,0.9066,0.1764,0.7261,-0.3230,-0.1790,0.2312,-0.3659,-0.0602,
7.451878,0.2091,0.9066,0.1764,0.2669,-0.5357,-0.3319,0.2312,-0.3659,-0.0602,
7.453638,0.2091,0.9066,0.1764,0.2669,-0.5357,-0.3319,-0.0399,-0.4341,-0.1385,
7.469332,0.2091,0.9066,0.1764,0.2669,-0.5357,-0.3319,-0.2104,-0.3350,-0.0916,
7.489464,0.1832,0.9648,0.2294,0.2669,-0.5357,-0.3319,-0.2104,-0.3350,-0.0916,
7.492104,0.1832,0.9648,0.2294,0.0212,0.0383,0.1615,-0.2104,-0.3350,-0.0916,
7.493707,0.1832,0.9648,0.2294,0.0212,0.0383,0.1615,-0.3750,-0.2892,-0.1161,
7.509257,0.1832,0.9648,0.2294,0.0212,0.0383,0.1615,-0.4581,-0.0996,-0.1214,
7.528404,0.1981,0.8397,0.2722,0.0212,0.0383,0.1615,-0.4581,-0.0996,-0.1214,
7.530728,0.1981,0.8397,0.2722,0.1897,-1.1571,0.4302,-0.4581,-0.0996,-0.1214,
7.532281,0.1981,0.8397,0.2722,0.1897,-1.1571,0.4302,-0.4783,-0.0660,-0.1875,
7.548428,0.1981,0.8397,0.2722,0.1897,-1.1571,0.4302,-0.4559,-0.1571,-0.1513,
7.569287,0.2128,0.8236,0.2653,0.1897,-1.1571,0.4302,-0.4559,-0.1571,-0.1513,
7.571422,0.2128,0.8236,0.2653,0.3814,-1.2817,0.1926,-0.4559,-0.1571,-0.1513,
7.573083,0.2128,0.8236,0.2653,0.3814,-1.2817,0.1926,-0.5172,-0.1822,-0.1140,
7.588699,0.2128,0.8236,0.2653,0.3814,-1.2817,0.1926,-0.4432,-0.1641,-0.0932,
7.608648,0.2949,0.9017,0.2993,0.3814,-1.2817,0.1926,-0.4432,-0.1641,-0.0932,
7.611264,0.2949,0.9017,0.2993,0.4054,-0.2207,0.1124,-0.4432,-0.1641,-0.0932,
7.613099,0.2949,0.9017,0.2993,0.4054,-0.2207,0.1124,-0.2423,-0.3696,-0.1763,
7.628651,0.2949,0.9017,0.2993,0.4054,-0.2207,0.1124,-0.1800,-0.5225,-0.2993,
7.649164,0.1920,0.8311,0.2377,0.4054,-0.2207,0.1124,-0.1800,-0.5225,-0.2993,
7.651111,0.1920,0.8311,0.2377,-0.5667,-0.9125,-0.5228,-0.1800,-0.5225,-0.2993,
7.652981,0.1920,0.8311,0.2377,-0.5667,-0.9125,-0.5228,-0.3020,-0.4490,-0.3425,
7.668439,0.1920,0.8311,0.2377,-0.5667,-0.9125,-0.5228,-0.4948,-0.3585,-0.2381,
7.688738,0.1522,0.7530,0.3117,-0.5667,-0.9125,-0.5228,-0.4948,-0.3585,-0.2381,
7.691225,0.1522,0.7530,0.3117,-0.8986,-1.6605,0.0975,-0.4948,-0.3585,-0.2381,
7.692873,0.1522,0.7530,0.3117,-0.8986,-1.6605,0.0975,-0.6125,-0.2525,-0.1715,
7.708625,0.1522,0.7530,0.3117,-0.8986,-1.6605,0.0975,-0.4517,-0.1593,-0.1449,
7.729166,0.0770,0.8732,0.2805,-0.8986,-1.6605,0.0975,-0.4517,-0.1593,-0.1449,
7.732493,0.0770,0.8732,0.2805,-1.6041,-0.4329,-0.3809,-0.4517,-0.1593,-0.1449,
7.734183,0.0770,0.8732,0.2805,-1.6041,-0.4329,-0.3809,-0.3665,-0.0772,-0.1049,
7.748317,0.0770,0.8732,0.2805,-1.6041,-0.4329,-0.3809,-0.3840,0.0533,-0.0842,
7.769239,0.0464,0.8346,0.2431,-1.6041,-0.4329,-0.3809,-0.3840,0.0533,-0.0842,
7.771441,0.0464,0.8346,0.2431,-1.8709,-0.7721,-0.8805,-0.3840,0.0533,-0.0842,
7.773477,0.0464,0.8346,0.2431,-1.8709,-0.7721,-0.8805,-0.4362,0.1459,-0.0730,
7.789146,0.0464,0.8346,0.2431,-1.8709,-0.7721,-0.8805,-0.4618,0.1646,-0.0032,
7.809024,0.1197,0.8558,0.2744,-1.8709,-0.7721,-0.8805,-0.4618,0.1646,-0.0032,
7.811617,0.1197,0.8558,0.2744,-1.1183,-0.5073,-0.7483,-0.4618,0.1646,-0.0032,
7.813537,0.1197,0.8558,0.2744,-1.1183,-0.5073,-0.7483,-0.4932,0.1688,0.0085,
7.830307,0.1197,0.8558,0.2744,-1.1183,-0.5073,-0.7483,-0.4272,0.1784,0.0240,
7.848261,0.1593,0.8668,0.3110,-1.1183,-0.5073,-0.7483,-0.4272,0.1784,0.0240,
7.850441,0.1593,0.8668,0.3110,-0.5362,-0.4184,-0.4635,-0.4272,0.1784,0.0240,
7.852454,0.1593,0.8668,0.3110,-0.5362,-0.4184,-0.4635,-0.3174,0.1960,-0.0224,
7.868858,0.1593,0.8668,0.3110,-0.5362,-0.4184,-0.4635,-0.2019,0.2397,-0.0352,
7.888802,0.1180,0.9193,0.2995,-0.5362,-0.4184,-0.4635,-0.2019,0.2397,-0.0352,
7.892284,0.1180,0.9193,0.2995,-0.8885,0.1250,-0.6782,-0.2019,0.2397,-0.0352,
7.893971,0.1180,0.9193,0.2995,-0.8885,0.1250,-0.6782,-0.1710,0.2791,-0.0517,
7.908005,0.1180,0.9193,0.2995,-0.8885,0.1250,-0.6782,-0.2152,0.3159,-0.0794,
7.930138,0.1063,0.8477,0.3484,-0.8885,0.1250,-0.6782,-0.2152,0.3159,-0.0794,
7.933294,0.1063,0.8477,0.3484,-0.4895,-0.7299,-0.0709,-0.2152,0.3159,-0.0794,
7.935216,0.1063,0.8477,0.3484,-0.4895,-0.7299,-0.0709,-0.2253,0.3457,-0.0522,
7.948676,0.1063,0.8477,0.3484,-0.4895,-0.7299,-0.0709,-0.1901,0.3121,-0.0378,
7.968644,0.1097,0.8648,0.3850,-0.4895,-0.7299,-0.0709,-0.1901,0.3121,-0.0378,
7.971079,0.1097,0.8648,0.3850,-0.2127,-0.5555,0.1741,-0.1901,0.3121,-0.0378,
7.972779,0.1097,0.8648,0.3850,-0.2127,-0.5555,0.1741,-0.1332,0.2823,-0.0373,
7.988385,0.1097,0.8648,0.3850,-0.2127,-0.5555,0.1741,-0.0437,0.3324,-0.0634,
8.009128,0.1126,0.8866,0.4107,-0.2127,-0.5555,0.1741,-0.0437,0.3324,-0.0634,
8.011749,0.1126,0.8866,0.4107,-0.0776,-0.2884,0.2578,-0.0437,0.3324,-0.0634,
8.013527,0.1126,0.8866,0.4107,-0.0776,-0.2884,0.2578,0.0703,0.3531,-0.0634,
8.027831,0.1126,0.8866,0.4107,-0.0776,-0.2884,0.2578,0.1316,0.3798,-0.0724,
8.049022,0.0970,1.0280,0.4312,-0.0776,-0.2884,0.2578,0.1316,0.3798,-0.0724,
8.052281,0.0970,1.0280,0.4312,-0.1505,1.0797,0.4780,0.1316,0.3798,-0.0724,
8.054169,0.0970,1.0280,0.4312,-0.1505,1.0797,0.4780,0.1348,0.3675,-0.0123,
8.068223,0.0970,1.0280,0.4312,-0.1505,1.0797,0.4780,0.0676,0.3691,-0.0133,
8.088273,0.1534,0.9679,0.5157,-0.1505,1.0797,0.4780,0.0676,0.3691,-0.0133,
8.090335,0.1534,0.9679,0.5157,0.3583,0.6366,0.9860,0.0676,0.3691,-0.0133,
8.091891,0.1534,0.9679,0.5157,0.3583,0.6366,0.9860,0.0740,0.3270,-0.0032,
8.107877,0.1534,0.9679,0.5157,0.3583,0.6366,0.9860,0.1507,0.3558,-0.0091,
8.128750,0.2233,0.9093,0.5050,0.3583,0.6366,0.9860,0.1507,0.3558,-0.0091,
8.132334,0.2233,0.9093,0.5050,0.7225,0.2264,0.6365,0.1507,0.3558,-0.0091,
8.134352,0.2233,0.9093,0.5050,0.7225,0.2264,0.6365,0.2637,0.5055,-0.0256,
8.147930,0.2233,0.9093,0.5050,0.7225,0.2264,0.6365,0.3814,0.6642,-0.1406,
8.168164,0.1564,0.9684,0.4898,0.7225,0.2264,0.6365,0.3814,0.6642,-0.1406,
8.170188,0.1564,0.9684,0.4898,0.1942,0.7468,0.5665,0.3814,0.6642,-0.1406,
8.171835,0.1564,0.9684,0.4898,0.1942,0.7468,0.5665,0.4586,0.8469,-0.2759,
8.188450,0.1564,0.9684,0.4898,0.1942,0.7468,0.5665,0.4730,0.9726,-0.3228,
8.208276,0.0354,1.0679,0.5194,0.1942,0.7468,0.5665,0.4730,0.9726,-0.3228,
8.211853,0.0354,1.0679,0.5194,-0.7342,1.6291,0.9758,0.4730,0.9726,-0.3228,
8.213825,0.0354,1.0679,0.5194,-0.7342,1.6291,0.9758,0.4549,1.0029,-0.2908,
8.230842,0.0354,1.0679,0.5194,-0.7342,1.6291,0.9758,0.3334,0.8464,-0.1848,
8.247995,-0.0220,0.9569,0.5179,-0.7342,1.6291,0.9758,0.3334,0.8464,-0.1848,
8.250055,-0.0220,0.9569,0.5179,-1.0626,0.4690,1.0656,0.3334,0.8464,-0.1848,
8.251741,-0.0220,0.9569,0.5179,-1.0626,0.4690,1.0656,0.3409,0.7175,0.1454,
8.267641,-0.0220,0.9569,0.5179,-1.0626,0.4690,1.0656,0.3846,0.5017,0.3617,
8.288227,0.2778,0.7146,0.3804,-1.0626,0.4690,1.0656,0.3846,0.5017,0.3617,
8.290483,0.2778,0.7146,0.3804,1.8584,-1.9435,-0.1943,0.3846,0.5017,0.3617,
8.292186,0.2778,0.7146,0.3804,1.8584,-1.9435,-0.1943,0.3739,0.4735,0.4906,
8.308223,0.2778,0.7146,0.3804,1.8584,-1.9435,-0.1943,0.2727,0.2003,0.3707,
8.328055,0.0198,0.9868,0.3315,1.8584,-1.9435,-0.1943,0.2727,0.2003,0.3707,
8.330389,0.0198,0.9868,0.3315,-0.7713,0.6896,-0.5705,0.2727,0.2003,0.3707,
8.332145,0.0198,0.9868,0.3315,-0.7713,0.6896,-0.5705,0.2019,0.0005,0.1822,
8.348030,0.0198,0.9868,0.3315,-0.7713,0.6896,-0.5705,0.1411,-0.1284,0.1364,
8.368640,-0.0178,0.8988,0.3296,-0.7713,0.6896,-0.5705,0.1411,-0.1284,0.1364,
8.371645,-0.0178,0.8988,0.3296,-1.1878,-0.1949,-0.5235,0.1411,-0.1284,0.1364,
8.373910,-0.0178,0.8988,0.3296,-1.1878,-0.1949,-0.5235,0.0959,-0.3696,0.2147,
8.387683,-0.0178,0.8988,0.3296,-1.1878,-0.1949,-0.5235,0.0479,-0.6072,0.2557,
8.407681,0.0015,0.8905,0.3608,-1.1878,-0.1949,-0.5235,0.0479,-0.6072,0.2557,
8.410429,0.0015,0.8905,0.3608,-1.1299,-0.2802,-0.1697,0.0479,-0.6072,0.2557,
8.412403,0.0015,0.8905,0.3608,-1.1299,-0.2802,-0.1697,-0.0708,-0.7968,0.3047,
8.428006,0.0015,0.8905,0.3608,-1.1299,-0.2802,-0.1697,-0.1816,-0.8756,0.4218,
8.448072,0.0816,1.0696,0.4217,-1.1299,-0.2802,-0.1697,-0.1816,-0.8756,0.4218,
8.450490,0.0816,1.0696,0.4217,-0.5800,1.5086,0.4245,-0.1816,-0.8756,0.4218,
8.452157,0.0816,1.0696,0.4217,-0.5800,1.5086,0.4245,-0.1646,-0.9864,0.4661,
8.468106,0.0816,1.0696,0.4217,-0.5800,1.5086,0.4245,-0.0842,-1.0232,0.4794,
8.487750,0.2282,0.9245,0.4109,-0.5800,1.5086,0.4245,-0.0842,-1.0232,0.4794,
8.490395,0.2282,0.9245,0.4109,0.5509,0.1324,0.3347,-0.0842,-1.0232,0.4794,
8.491810,0.2282,0.9245,0.4109,0.5509,0.1324,0.3347,-0.0096,-1.0370,0.3755,
8.507531,0.2282,0.9245,0.4109,0.5509,0.1324,0.3347,0.0101,-1.1068,0.2397,
8.528060,0.1571,0.9738,0.3870,0.5509,0.1324,0.3347,0.0101,-1.1068,0.2397,
8.530336,0.1571,0.9738,0.3870,0.2326,0.5490,0.1094,0.0101,-1.1068,0.2397,
8.531860,0.1571,0.9738,0.3870,0.2326,0.5490,0.1094,0.0437,-0.9507,0.1491,
8.547359,0.1571,0.9738,0.3870,0.2326,0.5490,0.1094,0.1337,-0.7121,0.2184,
8.567609,0.2832,1.0007,0.3684,0.2326,0.5490,0.1094,0.1337,-0.7121,0.2184,
8.569741,0.2832,1.0007,0.3684,1.2764,0.8101,0.0068,0.1337,-0.7121,0.2184,
8.571170,0.2832,1.0007,0.3684,1.2764,0.8101,0.0068,0.1513,-0.5444,0.1875,
8.587082,0.2832,1.0007,0.3684,1.2764,0.8101,0.0068,0.0415,-0.6951,0.0154,
8.607427,0.3127,0.9337,0.3464,1.2764,0.8101,0.0068,0.0415,-0.6951,0.0154,
8.609270,0.3127,0.9337,0.3464,1.4293,0.1480,-0.1332,0.0415,-0.6951,0.0154,
8.610903,0.3127,0.9337,0.3464,1.4293,0.1480,-0.1332,-0.0911,-0.7441,-0.0762,
8.627326,0.3127,0.9337,0.3464,1.4293,0.1480,-0.1332,-0.2663,-0.5838,-0.1060,
8.647489,0.2223,0.9017,0.3112,1.4293,0.1480,-0.1332,-0.2663,-0.5838,-0.1060,
8.650526,0.2223,0.9017,0.3112,0.4647,-0.1462,-0.4901,-0.2663,-0.5838,-0.1060,
8.652168,0.2223,0.9017,0.3112,0.4647,-0.1462,-0.4901,-0.4272,-0.4314,-0.1289,
8.667527,0.2223,0.9017,0.3112,0.4647,-0.1462,-0.4901,-0.6056,-0.3595,-0.1001,
8.687546,0.2255,0.7857,0.3467,0.4647,-0.1462,-0.4901,-0.6056,-0.3595,-0.1001,
8.689929,0.2255,0.7857,0.3467,0.4635,-1.2156,-0.2955,-0.6056,-0.3595,-0.1001,
8.691671,0.2255,0.7857,0.3467,0.4635,-1.2156,-0.2955,-0.6274,-0.3265,-0.0383,
8.707262,0.2255,0.7857,0.3467,0.4635,-1.2156,-0.2955,-0.5880,-0.2929,0.0144,
8.727927,0.2822,0.8959,0.3782,0.4635,-1.2156,-0.2955,-0.5880,-0.2929,0.0144,
8.731201,0.2822,0.8959,0.3782,0.9512,-0.0439,-0.1701,-0.5880,-0.2929,0.0144,
8.733343,0.2822,0.8959,0.3782,0.9512,-0.0439,-0.1701,-0.5864,-0.2317,-0.0581,
8.746867,0.2822,0.8959,0.3782,0.9512,-0.0439,-0.1701,-0.4708,-0.1672,-0.1811,
8.767627,0.3218,0.7407,0.3845,0.9512,-0.0439,-0.1701,-0.4708,-0.1672,-0.1811,
8.769985,0.3218,0.7407,0.3845,0.3642,-1.3069,-0.1062,-0.4708,-0.1672,-0.1811,
8.771818,0.3218,0.7407,0.3845,0.3642,-1.3069,-0.1062,-0.2828,-0.2482,-0.2887,
8.787090,0.3218,0.7407,0.3845,0.3642,-1.3069,-0.1062,-0.1316,-0.4224,-0.4288,
8.807743,0.1722,0.7886,0.2868,0.3642,-1.3069,-0.1062,-0.1316,-0.4224,-0.4288,
8.811014,0.1722,0.7886,0.2868,-1.0303,-0.8452,-1.0974,-0.1316,-0.4224,-0.4288,
8.813191,0.1722,0.7886,0.2868,-1.0303,-0.8452,-1.0974,-0.1150,-0.5092,-0.4469,
8.827459,0.1722,0.7886,0.2868,-1.0303,-0.8452,-1.0974,-0.1784,-0.3803,-0.3814,
8.847476,0.1537,0.7500,0.2883,-1.0303,-0.8452,-1.0974,-0.1784,-0.3803,-0.3814,
8.851890,0.1537,0.7500,0.2883,-1.1396,-1.2449,-1.0857,-0.1784,-0.3803,-0.3814,
8.853992,0.1537,0.7500,0.2883,-1.1396,-1.2449,-1.0857,-0.2551,-0.3057,-0.3585,
8.867081,0.1537,0.7500,0.2883,-1.1396,-1.2449,-1.0857,-0.2226,-0.2386,-0.2919,
8.887357,-0.0039,0.9020,0.2722,-1.1396,-1.2449,-1.0857,-0.2226,-0.2386,-0.2919,
8.889521,-0.0039,0.9020,0.2722,-2.6150,0.2479,-1.2973,-0.2226,-0.2386,-0.2919,
8.891384,-0.0039,0.9020,0.2722,-2.6150,0.2479,-1.2973,-0.1529,-0.1065,-0.2248,
8.907561,-0.0039,0.9020,0.2722,-2.6150,0.2479,-1.2973,-0.1965,0.0368,-0.1369,
8.927351,0.0665,0.9025,0.3347,-2.6150,0.2479,-1.2973,-0.1965,0.0368,-0.1369,
8.929785,0.0665,0.9025,0.3347,-1.8556,0.2555,-0.7351,-0.1965,0.0368,-0.1369,
8.931564,0.0665,0.9025,0.3347,-1.8556,0.2555,-0.7351,-0.3531,0.1928,-0.0410,
8.947818,0.0665,0.9025,0.3347,-1.8556,0.2555,-0.7351,-0.3931,0.2471,0.0479,
8.967097,0.1776,0.8951,0.3696,-1.8556,0.2555,-0.7351,-0.3931,0.2471,0.0479,
8.969578,0.1776,0.8951,0.3696,-0.7102,0.2329,-0.5300,-0.3931,0.2471,0.0479,
8.971281,0.1776,0.8951,0.3696,-0.7102,0.2329,-0.5300,-0.3068,0.1965,0.1262,
8.987374,0.1776,0.8951,0.3696,-0.7102,0.2329,-0.5300,-0.2690,0.2434,0.0959,
9.006914,0.1737,0.7925,0.3584,-0.7102,0.2329,-0.5300,-0.2690,0.2434,0.0959,
9.010779,0.1737,0.7925,0.3584,-0.3929,-0.9212,-0.5249,-0.2690,0.2434,0.0959,
9.012488,0.1737,0.7925,0.3584,-0.3929,-0.9212,-0.5249,-0.2541,0.3073,0.0415,
9.026371,0.1737,0.7925,0.3584,-0.3929,-0.9212,-0.5249,-0.1641,0.2637,0.0431,
9.046115,0.1583,0.7727,0.3542,-0.3929,-0.9212,-0.5249,-0.1641,0.2637,0.0431,
9.048858,0.1583,0.7727,0.3542,-0.5118,-1.0775,-0.6617,-0.1641,0.2637,0.0431,
9.051041,0.1583,0.7727,0.3542,-0.5118,-1.0775,-0.6617,-0.0676,0.2226,0.0602,
9.066735,0.1583,0.7727,0.3542,-0.5118,-1.0775,-0.6617,0.0533,0.2993,0.0272,
9.086866,0.1353,0.7691,0.3486,-0.5118,-1.0775,-0.6617,0.0533,0.2993,0.0272,
9.089105,0.1353,0.7691,0.3486,-0.7087,-1.1087,-0.7407,0.0533,0.2993,0.0272,
9.091048,0.1353,0.7691,0.3486,-0.7087,-1.1087,-0.7407,0.1832,0.3872,-0.0746,
9.106355,0.1353,0.7691,0.3486,-0.7087,-1.1087,-0.7407,0.2668,0.4362,-0.1326,
9.127084,0.0814,0.9279,0.3630,-0.7087,-1.1087,-0.7407,0.2668,0.4362,-0.1326,
9.129541,0.0814,0.9279,0.3630,-1.1260,0.3985,-0.5501,0.2668,0.4362,-0.1326,
9.131287,0.0814,0.9279,0.3630,-1.1260,0.3985,-0.5501,0.1374,0.4549,-0.1071,
9.147519,0.0814,0.9279,0.3630,-1.1260,0.3985,-0.5501,-0.0703,0.5161,-0.1284,
9.166887,0.1143,0.9516,0.5094,-1.1260,0.3985,-0.5501,-0.0703,0.5161,-0.1284,
9.169189,0.1143,0.9516,0.5094,-0.6574,0.6119,0.8585,-0.0703,0.5161,-0.1284,
9.170872,0.1143,0.9516,0.5094,-0.6574,0.6119,0.8585,-0.0639,0.6669,-0.1827,
9.186864,0.1143,0.9516,0.5094,-0.6574,0.6119,0.8585,0.1603,0.6796,-0.1486,
9.206728,0.1857,1.0053,0.5836,-0.6574,0.6119,0.8585,0.1603,0.6796,-0.1486,
9.208861,0.1857,1.0053,0.5836,0.2143,1.1207,1.5538,0.1603,0.6796,-0.1486,
9.210551,0.1857,1.0053,0.5836,0.2143,1.1207,1.5538,0.3089,0.5230,-0.1342,
9.227366,0.1857,1.0053,0.5836,0.2143,1.1207,1.5538,0.3553,0.4011,-0.1598,
9.247435,0.2074,0.8837,0.5617,0.2143,1.1207,1.5538,0.3553,0.4011,-0.1598,
9.250639,0.2074,0.8837,0.5617,0.5537,-0.1309,1.4169,0.3553,0.4011,-0.1598,
9.252166,0.2074,0.8837,0.5617,0.5537,-0.1309,1.4169,0.4123,0.3292,-0.1715,
9.266610,0.2074,0.8837,0.5617,0.5537,-0.1309,1.4169,0.5236,0.4554,-0.1651,
9.287598,0.1209,0.9428,0.4857,0.5537,-0.1309,1.4169,0.5236,0.4554,-0.1651,
9.291813,0.1209,0.9428,0.4857,-0.1720,0.3682,0.8058,0.5236,0.4554,-0.1651,
9.293941,0.1209,0.9428,0.4857,-0.1720,0.3682,0.8058,0.5332,0.6322,-0.1294,
9.306442,0.1209,0.9428,0.4857,-0.1720,0.3682,0.8058,0.4527,0.7308,-0.0980,
9.327003,0.0603,1.0236,0.5297,-0.1720,0.3682,0.8058,0.4527,0.7308,-0.0980,
9.329190,0.0603,1.0236,0.5297,-0.6197,1.0783,1.3773,0.4527,0.7308,-0.0980,
9.330876,0.0603,1.0236,0.5297,-0.6197,1.0783,1.3773,0.3627,0.7899,-0.0676,
9.345464,0.0603,1.0236,0.5297,-0.6197,1.0783,1.3773,0.3606,0.8256,-0.0767,
9.366848,0.0523,0.9491,0.5184,-0.6197,1.0783,1.3773,0.3606,0.8256,-0.0767,
9.368713,0.0523,0.9491,0.5184,-0.5505,0.2913,1.3579,0.3606,0.8256,-0.0767,
9.370486,0.0523,0.9491,0.5184,-0.5505,0.2913,1.3579,0.3984,0.8575,-0.0277,
9.386066,0.0523,0.9491,0.5184,-0.5505,0.2913,1.3579,0.3963,0.8101,0.0368,
9.407131,0.0349,0.8248,0.3474,-0.5505,0.2913,1.3579,0.3963,0.8101,0.0368,
9.410457,0.0349,0.8248,0.3474,-0.2820,-0.6973,-0.9186,0.3963,0.8101,0.0368,
9.412265,0.0349,0.8248,0.3474,-0.2820,-0.6973,-0.9186,0.2386,0.7713,0.2162,
9.426648,0.0349,0.8248,0.3474,-0.2820,-0.6973,-0.9186,0.1113,0.6493,0.4980,
9.446262,0.1424,0.8946,0.3528,-0.2820,-0.6973,-0.9186,0.1113,0.6493,0.4980,
9.450178,0.1424,0.8946,0.3528,0.7556,-0.0377,-0.8123,0.1113,0.6493,0.4980,
9.451849,0.1424,0.8946,0.3528,0.7556,-0.0377,-0.8123,0.0431,0.3137,0.5348,
9.466371,0.1424,0.8946,0.3528,0.7556,-0.0377,-0.8123,0.0804,-0.0746,0.5806,
9.486103,0.0115,0.9631,0.4517,0.7556,-0.0377,-0.8123,0.0804,-0.0746,0.5806,
9.488382,0.0115,0.9631,0.4517,-0.6967,0.6353,0.1807,0.0804,-0.0746,0.5806,
9.490131,0.0115,0.9631,0.4517,-0.6967,0.6353,0.1807,-0.1055,-0.4426,0.5731,
9.506085,0.0115,0.9631,0.4517,-0.6967,0.6353,0.1807,-0.1486,-0.8325,0.4724,
9.527422,-0.0569,0.9345,0.4644,-0.6967,0.6353,0.1807,-0.1486,-0.8325,0.4724,
9.530803,-0.0569,0.9345,0.4644,-1.6306,0.3926,0.2864,-0.1486,-0.8325,0.4724,
9.532295,-0.0569,0.9345,0.4644,-1.6306,0.3926,0.2864,-0.1395,-0.8922,0.2961,
9.545909,-0.0569,0.9345,0.4644,-1.6306,0.3926,0.2864,0.0751,-0.6557,0.2860,
9.566416,0.1529,0.8101,0.3469,-1.6306,0.3926,0.2864,0.0751,-0.6557,0.2860,
9.568450,0.1529,0.8101,0.3469,0.2082,-0.8112,-0.8352,0.0751,-0.6557,0.2860,
9.570384,0.1529,0.8101,0.3469,0.2082,-0.8112,-0.8352,0.1992,-0.6908,0.4309,
9.585850,0.1529,0.8101,0.3469,0.2082,-0.8112,-0.8352,-0.0799,-0.9220,0.4735,
9.606542,0.2455,0.9538,0.3770,0.2082,-0.8112,-0.8352,-0.0799,-0.9220,0.4735,
9.609263,0.2455,0.9538,0.3770,0.8286,0.6049,-0.4600,-0.0799,-0.9220,0.4735,
9.611181,0.2455,0.9538,0.3770,0.8286,0.6049,-0.4600,-0.2690,-0.8613,0.2956,
9.625713,0.2455,0.9538,0.3770,0.8286,0.6049,-0.4600,-0.1113,-0.5838,0.2663,
9.645807,0.1713,1.0070,0.3924,0.8286,0.6049,-0.4600,-0.1113,-0.5838,0.2663,
9.648006,0.1713,1.0070,0.3924,-0.1099,1.1705,-0.3156,-0.1113,-0.5838,0.2663,
9.649857,0.1713,1.0070,0.3924,-0.1099,1.1705,-0.3156,-0.0911,-0.6988,0.2418,
9.666621,0.1713,1.0070,0.3924,-0.1099,1.1705,-0.3156,-0.1683,-0.8032,0.2349,
9.686090,0.1336,1.1016,0.3840,-0.1099,1.1705,-0.3156,-0.1683,-0.8032,0.2349,
9.688300,0.1336,1.1016,0.3840,-0.6850,2.1360,-0.3843,-0.1683,-0.8032,0.2349,
9.690152,0.1336,1.1016,0.3840,-0.6850,2.1360,-0.3843,-0.3835,-0.7249,0.1987,
9.705808,0.1336,1.1016,0.3840,-0.6850,2.1360,-0.3843,-0.5768,-0.5353,0.0932,
9.726739,0.3132,0.7989,0.4527,-0.6850,2.1360,-0.3843,-0.5768,-0.5353,0.0932,
9.729050,0.3132,0.7989,0.4527,0.9210,-0.7424,0.1838,-0.5768,-0.5353,0.0932,
9.730720,0.3132,0.7989,0.4527,0.9210,-0.7424,0.1838,-0.6796,-0.4085,0.1145,
9.750618,0.3132,0.7989,0.4527,0.9210,-0.7424,0.1838,-0.8389,-0.4485,0.0831,
9.766465,0.2739,0.6083,0.4727,0.9210,-0.7424,0.1838,-0.8389,-0.4485,0.0831,
9.770606,0.2739,0.6083,0.4727,0.4235,-2.4668,0.1580,-0.8389,-0.4485,0.0831,
9.773077,0.2739,0.6083,0.4727,0.4235,-2.4668,0.1580,-0.9081,-0.4021,0.2903,
9.785987,0.2739,0.6083,0.4727,0.4235,-2.4668,0.1580,-0.8250,-0.3345,0.3968,
9.806314,0.3122,0.9391,0.4962,0.4235,-2.4668,0.1580,-0.8250,-0.3345,0.3968,
9.808486,0.3122,0.9391,0.4962,0.6107,0.9646,0.1407,-0.8250,-0.3345,0.3968,
9.810212,0.3122,0.9391,0.4962,0.6107,0.9646,0.1407,-0.7830,-0.2242,0.2392,
9.825101,0.3122,0.9391,0.4962,0.6107,0.9646,0.1407,-0.5981,-0.1539,0.1097,
9.846063,0.4192,0.7613,0.5333,0.6107,0.9646,0.1407,-0.5981,-0.1539,0.1097,
9.847391,0.4192,0.7613,0.5333,1.5395,-0.6220,0.3024,-0.5981,-0.1539,0.1097,
9.848369,0.4192,0.7613,0.5333,1.5395,-0.6220,0.3024,-0.3419,-0.1230,-0.1587,
9.866148,0.4192,0.7613,0.5333,1.5395,-0.6220,0.3024,-0.1598,0.0043,-0.3851,
9.885572,0.2756,0.8047,0.5126,1.5395,-0.6220,0.3024,-0.1598,0.0043,-0.3851,
9.888274,0.2756,0.8047,0.5126,0.1861,-0.1689,0.0272,-0.1598,0.0043,-0.3851,
9.889964,0.2756,0.8047,0.5126,0.1861,-0.1689,0.0272,0.0346,-0.0011,-0.5337,
9.905493,0.2756,0.8047,0.5126,0.1861,-0.1689,0.0272,0.2280,0.0117,-0.5934,
9.926780,0.2094,0.6992,0.4029,0.1861,-0.1689,0.0272,0.2280,0.0117,-0.5934,
9.930766,0.2094,0.6992,0.4029,-0.2851,-1.2829,-1.0047,0.2280,0.0117,-0.5934,
9.932784,0.2094,0.6992,0.4029,-0.2851,-1.2829,-1.0047,0.3563,0.0692,-0.5662,
9.945870,0.2094,0.6992,0.4029,-0.2851,-1.2829,-1.0047,0.4021,0.0485,-0.5044,
9.965339,0.0166,0.7916,0.1739,-0.2851,-1.2829,-1.0047,0.4021,0.0485,-0.5044,
9.967680,0.0166,0.7916,0.1739,-1.9874,-0.5000,-3.1291,0.4021,0.0485,-0.5044,
9.969730,0.0166,0.7916,0.1739,-1.9874,-0.5000,-3.1291,0.1406,0.0874,-0.3505,
9.984961,0.0166,0.7916,0.1739,-1.9874,-0.5000,-3.1291,-0.1843,0.1870,-0.1896,
10.005234,0.0596,0.7898,0.2863,-1.9874,-0.5000,-3.1291,-0.1843,0.1870,-0.1896,
10.008620,0.0596,0.7898,0.2863,-1.4503,-0.5351,-2.0464,-0.1843,0.1870,-0.1896,
10.010981,0.0596,0.7898,0.2863,-1.4503,-0.5351,-2.0464,-0.3696,0.1646,-0.0336,
10.025059,0.0596,0.7898,0.2863,-1.4503,-0.5351,-2.0464,-0.4671,0.2125,0.0565,
10.044479,0.2111,0.8829,0.4383,-1.4503,-0.5351,-2.0464,-0.4671,0.2125,0.0565,
10.046468,0.2111,0.8829,0.4383,0.0695,0.4558,-0.7033,-0.4671,0.2125,0.0565,
10.047569,0.2111,0.8829,0.4383,0.0695,0.4558,-0.7033,-0.4714,0.2594,0.0442,
10.064562,0.2111,0.8829,0.4383,0.0695,0.4558,-0.7033,-0.3404,0.3782,-0.0948,
10.084715,0.2040,0.7393,0.4434,0.0695,0.4558,-0.7033,-0.3404,0.3782,-0.0948,
10.086772,0.2040,0.7393,0.4434,0.0730,-0.8719,-0.8099,-0.3404,0.3782,-0.0948,
10.088476,0.2040,0.7393,0.4434,0.0730,-0.8719,-0.8099,-0.1294,0.3952,-0.1779,
10.104540,0.2040,0.7393,0.4434,0.0730,-0.8719,-0.8099,0.0368,0.3462,-0.1880,
10.125247,0.0757,0.8204,0.3948,0.0730,-0.8719,-0.8099,0.0368,0.3462,-0.1880,
10.127388,0.0757,0.8204,0.3948,-1.0473,-0.0822,-1.3273,0.0368,0.3462,-0.1880,
10.129277,0.0757,0.8204,0.3948,-1.0473,-0.0822,-1.3273,0.1316,0.3696,-0.1145,
10.146347,0.0757,0.8204,0.3948,-1.0473,-0.0822,-1.3273,0.1774,0.3228,-0.0820,
10.164645,0.0425,0.8944,0.4376,-1.0473,-0.0822,-1.3273,0.1774,0.3228,-0.0820,
10.167023,0.0425,0.8944,0.4376,-1.2575,0.5932,-0.8683,0.1774,0.3228,-0.0820,
10.168808,0.0425,0.8944,0.4376,-1.2575,0.5932,-0.8683,0.1992,0.2594,-0.0490,
10.185084,0.0425,0.8944,0.4376,-1.2575,0.5932,-0.8683,0.1470,0.2376,-0.0368,
10.204963,0.1539,0.8890,0.5157,-1.2575,0.5932,-0.8683,0.1470,0.2376,-0.0368,
10.207342,0.1539,0.8890,0.5157,0.3118,0.1181,0.4853,0.1470,0.2376,-0.0368,
10.209015,0.1539,0.8890,0.5157,0.3118,0.1181,0.4853,0.0314,0.2242,-0.0911,
10.225138,0.1539,0.8890,0.5157,0.3118,0.1181,0.4853,-0.0538,0.2621,-0.1555,
10.245807,0.1896,0.8404,0.5358,0.3118,0.1181,0.4853,-0.0538,0.2621,-0.1555,
10.247849,0.1896,0.8404,0.5358,0.3815,-0.1633,0.4088,-0.0538,0.2621,-0.1555,
10.249486,0.1896,0.8404,0.5358,0.3815,-0.1633,0.4088,-0.0032,0.4501,-0.1704,
10.265044,0.1896,0.8404,0.5358,0.3815,-0.1633,0.4088,0.1316,0.4506,-0.1534,
10.284513,0.2033,0.7945,0.5089,0.3815,-0.1633,0.4088,0.1316,0.4506,-0.1534,
10.287428,0.2033,0.7945,0.5089,0.6443,-0.6302,0.1371,0.1316,0.4506,-0.1534,
10.289329,0.2033,0.7945,0.5089,0.6443,-0.6302,0.1371,0.3127,0.3846,-0.1790,
10.305074,0.2033,0.7945,0.5089,0.6443,-0.6302,0.1371,0.4240,0.5044,-0.2754,
10.325002,0.1415,0.9328,0.4950,0.6443,-0.6302,0.1371,0.4240,0.5044,-0.2754,
10.327033,0.1415,0.9328,0.4950,0.1888,0.6454,0.1009,0.4240,0.5044,-0.2754,
10.328451,0.1415,0.9328,0.4950,0.1888,0.6454,0.1009,0.4234,0.6024,-0.3728,
10.345775,0.1415,0.9328,0.4950,0.1888,0.6454,0.1009,0.3137,0.6189,-0.3792,
10.364250,0.0230,1.1289,0.5920,0.1888,0.6454,0.1009,0.3137,0.6189,-0.3792,
10.366298,0.0230,1.1289,0.5920,-0.7297,2.4826,1.1508,0.3137,0.6189,-0.3792,
10.368009,0.0230,1.1289,0.5920,-0.7297,2.4826,1.1508,0.1582,0.6631,-0.2828,
10.384144,0.0230,1.1289,0.5920,-0.7297,2.4826,1.1508,0.1827,0.6195,-0.1395,
10.404276,0.0537,0.9995,0.7178,-0.7297,2.4826,1.1508,0.1827,0.6195,-0.1395,
10.406907,0.0537,0.9995,0.7178,-0.2368,1.1748,2.4205,0.1827,0.6195,-0.1395,
10.408739,0.0537,0.9995,0.7178,-0.2368,1.1748,2.4205,0.3696,0.5433,0.0064,
10.424569,0.0537,0.9995,0.7178,-0.2368,1.1748,2.4205,0.4842,0.6599,0.1092,
10.446083,0.0691,0.7847,0.4784,-0.2368,1.1748,2.4205,0.4842,0.6599,0.1092,
10.448051,0.0691,0.7847,0.4784,0.0030,-1.0003,0.1944,0.4842,0.6599,0.1092,
10.449908,0.0691,0.7847,0.4784,0.0030,-1.0003,0.1944,0.4378,0.8096,0.1949,
10.463839,0.0691,0.7847,0.4784,0.0030,-1.0003,0.1944,0.3824,0.7361,0.2386,
10.484023,0.0843,0.8253,0.3775,0.0030,-1.0003,0.1944,0.3824,0.7361,0.2386,
10.486465,0.0843,0.8253,0.3775,0.2062,-0.6627,-0.6849,0.3824,0.7361,0.2386,
10.488101,0.0843,0.8253,0.3775,0.2062,-0.6627,-0.6849,0.3047,0.5806,0.3302,
10.504403,0.0843,0.8253,0.3775,0.2062,-0.6627,-0.6849,0.2397,0.4671,0.5023,
10.524493,0.1708,0.8306,0.3848,0.2062,-0.6627,-0.6849,0.2397,0.4671,0.5023,
10.526695,0.1708,0.8306,0.3848,0.9849,-0.6435,-0.5352,0.2397,0.4671,0.5023,
10.528360,0.1708,0.8306,0.3848,0.9849,-0.6435,-0.5352,0.1081,0.1784,0.5300,
10.544423,0.1708,0.8306,0.3848,0.9849,-0.6435,-0.5352,0.0975,-0.0772,0.3814,
10.563795,-0.0606,0.9633,0.4183,0.9849,-0.6435,-0.5352,0.0975,-0.0772,0.3814,
10.565648,-0.0606,0.9633,0.4183,-1.4168,0.6504,-0.1707,0.0975,-0.0772,0.3814,
10.566737,-0.0606,0.9633,0.4183,-1.4168,0.6504,-0.1707,0.0985,-0.2200,0.3888,
10.583670,-0.0606,0.9633,0.4183,-1.4168,0.6504,-0.1707,0.0586,-0.5284,0.4831,
10.604414,-0.0833,1.0136,0.4466,-1.4168,0.6504,-0.1707,0.0586,-0.5284,0.4831,
10.606523,-0.0833,1.0136,0.4466,-1.8304,1.1423,0.1508,0.0586,-0.5284,0.4831,
10.608161,-0.0833,1.0136,0.4466,-1.8304,1.1423,0.1508,0.0453,-0.7249,0.5497,
10.624429,-0.0833,1.0136,0.4466,-1.8304,1.1423,0.1508,-0.0549,-0.8064,0.6125,
10.643639,0.1102,0.9648,0.5551,-1.8304,1.1423,0.1508,-0.0549,-0.8064,0.6125,
10.645615,0.1102,0.9648,0.5551,-0.2558,0.6915,1.2452,-0.0549,-0.8064,0.6125,
10.646875,0.1102,0.9648,0.5551,-0.2558,0.6915,1.2452,-0.1001,-1.0173,0.7414,
10.663542,0.1102,0.9648,0.5551,-0.2558,0.6915,1.2452,0.0154,-1.0637,0.7899,
10.683660,0.3056,0.8568,0.4935,-0.2558,0.6915,1.2452,0.0154,-1.0637,0.7899,
10.685412,0.3056,0.8568,0.4935,1.2258,-0.3089,0.6822,0.0154,-1.0637,0.7899,
10.686317,0.3056,0.8568,0.4935,1.2258,-0.3089,0.6822,0.1656,-0.8181,0.6210,
10.704245,0.3056,0.8568,0.4935,1.2258,-0.3089,0.6822,0.2956,-0.7057,0.4895,
10.724490,0.2035,1.0183,0.3560,1.2258,-0.3089,0.6822,0.2956,-0.7057,0.4895,
10.726579,0.2035,1.0183,0.3560,-0.0858,1.2771,-0.5266,0.2956,-0.7057,0.4895,
10.728243,0.2035,1.0183,0.3560,-0.0858,1.2771,-0.5266,0.1427,-0.7345,0.4043,
10.746312,0.2035,1.0183,0.3560,-0.0858,1.2771,-0.5266,-0.0234,-0.5342,0.3776,
10.763681,0.3200,0.9249,0.3792,-0.0858,1.2771,-0.5266,-0.0234,-0.5342,0.3776,
10.765489,0.3200,0.9249,0.3792,0.8210,0.3864,-0.2214,-0.0234,-0.5342,0.3776,
10.766604,0.3200,0.9249,0.3792,0.8210,0.3864,-0.2214,-0.3217,-0.4309,0.3755,
10.783355,0.3200,0.9249,0.3792,0.8210,0.3864,-0.2214,-0.6125,-0.2583,0.2818,
10.803987,0.4151,0.7168,0.3924,0.8210,0.3864,-0.2214,-0.6125,-0.2583,0.2818,
10.805985,0.4151,0.7168,0.3924,1.5621,-1.5420,-0.2176,-0.6125,-0.2583,0.2818,
10.807751,0.4151,0.7168,0.3924,1.5621,-1.5420,-0.2176,-0.7505,-0.1332,0.1411,
10.824038,0.4151,0.7168,0.3924,1.5621,-1.5420,-0.2176,-0.7372,-0.0724,0.0442,
10.843711,0.1984,0.8233,0.4341,1.5621,-1.5420,-0.2176,-0.7372,-0.0724,0.0442,
10.846600,0.1984,0.8233,0.4341,-0.6117,-0.3647,-0.0490,-0.7372,-0.0724,0.0442,
10.848550,0.1984,0.8233,0.4341,-0.6117,-0.3647,-0.0490,-0.5902,-0.1401,-0.0447,
10.864054,0.1984,0.8233,0.4341,-0.6117,-0.3647,-0.0490,-0.6019,-0.2381,0.0719,
10.883982,0.3457,0.7595,0.4549,-0.6117,-0.3647,-0.0490,-0.6019,-0.2381,0.0719,
10.886666,0.3457,0.7595,0.4549,0.7832,-0.8809,-0.0241,-0.6019,-0.2381,0.0719,
10.888439,0.3457,0.7595,0.4549,0.7832,-0.8809,-0.0241,-0.6402,-0.1321,0.0005,
10.903827,0.3457,0.7595,0.4549,0.7832,-0.8809,-0.0241,-0.6072,0.0197,-0.1955,
10.924643,0.3691,0.7979,0.4718,0.7832,-0.8809,-0.0241,-0.6072,0.0197,-0.1955,
10.927127,0.3691,0.7979,0.4718,0.3087,-0.2315,0.1061,-0.6072,0.0197,-0.1955,
10.928954,0.3691,0.7979,0.4718,0.3087,-0.2315,0.1061,-0.4389,-0.1369,-0.4128,
10.946574,0.3691,0.7979,0.4718,0.3087,-0.2315,0.1061,-0.3840,-0.2253,-0.5625,
10.964333,0.2609,0.7385,0.4314,0.3087,-0.2315,0.1061,-0.3840,-0.2253,-0.5625,
10.967968,0.2609,0.7385,0.4314,-0.6282,-0.8015,-0.3975,-0.3840,-0.2253,-0.5625,
10.970131,0.2609,0.7385,0.4314,-0.6282,-0.8015,-0.3975,-0.3744,-0.1204,-0.5529,
10.983840,0.2609,0.7385,0.4314,-0.6282,-0.8015,-0.3975,-0.4458,-0.0170,-0.4858,
11.004213,0.1823,0.7373,0.4214,-0.6282,-0.8015,-0.3975,-0.4458,-0.0170,-0.4858,
11.006914,0.1823,0.7373,0.4214,-1.2444,-0.8017,-0.6184,-0.4458,-0.0170,-0.4858,
11.008810,0.1823,0.7373,0.4214,-1.2444,-0.8017,-0.6184,-0.4485,-0.0549,-0.4288,
11.023733,0.1823,0.7373,0.4214,-1.2444,-0.8017,-0.6184,-0.4554,0.0602,-0.3696,
11.044365,0.0931,0.8409,0.4358,-1.2444,-0.8017,-0.6184,-0.4554,0.0602,-0.3696,
11.049030,0.0931,0.8409,0.4358,-1.5622,0.0408,-0.5045,-0.4554,0.0602,-0.3696,
11.051042,0.0931,0.8409,0.4358,-1.5622,0.0408,-0.5045,-0.3915,0.0703,-0.2594,
11.063178,0.0931,0.8409,0.4358,-1.5622,0.0408,-0.5045,-0.3718,0.1726,-0.2056,
11.083528,0.1371,0.8431,0.4253,-1.5622,0.0408,-0.5045,-0.3718,0.1726,-0.2056,
11.085737,0.1371,0.8431,0.4253,-1.0226,0.1077,-0.7383,-0.3718,0.1726,-0.2056,
11.087527,0.1371,0.8431,0.4253,-1.0226,0.1077,-0.7383,-0.3329,0.2796,-0.1832,
11.103732,0.1371,0.8431,0.4253,-1.0226,0.1077,-0.7383,-0.3217,0.3281,-0.1854,
11.123414,0.2135,0.5961,0.3840,-1.0226,0.1077,-0.7383,-0.3217,0.3281,-0.1854,
11.125645,0.2135,0.5961,0.3840,-0.1529,-2.2648,-1.2772,-0.3217,0.3281,-0.1854,
11.127451,0.2135,0.5961,0.3840,-0.1529,-2.2648,-1.2772,-0.3302,0.2812,-0.2242,
11.143514,0.2135,0.5961,0.3840,-0.1529,-2.2648,-1.2772,-0.2999,0.2083,-0.2381,
11.163801,0.1336,0.5876,0.3005,-0.1529,-2.2648,-1.2772,-0.2999,0.2083,-0.2381,
11.166334,0.1336,0.5876,0.3005,-0.8113,-2.3045,-2.2191,-0.2999,0.2083,-0.2381,
11.168206,0.1336,0.5876,0.3005,-0.8113,-2.3045,-2.2191,-0.2312,0.1443,-0.1747,
11.183697,0.1336,0.5876,0.3005,-0.8113,-2.3045,-2.2191,-0.1848,0.1614,-0.0655,
11.203903,0.1251,0.9562,0.4268,-0.8113,-2.3045,-2.2191,-0.1848,0.1614,-0.0655,
11.207067,0.1251,0.9562,0.4268,-0.8248,1.3415,-1.0608,-0.1848,0.1614,-0.0655,
11.209089,0.1251,0.9562,0.4268,-0.8248,1.3415,-1.0608,-0.1401,0.2882,-0.0607,
11.224003,0.1251,0.9562,0.4268,-0.8248,1.3415,-1.0608,0.0059,0.3899,-0.1891,
11.243264,0.1192,0.9587,0.6577,-0.8248,1.3415,-1.0608,0.0059,0.3899,-0.1891,
11.245765,0.1192,0.9587,0.6577,-0.7478,1.3553,1.1665,0.0059,0.3899,-0.1891,
11.247167,0.1192,0.9587,0.6577,-0.7478,1.3553,1.1665,0.2882,0.3739,-0.3079,
11.263522,0.1192,0.9587,0.6577,-0.7478,1.3553,1.1665,0.5459,0.2205,-0.4144,
11.283823,0.1429,0.9083,0.6977,-0.7478,1.3553,1.1665,0.5459,0.2205,-0.4144,
11.287725,0.1429,0.9083,0.6977,-0.3308,0.7495,1.6691,0.5459,0.2205,-0.4144,
11.289850,0.1429,0.9083,0.6977,-0.3308,0.7495,1.6691,0.7105,-0.0218,-0.4474,
11.302427,0.1429,0.9083,0.6977,-0.3308,0.7495,1.6691,0.7286,-0.0847,-0.3483,
11.322531,0.2206,0.9494,0.6296,-0.3308,0.7495,1.6691,0.7286,-0.0847,-0.3483,
11.324093,0.2206,0.9494,0.6296,0.5507,0.9802,1.2413,0.7286,-0.0847,-0.3483,
11.325180,0.2206,0.9494,0.6296,0.5507,0.9802,1.2413,0.6722,-0.0815,-0.2887,
11.343587,0.2206,0.9494,0.6296,0.5507,0.9802,1.2413,0.7020,-0.0836,-0.2913,
11.362566,0.2125,0.8793,0.5472,0.5507,0.9802,1.2413,0.7020,-0.0836,-0.2913,
11.364605,0.2125,0.8793,0.5472,0.5519,0.1450,0.6666,0.7020,-0.0836,-0.2913,
11.366384,0.2125,0.8793,0.5472,0.5519,0.1450,0.6666,0.8197,0.0863,-0.3057,
11.383026,0.2125,0.8793,0.5472,0.5519,0.1450,0.6666,0.8149,0.2551,-0.3148,
11.402907,0.1405,0.9169,0.4893,0.5519,0.1450,0.6666,0.8149,0.2551,-0.3148,
11.405280,0.1405,0.9169,0.4893,-0.0196,0.3507,0.3613,0.8149,0.2551,-0.3148,
11.406425,0.1405,0.9169,0.4893,-0.0196,0.3507,0.3613,0.6104,0.4330,-0.2786,
11.422140,0.1405,0.9169,0.4893,-0.0196,0.3507,0.3613,0.4735,0.5960,-0.1459,
11.442834,0.0921,0.8546,0.5089,-0.0196,0.3507,0.3613,0.4735,0.5960,-0.1459,
11.445654,0.0921,0.8546,0.5089,-0.3323,-0.3561,0.6959,0.4735,0.5960,-0.1459,
11.447819,0.0921,0.8546,0.5089,-0.3323,-0.3561,0.6959,0.5183,0.7244,-0.0325,
11.462727,0.0921,0.8546,0.5089,-0.3323,-0.3561,0.6959,0.5459,0.8677,0.0357,
11.483724,0.0977,0.7454,0.3411,-0.3323,-0.3561,0.6959,0.5459,0.8677,0.0357,
11.487267,0.0977,0.7454,0.3411,-0.1466,-1.5112,-0.8087,0.5459,0.8677,0.0357,
11.489433,0.0977,0.7454,0.3411,-0.1466,-1.5112,-0.8087,0.4650,0.8810,0.0064,
11.503194,0.0977,0.7454,0.3411,-0.1466,-1.5112,-0.8087,0.3159,0.7430,-0.1039,
11.523417,0.0281,0.8851,0.3743,-0.1466,-1.5112,-0.8087,0.3159,0.7430,-0.1039,
11.526657,0.0281,0.8851,0.3743,-0.6768,-0.2058,-0.3830,0.3159,0.7430,-0.1039,
11.528676,0.0281,0.8851,0.3743,-0.6768,-0.2058,-0.3830,0.1965,0.4922,-0.0905,
11.544459,0.0281,0.8851,0.3743,-0.6768,-0.2058,-0.3830,0.1678,0.3984,0.1246,
11.563682,0.0772,1.0874,0.4752,-0.6768,-0.2058,-0.3830,0.1678,0.3984,0.1246,
11.565732,0.0772,1.0874,0.4752,-0.1284,1.7483,0.6531,0.1678,0.3984,0.1246,
11.567063,0.0772,1.0874,0.4752,-0.1284,1.7483,0.6531,0.1273,0.3063,0.4011,
11.582926,0.0772,1.0874,0.4752,-0.1284,1.7483,0.6531,0.0964,-0.0671,0.4352,
11.602586,0.0767,0.8793,0.4600,-0.1284,1.7483,0.6531,0.0964,-0.0671,0.4352,
11.605080,0.0767,0.8793,0.4600,-0.2550,-0.2904,0.5308,0.0964,-0.0671,0.4352,
11.607231,0.0767,0.8793,0.4600,-0.2550,-0.2904,0.5308,0.1273,-0.3995,0.3803,
11.622230,0.0767,0.8793,0.4600,-0.2550,-0.2904,0.5308,0.2402,-0.6035,0.3601,
11.642920,-0.0836,0.8954,0.2687,-0.2550,-0.2904,0.5308,0.2402,-0.6035,0.3601,
11.647013,-0.0836,0.8954,0.2687,-1.9992,-0.1520,-1.2509,0.2402,-0.6035,0.3601,
11.649291,-0.0836,0.8954,0.2687,-1.9992,-0.1520,-1.2509,0.1513,-0.6189,0.4011,
11.662836,-0.0836,0.8954,0.2687,-1.9992,-0.1520,-1.2509,-0.1609,-0.5481,0.4703,
11.682370,-0.0437,1.0613,0.4478,-1.9992,-0.1520,-1.2509,-0.1609,-0.5481,0.4703,
11.684741,-0.0437,1.0613,0.4478,-1.8261,1.4922,0.5335,-0.1609,-0.5481,0.4703,
11.686464,-0.0437,1.0613,0.4478,-1.8261,1.4922,0.5335,-0.2866,-0.7483,0.6658,
11.702468,-0.0437,1.0613,0.4478,-1.8261,1.4922,0.5335,-0.3659,-1.0280,0.8543,
11.722956,0.2709,0.9494,0.5661,-1.8261,1.4922,0.5335,-0.3659,-1.0280,0.8543,
11.726577,0.2709,0.9494,0.5661,0.8576,0.4950,1.6303,-0.3659,-1.0280,0.8543,
11.728076,0.2709,0.9494,0.5661,0.8576,0.4950,1.6303,-0.4218,-1.1068,0.8506,
11.742885,0.2709,0.9494,0.5661,0.8576,0.4950,1.6303,-0.3467,-1.0967,0.6088,
11.762506,0.3134,0.8094,0.3926,0.8576,0.4950,1.6303,-0.3467,-1.0967,0.6088,
11.764134,0.3134,0.8094,0.3926,0.8565,-0.7566,-0.1238,-0.3467,-1.0967,0.6088,
11.765961,0.3134,0.8094,0.3926,0.8565,-0.7566,-0.1238,-0.1486,-1.0290,0.4155,
11.782389,0.3134,0.8094,0.3926,0.8565,-0.7566,-0.1238,-0.2519,-1.0669,0.2365,
11.802078,0.2211,0.9511,0.2858,0.8565,-0.7566,-0.1238,-0.2519,-1.0669,0.2365,
11.804199,0.2211,0.9511,0.2858,-0.3099,0.6841,-1.1292,-0.2519,-1.0669,0.2365,
11.806116,0.2211,0.9511,0.2858,-0.3099,0.6841,-1.1292,-0.7164,-0.8373,0.1609,
11.822250,0.2211,0.9511,0.2858,-0.3099,0.6841,-1.1292,-1.1031,-0.4245,0.2418,
11.842538,0.3352,0.8358,0.4571,-0.3099,0.6841,-1.1292,-1.1031,-0.4245,0.2418,
11.844726,0.3352,0.8358,0.4571,0.6411,-0.2818,0.3082,-1.1031,-0.4245,0.2418,
11.846420,0.3352,0.8358,0.4571,0.6411,-0.2818,0.3082,-1.3998,-0.0762,0.3132,
11.863046,0.3352,0.8358,0.4571,0.6411,-0.2818,0.3082,-1.4701,-0.1177,0.2285,
11.881671,0.3413,0.7261,0.6613,0.6411,-0.2818,0.3082,-1.4701,-0.1177,0.2285,
11.883942,0.3413,0.7261,0.6613,0.5892,-1.0661,1.8295,-1.4701,-0.1177,0.2285,
11.885450,0.3413,0.7261,0.6613,0.5892,-1.0661,1.8295,-1.3231,-0.4304,0.2360,
11.902025,0.3413,0.7261,0.6613,0.5892,-1.0661,1.8295,-1.1595,-0.6045,0.0842,
11.922016,0.3506,0.6577,0.5854,0.5892,-1.0661,1.8295,-1.1595,-0.6045,0.0842,
11.923959,0.3506,0.6577,0.5854,0.5191,-1.4661,0.7290,-1.1595,-0.6045,0.0842,
11.925669,0.3506,0.6577,0.5854,0.5191,-1.4661,0.7290,-0.8964,-0.2349,-0.0623,
11.941408,0.3506,0.6577,0.5854,0.5191,-1.4661,0.7290,-0.6610,-0.1065,-0.1236,
11.961494,0.3440,0.8025,0.5624,0.5191,-1.4661,0.7290,-0.6610,-0.1065,-0.1236,
11.963925,0.3440,0.8025,0.5624,0.4372,0.1107,0.2737,-0.6610,-0.1065,-0.1236,
11.965523,0.3440,0.8025,0.5624,0.4372,0.1107,0.2737,-0.3478,-0.0650,-0.2349,
11.981340,0.3440,0.8025,0.5624,0.4372,0.1107,0.2737,-0.1246,-0.1001,-0.4565,
12.001374,0.3059,0.7393,0.5299,0.4372,0.1107,0.2737,-0.1246,-0.1001,-0.4565,
12.003683,0.3059,0.7393,0.5299,0.1416,-0.4929,-0.1119,-0.1246,-0.1001,-0.4565,
12.004983,0.3059,0.7393,0.5299,0.1416,-0.4929,-0.1119,0.0815,0.1262,-0.6663,
12.021833,0.3059,0.7393,0.5299,0.1416,-0.4929,-0.1119,0.2237,0.2626,-0.6599,
12.041813,0.0767,0.7063,0.4112,0.1416,-0.4929,-0.1119,0.2237,0.2626,-0.6599,
12.043956,0.0767,0.7063,0.4112,-1.8560,-0.9211,-1.2490,0.2237,0.2626,-0.6599,
12.045920,0.0767,0.7063,0.4112,-1.8560,-0.9211,-1.2490,0.2919,0.1017,-0.5752,
12.062598,0.0767,0.7063,0.4112,-1.8560,-0.9211,-1.2490,0.1188,0.1726,-0.4059,
12.081190,0.0034,0.7173,0.2839,-1.8560,-0.9211,-1.2490,0.1188,0.1726,-0.4059,
12.083244,0.0034,0.7173,0.2839,-2.3909,-0.9057,-2.4454,0.1188,0.1726,-0.4059,
12.085144,0.0034,0.7173,0.2839,-2.3909,-0.9057,-2.4454,-0.1976,0.2764,-0.2344,
12.101589,0.0034,0.7173,0.2839,-2.3909,-0.9057,-2.4454,-0.3899,0.2791,-0.0352,
12.122015,0.1542,0.7129,0.4639,-2.3909,-0.9057,-2.4454,-0.3899,0.2791,-0.0352,
12.124354,0.1542,0.7129,0.4639,-0.8125,-0.8997,-0.7999,-0.3899,0.2791,-0.0352,
12.126339,0.1542,0.7129,0.4639,-0.8125,-0.8997,-0.7999,-0.4772,0.3159,-0.0154,
12.141579,0.1542,0.7129,0.4639,-0.8125,-0.8997,-0.7999,-0.3814,0.3611,0.0501,
12.161293,0.1940,0.7368,0.5047,-0.8125,-0.8997,-0.7999,-0.3814,0.3611,0.0501,
12.164063,0.1940,0.7368,0.5047,-0.3542,-0.5704,-0.5654,-0.3814,0.3611,0.0501,
12.166236,0.1940,0.7368,0.5047,-0.3542,-0.5704,-0.5654,-0.2205,0.3478,0.0735,
12.181376,0.1940,0.7368,0.5047,-0.3542,-0.5704,-0.5654,-0.0565,0.3675,0.0346,
12.201593,0.1693,0.7615,0.5392,-0.3542,-0.5704,-0.5654,-0.0565,0.3675,0.0346,
12.204031,0.1693,0.7615,0.5392,-0.5324,-0.2938,-0.3020,-0.0565,0.3675,0.0346,
12.206041,0.1693,0.7615,0.5392,-0.5324,-0.2938,-0.3020,0.1124,0.3414,0.0064,
12.221870,0.1693,0.7615,0.5392,-0.5324,-0.2938,-0.3020,0.2573,0.3558,-0.0144,
12.241575,0.1397,0.7537,0.5455,-0.5324,-0.2938,-0.3020,0.2573,0.3558,-0.0144,
12.244234,0.1397,0.7537,0.5455,-0.7393,-0.4133,-0.2118,0.2573,0.3558,-0.0144,
12.246299,0.1397,0.7537,0.5455,-0.7393,-0.4133,-0.2118,0.3792,0.4021,-0.0549,
12.261464,0.1397,0.7537,0.5455,-0.7393,-0.4133,-0.2118,0.4666,0.4554,-0.1055,
12.281395,0.2519,0.8514,0.6081,-0.7393,-0.4133,-0.2118,0.4666,0.4554,-0.1055,
12.283686,0.2519,0.8514,0.6081,0.4794,0.4451,0.4980,0.4666,0.4554,-0.1055,
12.285089,0.2519,0.8514,0.6081,0.4794,0.4451,0.4980,0.5246,0.4682,-0.2093,
12.301089,0.2519,0.8514,0.6081,0.4794,0.4451,0.4980,0.5273,0.4123,-0.3728,
12.321582,0.2213,0.9474,0.7231,0.4794,0.4451,0.4980,0.5273,0.4123,-0.3728,
12.323600,0.2213,0.9474,0.7231,0.3671,1.2525,1.7570,0.5273,0.4123,-0.3728,
12.325222,0.2213,0.9474,0.7231,0.3671,1.2525,1.7570,0.5811,0.2471,-0.5204,
12.341334,0.2213,0.9474,0.7231,0.3671,1.2525,1.7570,0.7100,0.1694,-0.5641,
12.360690,0.2008,0.9738,0.7004,0.3671,1.2525,1.7570,0.7100,0.1694,-0.5641,
12.363017,0.2008,0.9738,0.7004,0.3853,1.3397,1.7294,0.7100,0.1694,-0.5641,
12.365285,0.2008,0.9738,0.7004,0.3853,1.3397,1.7294,0.8362,0.1012,-0.5305,
12.380600,0.2008,0.9738,0.7004,0.3853,1.3397,1.7294,0.8671,0.0506,-0.5236,
12.400710,0.1327,0.8216,0.4793,0.3853,1.3397,1.7294,0.8671,0.0506,-0.5236,
12.402672,0.1327,0.8216,0.4793,-0.0960,-0.3479,-0.1676,0.8671,0.0506,-0.5236,
12.404799,0.1327,0.8216,0.4793,-0.0960,-0.3479,-0.1676,0.7755,0.1241,-0.4751,
12.421106,0.1327,0.8216,0.4793,-0.0960,-0.3479,-0.1676,0.5619,0.4181,-0.3366,
12.441310,0.0738,0.8355,0.4336,-0.0960,-0.3479,-0.1676,0.5619,0.4181,-0.3366,
12.444706,0.0738,0.8355,0.4336,-0.4870,-0.3515,-0.4172,0.5619,0.4181,-0.3366,
12.447486,0.0738,0.8355,0.4336,-0.4870,-0.3515,-0.4172,0.4011,0.6482,-0.2088,
12.461716,0.0738,0.8355,0.4336,-0.4870,-0.3515,-0.4172,0.3467,0.6498,-0.0714,
12.480972,0.0542,0.8570,0.5072,-0.4870,-0.3515,-0.4172,0.3467,0.6498,-0.0714,
12.483399,0.0542,0.8570,0.5072,-0.5077,-0.2071,0.3847,0.3467,0.6498,-0.0714,
12.485292,0.0542,0.8570,0.5072,-0.5077,-0.2071,0.3847,0.3127,0.7063,-0.0170,
12.501052,0.0542,0.8570,0.5072,-0.5077,-0.2071,0.3847,0.3052,0.7979,0.0059,
12.521384,0.0432,0.8590,0.4732,-0.5077,-0.2071,0.3847,0.3052,0.7979,0.0059,
12.523607,0.0432,0.8590,0.4732,-0.4709,-0.2373,0.1147,0.3052,0.7979,0.0059,
12.525409,0.0432,0.8590,0.4732,-0.4709,-0.2373,0.1147,0.2780,0.7297,0.0048,
12.540502,0.0432,0.8590,0.4732,-0.4709,-0.2373,0.1147,0.2439,0.5049,-0.0027,
12.561200,0.0051,0.9755,0.4195,-0.4709,-0.2373,0.1147,0.2439,0.5049,-0.0027,
12.563661,0.0051,0.9755,0.4195,-0.3788,0.8325,-0.3408,0.2439,0.5049,-0.0027,
12.565676,0.0051,0.9755,0.4195,-0.3788,0.8325,-0.3408,0.2162,0.4128,0.2892,
12.580203,0.0051,0.9755,0.4195,-0.3788,0.8325,-0.3408,0.1417,0.2003,0.4692,
12.600461,0.2125,0.8829,0.4793,-0.3788,0.8325,-0.3408,0.1417,0.2003,0.4692,
12.602634,0.2125,0.8829,0.4793,1.5556,-0.0961,0.2984,0.1417,0.2003,0.4692,
12.604335,0.2125,0.8829,0.4793,1.5556,-0.0961,0.2984,0.1395,0.0336,0.4629,
12.621124,0.2125,0.8829,0.4793,1.5556,-0.0961,0.2984,0.1438,-0.1726,0.4559,
12.640978,0.0748,0.7947,0.4764,1.5556,-0.0961,0.2984,0.1438,-0.1726,0.4559,
12.643712,0.0748,0.7947,0.4764,0.0234,-0.9671,0.3087,0.1438,-0.1726,0.4559,
12.645265,0.0748,0.7947,0.4764,0.0234,-0.9671,0.3087,0.1534,-0.3659,0.4256,
12.661177,0.0748,0.7947,0.4764,0.0234,-0.9671,0.3087,0.1348,-0.4975,0.4570,
12.681132,-0.0540,1.0222,0.4332,0.0234,-0.9671,0.3087,0.1348,-0.4975,0.4570,
12.683241,-0.0540,1.0222,0.4332,-1.4504,1.2502,-0.0515,0.1348,-0.4975,0.4570,
12.685116,-0.0540,1.0222,0.4332,-1.4504,1.2502,-0.0515,0.0133,-0.6812,0.4746,
12.700574,-0.0540,1.0222,0.4332,-1.4504,1.2502,-0.0515,-0.1273,-0.8847,0.4969,
12.720851,0.0523,0.9951,0.5277,-1.4504,1.2502,-0.0515,-0.1273,-0.8847,0.4969,
12.723431,0.0523,0.9951,0.5277,-0.7035,1.0146,0.8868,-0.1273,-0.8847,0.4969,
12.724974,0.0523,0.9951,0.5277,-0.7035,1.0146,0.8868,-0.2711,-1.0296,0.6045,
12.740288,0.0523,0.9951,0.5277,-0.7035,1.0146,0.8868,-0.3009,-1.0264,0.6535,
12.760974,0.3086,0.8441,0.5177,-0.7035,1.0146,0.8868,-0.3009,-1.0264,0.6535,
12.763583,0.3086,0.8441,0.5177,1.4159,-0.3770,0.7398,-0.3009,-1.0264,0.6535,
12.765286,0.3086,0.8441,0.5177,1.4159,-0.3770,0.7398,-0.2647,-1.1073,0.5140,
12.780213,0.3086,0.8441,0.5177,1.4159,-0.3770,0.7398,-0.1917,-0.9215,0.3696,
12.800831,0.2511,0.9318,0.3928,1.4159,-0.3770,0.7398,-0.1917,-0.9215,0.3696,
12.802993,0.2511,0.9318,0.3928,0.5601,0.5306,-0.4608,-0.1917,-0.9215,0.3696,
12.804685,0.2511,0.9318,0.3928,0.5601,0.5306,-0.4608,-0.2562,-0.7739,0.2514,
12.820670,0.2511,0.9318,0.3928,0.5601,0.5306,-0.4608,-0.4783,-0.6195,0.2381,
12.841674,0.2634,0.7752,0.3740,0.5601,0.5306,-0.4608,-0.4783,-0.6195,0.2381,
12.844791,0.2634,0.7752,0.3740,0.4721,-0.9220,-0.7110,-0.4783,-0.6195,0.2381,
12.846421,0.2634,0.7752,0.3740,0.4721,-0.9220,-0.7110,-0.7947,-0.3095,0.2397,
12.860034,0.2634,0.7752,0.3740,0.4721,-0.9220,-0.7110,-1.0274,-0.1262,0.2929,
12.879803,0.2245,0.7368,0.5042,0.4721,-0.9220,-0.7110,-1.0274,-0.1262,0.2929,
12.880771,0.2245,0.7368,0.5042,-0.0376,-1.1100,0.2771,-1.0274,-0.1262,0.2929,
12.881558,0.2245,0.7368,0.5042,-0.0376,-1.1100,0.2771,-1.0871,-0.2253,0.3515,
12.900465,0.2245,0.7368,0.5042,-0.0376,-1.1100,0.2771,-0.9896,-0.4202,0.3574,
12.920756,0.2976,0.9020,0.6499,-0.0376,-1.1100,0.2771,-0.9896,-0.4202,0.3574,
12.923070,0.2976,0.9020,0.6499,0.4995,0.7422,1.3921,-0.9896,-0.4202,0.3574,
12.924692,0.2976,0.9020,0.6499,0.4995,0.7422,1.3921,-0.8117,-0.5065,0.3190,
12.940820,0.2976,0.9020,0.6499,0.4995,0.7422,1.3921,-0.6940,-0.4394,0.2360,
12.960179,0.4485,0.7385,0.6648,0.4995,0.7422,1.3921,-0.6940,-0.4394,0.2360,
12.962823,0.4485,0.7385,0.6648,1.7834,-0.6708,1.3375,-0.6940,-0.4394,0.2360,
12.964629,0.4485,0.7385,0.6648,1.7834,-0.6708,1.3375,-0.4692,-0.2013,0.0730,
12.979896,0.4485,0.7385,0.6648,1.7834,-0.6708,1.3375,-0.2333,-0.0101,-0.1518,
13.000228,0.3149,0.6257,0.5389,1.7834,-0.6708,1.3375,-0.2333,-0.0101,-0.1518,
13.003049,0.3149,0.6257,0.5389,0.4427,-1.6909,-0.0092,-0.2333,-0.0101,-0.1518,
13.004957,0.3149,0.6257,0.5389,0.4427,-1.6909,-0.0092,0.0756,0.0320,-0.3617,
13.020787,0.3149,0.6257,0.5389,0.4427,-1.6909,-0.0092,0.3340,-0.0202,-0.3680,
13.039889,0.2191,0.7114,0.3142,0.4427,-1.6909,-0.0092,0.3340,-0.0202,-0.3680,
13.042248,0.2191,0.7114,0.3142,-0.3800,-0.9312,-2.1481,0.3340,-0.0202,-0.3680,
13.044094,0.2191,0.7114,0.3142,-0.3800,-0.9312,-2.1481,0.2642,0.1475,-0.3212,
13.060581,0.2191,0.7114,0.3142,-0.3800,-0.9312,-2.1481,0.1129,0.1747,-0.2993,
13.081063,0.0452,0.6171,0.2712,-0.3800,-0.9312,-2.1481,0.1129,0.1747,-0.2993,
13.084288,0.0452,0.6171,0.2712,-1.9528,-1.9251,-2.5255,0.1129,0.1747,-0.2993,
13.086566,0.0452,0.6171,0.2712,-1.9528,-1.9251,-2.5255,-0.0730,0.2200,-0.2791,
13.100754,0.0452,0.6171,0.2712,-1.9528,-1.9251,-2.5255,-0.2530,0.2184,-0.1092,
13.120127,0.1644,0.7310,0.3704,-1.9528,-1.9251,-2.5255,-0.2530,0.2184,-0.1092,
13.123402,0.1644,0.7310,0.3704,-0.6770,-0.7936,-1.6258,-0.2530,0.2184,-0.1092,
13.125532,0.1644,0.7310,0.3704,-0.6770,-0.7936,-1.6258,-0.3483,0.2567,-0.0309,
13.140151,0.1644,0.7310,0.3704,-0.6770,-0.7936,-1.6258,-0.3585,0.3249,-0.0415,
13.161035,0.2768,0.7698,0.4437,-0.6770,-0.7936,-1.6258,-0.3585,0.3249,-0.0415,
13.163417,0.2768,0.7698,0.4437,0.4976,-0.3410,-1.0455,-0.3585,0.3249,-0.0415,
13.165182,0.2768,0.7698,0.4437,0.4976,-0.3410,-1.0455,-0.3143,0.4096,-0.0538,
13.180105,0.2768,0.7698,0.4437,0.4976,-0.3410,-1.0455,-0.2807,0.5161,-0.1459,
13.199765,0.2243,0.8062,0.5480,0.4976,-0.3410,-1.0455,-0.2807,0.5161,-0.1459,
13.201965,0.2243,0.8062,0.5480,0.1130,0.0695,-0.1519,-0.2807,0.5161,-0.1459,
13.203554,0.2243,0.8062,0.5480,0.1130,0.0695,-0.1519,-0.1406,0.5396,-0.2402,
13.219196,0.2243,0.8062,0.5480,0.1130,0.0695,-0.1519,0.0687,0.4916,-0.2908,
13.240247,0.1488,0.8539,0.6127,0.1130,0.0695,-0.1519,0.0687,0.4916,-0.2908,
13.242821,0.1488,0.8539,0.6127,-0.4297,0.5176,0.4386,0.0687,0.4916,-0.2908,
13.244502,0.1488,0.8539,0.6127,-0.4297,0.5176,0.4386,0.2067,0.3824,-0.3201,
13.262530,0.1488,0.8539,0.6127,-0.4297,0.5176,0.4386,0.2700,0.2977,-0.3382,
13.280039,0.1906,0.7725,0.6179,-0.4297,0.5176,0.4386,0.2700,0.2977,-0.3382,
13.282187,0.1906,0.7725,0.6179,0.1546,-0.3535,0.5370,0.2700,0.2977,-0.3382,
13.283814,0.1906,0.7725,0.6179,0.1546,-0.3535,0.5370,0.3830,0.2754,-0.3798,
13.299887,0.1906,0.7725,0.6179,0.1546,-0.3535,0.5370,0.5609,0.3159,-0.4288,
13.319535,0.1796,0.8243,0.6047,0.1546,-0.3535,0.5370,0.5609,0.3159,-0.4288,
13.322128,0.1796,0.8243,0.6047,0.2299,0.0339,0.5291,0.5609,0.3159,-0.4288,
13.323613,0.1796,0.8243,0.6047,0.2299,0.0339,0.5291,0.7393,0.1736,-0.4330,
13.339718,0.1796,0.8243,0.6047,0.2299,0.0339,0.5291,0.7878,0.1454,-0.3814,
13.359160,0.1378,0.8932,0.5363,0.2299,0.0339,0.5291,0.7878,0.1454,-0.3814,
13.361564,0.1378,0.8932,0.5363,-0.0198,0.5298,0.0911,0.7878,0.1454,-0.3814,
13.363177,0.1378,0.8932,0.5363,-0.0198,0.5298,0.0911,0.7366,0.2647,-0.3281,
13.379598,0.1378,0.8932,0.5363,-0.0198,0.5298,0.0911,0.6589,0.2967,-0.2653,
13.400164,0.1165,0.8973,0.5189,-0.0198,0.5298,0.0911,0.6589,0.2967,-0.2653,
13.402559,0.1165,0.8973,0.5189,-0.2271,0.5715,-0.0807,0.6589,0.2967,-0.2653,
13.404296,0.1165,0.8973,0.5189,-0.2271,0.5715,-0.0807,0.6008,0.3574,-0.2035,
13.419356,0.1165,0.8973,0.5189,-0.2271,0.5715,-0.0807,0.5481,0.4250,-0.1598,
13.440268,0.1204,0.9565,0.5421,-0.2271,0.5715,-0.0807,0.5481,0.4250,-0.1598,
13.442629,0.1204,0.9565,0.5421,-0.0497,1.0251,0.3161,0.5481,0.4250,-0.1598,
13.444244,0.1204,0.9565,0.5421,-0.0497,1.0251,0.3161,0.5097,0.3920,-0.1630,
13.462035,0.1204,0.9565,0.5421,-0.0497,1.0251,0.3161,0.4485,0.3894,-0.1103,
13.479889,0.0916,0.9557,0.5751,-0.0497,1.0251,0.3161,0.4485,0.3894,-0.1103,
13.481925,0.0916,0.9557,0.5751,-0.1996,0.9314,0.7552,0.4485,0.3894,-0.1103,
13.483554,0.0916,0.9557,0.5751,-0.1996,0.9314,0.7552,0.3840,0.4511,-0.0373,
13.499764,0.0916,0.9557,0.5751,-0.1996,0.9314,0.7552,0.3467,0.6221,0.0666,
13.519665,0.0977,0.8355,0.4906,-0.1996,0.9314,0.7552,0.3467,0.6221,0.0666,
13.521596,0.0977,0.8355,0.4906,-0.0432,-0.3056,0.0093,0.3467,0.6221,0.0666,
13.523258,0.0977,0.8355,0.4906,-0.0432,-0.3056,0.0093,0.3382,0.6770,0.1422,
13.539693,0.0977,0.8355,0.4906,-0.0432,-0.3056,0.0093,0.3015,0.6471,0.1214,
13.559284,0.0792,0.8123,0.3821,-0.0432,-0.3056,0.0093,0.3015,0.6471,0.1214,
13.562031,0.0792,0.8123,0.3821,-0.1445,-0.5889,-0.9700,0.3015,0.6471,0.1214,
13.564101,0.0792,0.8123,0.3821,-0.1445,-0.5889,-0.9700,0.2136,0.5470,0.1507,
13.579263,0.0792,0.8123,0.3821,-0.1445,-0.5889,-0.9700,0.1726,0.3744,0.3047,
13.599844,0.1769,0.9618,0.4373,-0.1445,-0.5889,-0.9700,0.1726,0.3744,0.3047,
13.602321,0.1769,0.9618,0.4373,0.8100,0.8444,-0.3700,0.1726,0.3744,0.3047,
13.604018,0.1769,0.9618,0.4373,0.8100,0.8444,-0.3700,0.1507,0.1656,0.4149,
13.619906,0.1769,0.9618,0.4373,0.8100,0.8444,-0.3700,0.1332,-0.0293,0.4149,
13.641108,0.1029,0.8131,0.4659,0.8100,0.8444,-0.3700,0.1332,-0.0293,0.4149,
13.643357,0.1029,0.8131,0.4659,-0.0468,-0.6237,-0.0432,0.1332,-0.0293,0.4149,
13.645168,0.1029,0.8131,0.4659,-0.0468,-0.6237,-0.0432,0.1214,-0.2519,0.4229,
13.661934,0.1029,0.8131,0.4659,-0.0468,-0.6237,-0.0432,0.0969,-0.4192,0.3936,
13.679617,-0.0518,0.9096,0.4507,-0.0468,-0.6237,-0.0432,0.0969,-0.4192,0.3936,
13.682056,-0.0518,0.9096,0.4507,-1.7337,0.3154,-0.1366,0.0969,-0.4192,0.3936,
13.683802,-0.0518,0.9096,0.4507,-1.7337,0.3154,-0.1366,-0.0123,-0.5923,0.4085,
13.699910,-0.0518,0.9096,0.4507,-1.7337,0.3154,-0.1366,-0.0996,-0.7372,0.5012,
13.718728,0.0782,0.9340,0.5196,-1.7337,0.3154,-0.1366,-0.0996,-0.7372,0.5012,
13.721806,0.0782,0.9340,0.5196,-0.7092,0.5864,0.5529,-0.0996,-0.7372,0.5012,
13.723899,0.0782,0.9340,0.5196,-0.7092,0.5864,0.5529,-0.1108,-0.7739,0.5167,
13.739038,0.0782,0.9340,0.5196,-0.7092,0.5864,0.5529,-0.0527,-0.7739,0.5657,
13.759449,0.2306,0.9572,0.4915,-0.7092,0.5864,0.5529,-0.0527,-0.7739,0.5657,
13.762878,0.2306,0.9572,0.4915,0.4702,0.8621,0.3000,-0.0527,-0.7739,0.5657,
13.765045,0.2306,0.9572,0.4915,0.4702,0.8621,0.3000,-0.0447,-0.9444,0.5459,
13.781531,0.2306,0.9572,0.4915,0.4702,0.8621,0.3000,-0.2131,-1.0642,0.4586,
13.799534,0.2885,0.9711,0.4686,0.4702,0.8621,0.3000,-0.2131,-1.0642,0.4586,
13.801731,0.2885,0.9711,0.4686,0.6900,1.0597,0.1115,-0.2131,-1.0642,0.4586,
13.803263,0.2885,0.9711,0.4686,0.6900,1.0597,0.1115,-0.3414,-0.8357,0.3803,
13.819374,0.2885,0.9711,0.4686,0.6900,1.0597,0.1115,-0.5028,-0.5673,0.3180,
13.839271,0.3174,0.8135,0.4603,0.6900,1.0597,0.1115,-0.5028,-0.5673,0.3180,
13.841205,0.3174,0.8135,0.4603,0.7291,-0.3775,-0.0474,-0.5028,-0.5673,0.3180,
13.842883,0.3174,0.8135,0.4603,0.7291,-0.3775,-0.0474,-0.6562,-0.5209,0.3238,
13.862354,0.3174,0.8135,0.4603,0.7291,-0.3775,-0.0474,-0.8794,-0.5300,0.2892,
13.878998,0.2245,0.7815,0.4720,0.7291,-0.3775,-0.0474,-0.8794,-0.5300,0.2892,
13.881202,0.2245,0.7815,0.4720,-0.3726,-0.5222,-0.1302,-0.8794,-0.5300,0.2892,
13.883037,0.2245,0.7815,0.4720,-0.3726,-0.5222,-0.1302,-0.9518,-0.2828,0.2695,
13.898916,0.2245,0.7815,0.4720,-0.3726,-0.5222,-0.1302,-0.8000,-0.2754,0.3143,
13.919307,0.3200,0.7930,0.5714,-0.3726,-0.5222,-0.1302,-0.8000,-0.2754,0.3143,
13.921833,0.3200,0.7930,0.5714,0.4152,-0.2081,0.5909,-0.8000,-0.2754,0.3143,
13.923393,0.3200,0.7930,0.5714,0.4152,-0.2081,0.5909,-0.6567,-0.5438,0.2653,
13.939270,0.3200,0.7930,0.5714,0.4152,-0.2081,0.5909,-0.6184,-0.4117,0.0959,
13.958890,0.3408,0.7464,0.5795,0.4152,-0.2081,0.5909,-0.6184,-0.4117,0.0959,
13.962140,0.3408,0.7464,0.5795,0.4629,-0.5130,0.5190,-0.6184,-0.4117,0.0959,
13.963443,0.3408,0.7464,0.5795,0.4629,-0.5130,0.5190,-0.4692,-0.1768,-0.0559,
13.979029,0.3408,0.7464,0.5795,0.4629,-0.5130,0.5190,-0.2280,-0.1800,-0.1843,
13.999523,0.3073,0.7310,0.5350,0.4629,-0.5130,0.5190,-0.2280,-0.1800,-0.1843,
14.002114,0.3073,0.7310,0.5350,0.1311,-0.6016,-0.0079,-0.2280,-0.1800,-0.1843,
14.003921,0.3073,0.7310,0.5350,0.1311,-0.6016,-0.0079,-0.1305,-0.0176,-0.2668,
14.018740,0.3073,0.7310,0.5350,0.1311,-0.6016,-0.0079,-0.0304,0.2929,-0.2349,
14.039254,0.3269,0.6904,0.4544,0.1311,-0.6016,-0.0079,-0.0304,0.2929,-0.2349,
14.041634,0.3269,0.6904,0.4544,0.4212,-1.0082,-0.8375,-0.0304,0.2929,-0.2349,
14.043404,0.3269,0.6904,0.4544,0.4212,-1.0082,-0.8375,0.1177,0.3148,-0.3057,
14.060230,0.3269,0.6904,0.4544,0.4212,-1.0082,-0.8375,0.1854,0.2839,-0.3734,
14.078640,0.0887,0.7505,0.3186,0.4212,-1.0082,-0.8375,0.1854,0.2839,-0.3734,
14.081031,0.0887,0.7505,0.3186,-1.7442,-0.4877,-2.1537,0.1854,0.2839,-0.3734,
14.082991,0.0887,0.7505,0.3186,-1.7442,-0.4877,-2.1537,0.0458,0.4213,-0.2876,
14.098657,0.0887,0.7505,0.3186,-1.7442,-0.4877,-2.1537,-0.1411,0.4874,-0.1976,
14.118590,0.1273,0.7038,0.3071,-1.7442,-0.4877,-2.1537,-0.1411,0.4874,-0.1976,
14.121957,0.1273,0.7038,0.3071,-1.1936,-0.9594,-2.3269,-0.1411,0.4874,-0.1976,
14.124082,0.1273,0.7038,0.3071,-1.1936,-0.9594,-2.3269,-0.2759,0.5779,-0.1204,
14.138856,0.1273,0.7038,0.3071,-1.1936,-0.9594,-2.3269,-0.3547,0.5822,-0.0629,
14.159287,0.2326,0.6833,0.3750,-1.1936,-0.9594,-2.3269,-0.3547,0.5822,-0.0629,
14.161509,0.2326,0.6833,0.3750,-0.0078,-1.1011,-1.8146,-0.3547,0.5822,-0.0629,
14.163409,0.2326,0.6833,0.3750,-0.0078,-1.1011,-1.8146,-0.4256,0.5800,-0.0666,
14.178344,0.2326,0.6833,0.3750,-0.0078,-1.1011,-1.8146,-0.4314,0.6083,-0.0985,
14.198066,0.2509,0.8121,0.4676,-0.0078,-1.1011,-1.8146,-0.4314,0.6083,-0.0985,
14.200309,0.2509,0.8121,0.4676,0.3299,0.2490,-1.0923,-0.4314,0.6083,-0.0985,
14.202101,0.2509,0.8121,0.4676,0.3299,0.2490,-1.0923,-0.3356,0.6163,-0.1465,
14.218122,0.2509,0.8121,0.4676,0.3299,0.2490,-1.0923,-0.2296,0.5289,-0.2242,
14.238469,0.1659,0.7806,0.6452,0.3299,0.2490,-1.0923,-0.2296,0.5289,-0.2242,
14.241765,0.1659,0.7806,0.6452,-0.4186,-0.2574,0.8942,-0.2296,0.5289,-0.2242,
14.243660,0.1659,0.7806,0.6452,-0.4186,-0.2574,0.8942,-0.1044,0.4250,-0.3148,
14.259302,0.1659,0.7806,0.6452,-0.4186,-0.2574,0.8942,0.1001,0.3526,-0.3441,
14.278265,0.1754,0.8297,0.6376,-0.4186,-0.2574,0.8942,0.1001,0.3526,-0.3441,
14.280617,0.1754,0.8297,0.6376,-0.1366,0.2005,0.7863,0.1001,0.3526,-0.3441,
14.282241,0.1754,0.8297,0.6376,-0.1366,0.2005,0.7863,0.2823,0.3691,-0.3286,
14.298377,0.1754,0.8297,0.6376,-0.1366,0.2005,0.7863,0.4250,0.4629,-0.3627,
14.317907,0.2529,0.8976,0.6955,-0.1366,0.2005,0.7863,0.4250,0.4629,-0.3627,
14.320968,0.2529,0.8976,0.6955,0.8178,0.7697,1.4323,0.4250,0.4629,-0.3627,
14.322589,0.2529,0.8976,0.6955,0.8178,0.7697,1.4323,0.6173,0.3467,-0.4538,
14.337490,0.2529,0.8976,0.6955,0.8178,0.7697,1.4323,0.7883,0.2445,-0.5225,
14.357626,0.1314,0.8582,0.5580,0.8178,0.7697,1.4323,0.7883,0.2445,-0.5225,
14.359674,0.1314,0.8582,0.5580,-0.1564,0.2117,0.2858,0.7883,0.2445,-0.5225,
14.361383,0.1314,0.8582,0.5580,-0.1564,0.2117,0.2858,0.8298,0.2242,-0.4346,
14.378651,0.1314,0.8582,0.5580,-0.1564,0.2117,0.2858,0.7159,0.2099,-0.2993,
14.398368,0.1522,0.8201,0.4588,-0.1564,0.2117,0.2858,0.7159,0.2099,-0.2993,
14.401180,0.1522,0.8201,0.4588,0.1989,-0.3294,-0.4531,0.7159,0.2099,-0.2993,
14.403125,0.1522,0.8201,0.4588,0.1989,-0.3294,-0.4531,0.5955,0.2663,-0.2242,
14.418233,0.1522,0.8201,0.4588,0.1989,-0.3294,-0.4531,0.4751,0.3995,-0.2402,
14.438539,0.0884,0.9022,0.4674,0.1989,-0.3294,-0.4531,0.4751,0.3995,-0.2402,
14.441818,0.0884,0.9022,0.4674,-0.2867,0.3618,-0.2084,0.4751,0.3995,-0.2402,
14.443897,0.0884,0.9022,0.4674,-0.2867,0.3618,-0.2084,0.3766,0.4357,-0.2088,
14.463207,0.0884,0.9022,0.4674,-0.2867,0.3618,-0.2084,0.3068,0.4405,-0.2099,
14.478119,0.0945,1.0058,0.5590,-0.2867,0.3618,-0.2084,0.3068,0.4405,-0.2099,
14.480178,0.0945,1.0058,0.5590,-0.0732,1.3039,0.7858,0.3068,0.4405,-0.2099,
14.481875,0.0945,1.0058,0.5590,-0.0732,1.3039,0.7858,0.2599,0.5481,-0.2525,
14.497793,0.0945,1.0058,0.5590,-0.0732,1.3039,0.7858,0.2120,0.5992,-0.2013,
14.517924,0.0738,0.9152,0.5609,-0.0732,1.3039,0.7858,0.2120,0.5992,-0.2013,
14.520288,0.0738,0.9152,0.5609,-0.1383,0.4673,0.6851,0.2120,0.5992,-0.2013,
14.522186,0.0738,0.9152,0.5609,-0.1383,0.4673,0.6851,0.2301,0.5039,-0.1156,
14.537552,0.0738,0.9152,0.5609,-0.1383,0.4673,0.6851,0.2008,0.4432,-0.0016,
14.557506,0.0823,0.8509,0.4639,-0.1383,0.4673,0.6851,0.2008,0.4432,-0.0016,
14.560447,0.0823,0.8509,0.4639,-0.0256,-0.1629,-0.2696,0.2008,0.4432,-0.0016,
14.562760,0.0823,0.8509,0.4639,-0.0256,-0.1629,-0.2696,0.1614,0.3286,0.1529,
14.577704,0.0823,0.8509,0.4639,-0.0256,-0.1629,-0.2696,0.1321,0.1731,0.2695,
14.597952,0.1520,0.8431,0.4332,-0.0256,-0.1629,-0.2696,0.1321,0.1731,0.2695,
14.599946,0.1520,0.8431,0.4332,0.6223,-0.2614,-0.5263,0.1321,0.1731,0.2695,
14.601476,0.1520,0.8431,0.4332,0.6223,-0.2614,-0.5263,0.1342,-0.0197,0.3547,
14.617242,0.1520,0.8431,0.4332,0.6223,-0.2614,-0.5263,0.1140,-0.1917,0.3547,
14.638044,0.0257,0.7764,0.4273,0.6223,-0.2614,-0.5263,0.1140,-0.1917,0.3547,
14.641263,0.0257,0.7764,0.4273,-0.7540,-0.9257,-0.5371,0.1140,-0.1917,0.3547,
14.643255,0.0257,0.7764,0.4273,-0.7540,-0.9257,-0.5371,0.1246,-0.2951,0.3372,
14.657762,0.0257,0.7764,0.4273,-0.7540,-0.9257,-0.5371,0.1246,-0.3446,0.4101,
14.677312,0.0086,0.9501,0.4297,-0.7540,-0.9257,-0.5371,0.1246,-0.3446,0.4101,
14.679520,0.0086,0.9501,0.4297,-1.0840,0.7614,-0.4481,0.1246,-0.3446,0.4101,
14.681450,0.0086,0.9501,0.4297,-1.0840,0.7614,-0.4481,0.0218,-0.4517,0.5007,
14.698115,0.0086,0.9501,0.4297,-1.0840,0.7614,-0.4481,-0.1241,-0.7499,0.5268,
14.717149,0.0950,0.9755,0.5702,-1.0840,0.7614,-0.4481,-0.1241,-0.7499,0.5268,
14.719335,0.0950,0.9755,0.5702,-0.5067,1.0442,0.9424,-0.1241,-0.7499,0.5268,
14.721053,0.0950,0.9755,0.5702,-0.5067,1.0442,0.9424,-0.1539,-0.9545,0.5481,
14.737601,0.0950,0.9755,0.5702,-0.5067,1.0442,0.9424,-0.1561,-1.0855,0.5832,
14.757665,0.2446,0.9012,0.5597,-0.5067,1.0442,0.9424,-0.1561,-1.0855,0.5832,
14.759812,0.2446,0.9012,0.5597,0.5854,0.3820,0.8500,-0.1561,-1.0855,0.5832,
14.761422,0.2446,0.9012,0.5597,0.5854,0.3820,0.8500,-0.1257,-1.1377,0.6237,
14.777553,0.2446,0.9012,0.5597,0.5854,0.3820,0.8500,-0.0101,-1.0306,0.5534,
14.797080,0.2631,0.9039,0.3853,0.5854,0.3820,0.8500,-0.0101,-1.0306,0.5534,
14.799455,0.2631,0.9039,0.3853,0.3788,0.4634,-0.7908,-0.0101,-1.0306,0.5534,
14.801283,0.2631,0.9039,0.3853,0.3788,0.4634,-0.7908,-0.2253,-0.9705,0.3920,
14.817129,0.2631,0.9039,0.3853,0.3788,0.4634,-0.7908,-0.4884,-0.7457,0.3590,
14.836740,0.3301,0.8446,0.4041,0.3788,0.4634,-0.7908,-0.4884,-0.7457,0.3590,
14.837667,0.3301,0.8446,0.4041,0.7541,-0.0252,-0.6329,-0.4884,-0.7457,0.3590,
14.838288,0.3301,0.8446,0.4041,0.7541,-0.0252,-0.6329,-0.7159,-0.5204,0.3414,
14.856645,0.3301,0.8446,0.4041,0.7541,-0.0252,-0.6329,-0.8804,-0.3228,0.1933,
14.877344,0.2846,0.8497,0.4977,0.7541,-0.0252,-0.6329,-0.8804,-0.3228,0.1933,
14.879651,0.2846,0.8497,0.4977,0.1448,0.1947,0.0768,-0.8804,-0.3228,0.1933,
14.881236,0.2846,0.8497,0.4977,0.1448,0.1947,0.0768,-1.0019,-0.3457,0.1561,
14.896658,0.2846,0.8497,0.4977,0.1448,0.1947,0.0768,-0.9204,-0.4218,0.0740,
14.917035,0.3188,0.8592,0.6186,0.1448,0.1947,0.0768,-0.9204,-0.4218,0.0740,
14.919084,0.3188,0.8592,0.6186,0.3680,0.4887,0.9965,-0.9204,-0.4218,0.0740,
14.920597,0.3188,0.8592,0.6186,0.3680,0.4887,0.9965,-0.7558,-0.5614,-0.0144,
14.936770,0.3188,0.8592,0.6186,0.3680,0.4887,0.9965,-0.8075,-0.5332,-0.1364,
14.957189,0.4129,0.6970,0.6723,0.3680,0.4887,0.9965,-0.8075,-0.5332,-0.1364,
14.959210,0.4129,0.6970,0.6723,1.1926,-0.9412,1.3328,-0.8075,-0.5332,-0.1364,
14.960980,0.4129,0.6970,0.6723,1.1926,-0.9412,1.3328,-0.6519,-0.2125,-0.2764,
14.977462,0.4129,0.6970,0.6723,1.1926,-0.9412,1.3328,-0.3696,-0.1949,-0.4458,
14.997518,0.3320,0.6518,0.5350,1.1926,-0.9412,1.3328,-0.3696,-0.1949,-0.4458,
15.000280,0.3320,0.6518,0.5350,0.4483,-1.3026,-0.1565,-0.3696,-0.1949,-0.4458,
15.002232,0.3320,0.6518,0.5350,0.4483,-1.3026,-0.1565,-0.1949,-0.1230,-0.5561,
15.017169,0.3320,0.6518,0.5350,0.4483,-1.3026,-0.1565,-0.0698,-0.0895,-0.5502,
15.037173,0.2455,0.6210,0.3926,0.4483,-1.3026,-0.1565,-0.0698,-0.0895,-0.5502,
15.039537,0.2455,0.6210,0.3926,-0.2522,-1.6360,-1.5814,-0.0698,-0.0895,-0.5502,
15.041739,0.2455,0.6210,0.3926,-0.2522,-1.6360,-1.5814,-0.0288,-0.0586,-0.5033,
15.056646,0.2455,0.6210,0.3926,-0.2522,-1.6360,-1.5814,0.0320,-0.0107,-0.4916,
15.077173,0.0007,0.6689,0.2871,-0.2522,-1.6360,-1.5814,0.0320,-0.0107,-0.4916,
15.078937,0.0007,0.6689,0.2871,-2.5048,-1.2185,-2.6116,0.0320,-0.0107,-0.4916,
15.080263,0.0007,0.6689,0.2871,-2.5048,-1.2185,-2.6116,-0.0458,0.0953,-0.4485,
15.096498,0.0007,0.6689,0.2871,-2.5048,-1.2185,-2.6116,-0.1720,0.1257,-0.2903,
15.116447,0.0435,0.7512,0.2702,-2.5048,-1.2185,-2.6116,-0.1720,0.1257,-0.2903,
15.118843,0.0435,0.7512,0.2702,-1.9471,-0.4240,-2.8214,-0.1720,0.1257,-0.2903,
15.120602,0.0435,0.7512,0.2702,-1.9471,-0.4240,-2.8214,-0.3712,0.1273,-0.1742,
15.136575,0.0435,0.7512,0.2702,-1.9471,-0.4240,-2.8214,-0.5715,0.2152,-0.0975,
15.157723,0.1691,0.7859,0.4251,-1.9471,-0.4240,-2.8214,-0.5715,0.2152,-0.0975,
15.160624,0.1691,0.7859,0.4251,-0.6364,0.0078,-1.4652,-0.5715,0.2152,-0.0975,
15.162548,0.1691,0.7859,0.4251,-0.6364,0.0078,-1.4652,-0.6882,0.2961,-0.0495,
15.176824,0.1691,0.7859,0.4251,-0.6364,0.0078,-1.4652,-0.6988,0.3318,-0.0421,
15.197012,0.3066,0.7380,0.5275,-0.6364,0.0078,-1.4652,-0.6988,0.3318,-0.0421,
15.199225,0.3066,0.7380,0.5275,0.7976,-0.3064,-0.7011,-0.6988,0.3318,-0.0421,
15.200973,0.3066,0.7380,0.5275,0.7976,-0.3064,-0.7011,-0.6344,0.3238,-0.1001,
15.217093,0.3066,0.7380,0.5275,0.7976,-0.3064,-0.7011,-0.5396,0.3457,-0.2162,
15.236835,0.2274,0.7859,0.6897,0.7976,-0.3064,-0.7011,-0.5396,0.3457,-0.2162,
15.239850,0.2274,0.7859,0.6897,0.0086,-0.0396,1.1637,-0.5396,0.3457,-0.2162,
15.241755,0.2274,0.7859,0.6897,0.0086,-0.0396,1.1637,-0.3931,0.3627,-0.3095,
15.256235,0.2274,0.7859,0.6897,0.0086,-0.0396,1.1637,-0.1273,0.2354,-0.3595,
15.276480,0.1842,0.7510,0.7727,0.0086,-0.0396,1.1637,-0.1273,0.2354,-0.3595,
15.279359,0.1842,0.7510,0.7727,-0.2418,-0.3385,1.8531,-0.1273,0.2354,-0.3595,
15.281235,0.1842,0.7510,0.7727,-0.2418,-0.3385,1.8531,0.2136,0.2285,-0.4171,
15.296549,0.1842,0.7510,0.7727,-0.2418,-0.3385,1.8531,0.5832,0.3127,-0.4895,
15.316139,0.1043,0.8177,0.6867,-0.2418,-0.3385,1.8531,0.5832,0.3127,-0.4895,
15.319111,0.1043,0.8177,0.6867,-0.8152,0.1998,1.0962,0.5832,0.3127,-0.4895,
15.320827,0.1043,0.8177,0.6867,-0.8152,0.1998,1.0962,0.8842,0.3691,-0.5348,
15.336345,0.1043,0.8177,0.6867,-0.8152,0.1998,1.0962,0.9795,0.4485,-0.4762,
15.356800,0.0843,0.8734,0.6020,-0.8152,0.1998,1.0962,0.9795,0.4485,-0.4762,
15.358951,0.0843,0.8734,0.6020,-0.7534,0.5134,0.5198,0.9795,0.4485,-0.4762,
15.360669,0.0843,0.8734,0.6020,-0.7534,0.5134,0.5198,0.9060,0.4453,-0.3995,
15.377331,0.0843,0.8734,0.6020,-0.7534,0.5134,0.5198,0.8426,0.3159,-0.3100,
15.396778,0.1036,0.8597,0.5460,-0.7534,0.5134,0.5198,0.8426,0.3159,-0.3100,
15.398876,0.1036,0.8597,0.5460,-0.3620,0.1827,0.2193,0.8426,0.3159,-0.3100,
15.400501,0.1036,0.8597,0.5460,-0.3620,0.1827,0.2193,0.7499,0.2099,-0.1848,
15.416099,0.1036,0.8597,0.5460,-0.3620,0.1827,0.2193,0.6120,0.1784,-0.0506,
15.436220,0.1393,0.8604,0.5343,-0.3620,0.1827,0.2193,0.6120,0.1784,-0.0506,
15.439306,0.1393,0.8604,0.5343,0.0680,0.0554,0.3051,0.6120,0.1784,-0.0506,
15.440932,0.1393,0.8604,0.5343,0.0680,0.0554,0.3051,0.4533,0.2551,-0.0378,
15.456028,0.1393,0.8604,0.5343,0.0680,0.0554,0.3051,0.3659,0.4474,-0.0991,
15.476771,0.0635,0.9281,0.6149,0.0680,0.0554,0.3051,0.3659,0.4474,-0.0991,
15.478852,0.0635,0.9281,0.6149,-0.5790,0.6400,1.2065,0.3659,0.4474,-0.0991,
15.480564,0.0635,0.9281,0.6149,-0.5790,0.6400,1.2065,0.4091,0.5507,-0.0415,
15.496285,0.0635,0.9281,0.6149,-0.5790,0.6400,1.2065,0.4256,0.5007,0.0772,
15.516812,0.0843,0.8898,0.5121,-0.5790,0.6400,1.2065,0.4256,0.5007,0.0772,
15.518989,0.0843,0.8898,0.5121,-0.2769,0.1905,0.3057,0.4256,0.5007,0.0772,
15.520674,0.0843,0.8898,0.5121,-0.2769,0.1905,0.3057,0.3654,0.4682,0.1039,
15.536615,0.0843,0.8898,0.5121,-0.2769,0.1905,0.3057,0.2780,0.4586,0.1023,
15.555927,0.0403,0.8609,0.4674,-0.2769,0.1905,0.3057,0.2780,0.4586,0.1023,
15.559071,0.0403,0.8609,0.4674,-0.2823,0.0192,-0.4048,0.2780,0.4586,0.1023,
15.560717,0.0403,0.8609,0.4674,-0.2823,0.0192,-0.4048,0.2051,0.4330,0.1987,
15.578467,0.0403,0.8609,0.4674,-0.2823,0.0192,-0.4048,0.1603,0.2983,0.3659,
