
time,gFx,gFy,gFz,ax,ay,az,wx,wy,wz,
0.028609,0.1940,0.2599,0.9181,0.0000,0.0000,0.0000,0.0000,0.0000,0.0000,
0.029858,0.1940,0.2599,0.9181,0.0000,0.0000,0.0000,0.2184,0.9971,-0.3015,
0.048516,0.1940,0.2599,0.9181,0.0000,0.0000,0.0000,0.2184,0.9971,-0.3015,
0.068402,0.1033,0.1888,0.8399,0.0000,0.0000,0.0000,0.2184,0.9971,-0.3015,
0.070223,0.1033,0.1888,0.8399,-0.1560,-0.2852,-1.2683,0.2184,0.9971,-0.3015,
0.072141,0.1033,0.1888,0.8399,-0.1560,-0.2852,-1.2683,0.2184,0.9971,-0.3015,
0.088343,0.1033,0.1888,0.8399,-0.1560,-0.2852,-1.2683,0.2184,0.9971,-0.3015,
0.108903,0.0980,0.1854,1.0192,-0.1560,-0.2852,-1.2683,0.2184,0.9971,-0.3015,
0.112629,0.0980,0.1854,1.0192,-0.0924,-0.1349,0.4360,0.2184,0.9971,-0.3015,
0.114202,0.0980,0.1854,1.0192,-0.0924,-0.1349,0.4360,-1.1489,0.4123,-0.1087,
0.127990,0.0980,0.1854,1.0192,-0.0924,-0.1349,0.4360,-0.9630,0.6093,-0.0660,
0.148853,0.1070,0.1893,1.2125,-0.0924,-0.1349,0.4360,-0.9630,0.6093,-0.0660,
0.150962,0.1070,0.1893,1.2125,0.0954,0.1235,2.2771,-0.9630,0.6093,-0.0660,
0.152576,0.1070,0.1893,1.2125,0.0954,0.1235,2.2771,-0.7212,0.0549,-0.0724,
0.168269,0.1070,0.1893,1.2125,0.0954,0.1235,2.2771,-0.3718,-0.7808,-0.2599,
0.188759,0.1847,-0.0535,1.2719,0.0954,0.1235,2.2771,-0.3718,-0.7808,-0.2599,
0.191206,0.1847,-0.0535,1.2719,0.6328,-1.2420,2.7550,-0.3718,-0.7808,-0.2599,
0.192881,0.1847,-0.0535,1.2719,0.6328,-1.2420,2.7550,0.0756,-1.1681,-0.4799,
0.208406,0.1847,-0.0535,1.2719,0.6328,-1.2420,2.7550,0.2647,-0.6386,-0.3585,
0.227459,0.1114,0.0440,1.0434,0.6328,-1.2420,2.7550,0.2647,-0.6386,-0.3585,
0.229792,0.1114,0.0440,1.0434,-0.0299,-0.1619,0.5014,0.2647,-0.6386,-0.3585,
0.231929,0.1114,0.0440,1.0434,-0.0299,-0.1619,0.5014,0.4330,0.1081,0.0256,
0.248113,0.1114,0.0440,1.0434,-0.0299,-0.1619,0.5014,0.5710,0.5870,0.2551,
0.267493,0.1864,0.0757,1.0153,-0.0299,-0.1619,0.5014,0.5710,0.5870,0.2551,
0.269561,0.1864,0.0757,1.0153,0.4384,0.0975,0.2639,0.5710,0.5870,0.2551,
0.270719,0.1864,0.0757,1.0153,0.4384,0.0975,0.2639,0.6147,0.3201,0.1992,
0.287931,0.1864,0.0757,1.0153,0.4384,0.0975,0.2639,0.5108,-0.3537,-0.0538,
0.308392,0.1727,0.0889,0.8685,0.4384,0.0975,0.2639,0.5108,-0.3537,-0.0538,
0.311422,0.1727,0.0889,0.8685,0.1061,0.0979,-1.1351,0.5108,-0.3537,-0.0538,
0.313243,0.1727,0.0889,0.8685,0.1061,0.0979,-1.1351,0.2439,-0.6280,-0.2290,
0.328848,0.1727,0.0889,0.8685,0.1061,0.0979,-1.1351,-0.1055,-0.3899,-0.3707,
0.348113,0.1920,0.0476,0.9853,0.1061,0.0979,-1.1351,-0.1055,-0.3899,-0.3707,
0.350082,0.1920,0.0476,0.9853,0.1107,-0.3498,0.0451,-0.1055,-0.3899,-0.3707,
0.351892,0.1920,0.0476,0.9853,0.1107,-0.3498,0.0451,-0.4240,-0.2045,-0.9502,
0.367263,0.1920,0.0476,0.9853,0.1107,-0.3498,0.0451,-0.4336,-1.8967,-1.3950,
0.387282,0.2240,0.1586,0.6428,0.1107,-0.3498,0.0451,-0.4336,-1.8967,-1.3950,
0.389200,0.2240,0.1586,0.6428,0.0581,0.8129,-3.2430,-0.4336,-1.8967,-1.3950,
0.390893,0.2240,0.1586,0.6428,0.0581,0.8129,-3.2430,-0.4613,-2.5380,-1.3231,
0.408821,0.2240,0.1586,0.6428,0.0581,0.8129,-3.2430,-0.3542,-1.1516,-0.7622,
0.427688,0.2262,0.1011,0.8099,0.0581,0.8129,-3.2430,-0.3542,-1.1516,-0.7622,
0.429510,0.2262,0.1011,0.8099,-0.5869,0.3004,-1.4350,-0.3542,-1.1516,-0.7622,
0.431455,0.2262,0.1011,0.8099,-0.5869,0.3004,-1.4350,-0.2450,-0.1603,-0.3222,
0.447314,0.2262,0.1011,0.8099,-0.5869,0.3004,-1.4350,-0.1726,-0.1731,-0.1172,
0.467864,0.2494,0.0660,0.8372,-0.5869,0.3004,-1.4350,-0.1726,-0.1731,-0.1172,
0.471437,0.2494,0.0660,0.8372,-0.4159,0.0089,-1.1536,-0.1726,-0.1731,-0.1172,
0.472971,0.2494,0.0660,0.8372,-0.4159,0.0089,-1.1536,-0.0165,-0.1390,0.1497,
0.487431,0.2494,0.0660,0.8372,-0.4159,0.0089,-1.1536,0.4756,-0.1108,0.3808,
0.508426,0.2675,0.0652,1.0073,-0.4159,0.0089,-1.1536,0.4756,-0.1108,0.3808,
0.510417,0.2675,0.0652,1.0073,-0.2862,-0.0552,0.5315,0.4756,-0.1108,0.3808,
0.512239,0.2675,0.0652,1.0073,-0.2862,-0.0552,0.5315,1.1563,-0.4570,0.4996,
0.527304,0.2675,0.0652,1.0073,-0.2862,-0.0552,0.5315,1.7827,-1.0179,0.6136,
0.548055,0.2739,0.0880,0.9039,-0.2862,-0.0552,0.5315,1.7827,-1.0179,0.6136,
0.550869,0.2739,0.0880,0.9039,-0.5079,-0.3035,-0.3406,1.7827,-1.0179,0.6136,
0.552845,0.2739,0.0880,0.9039,-0.5079,-0.3035,-0.3406,2.0677,-0.7627,0.7931,
0.567363,0.2739,0.0880,0.9039,-0.5079,-0.3035,-0.3406,2.1108,0.2951,1.0759,
0.587900,0.4742,0.0059,0.7424,-0.5079,-0.3035,-0.3406,2.1108,0.2951,1.0759,
0.590077,0.4742,0.0059,0.7424,1.3119,-1.7412,-1.7690,2.1108,0.2951,1.0759,
0.592005,0.4742,0.0059,0.7424,1.3119,-1.7412,-1.7690,1.8727,1.3939,1.0887,
0.607476,0.4742,0.0059,0.7424,1.3119,-1.7412,-1.7690,1.7635,2.0288,1.0658,
0.627472,-0.0850,0.5323,1.0879,1.3119,-1.7412,-1.7690,1.7635,2.0288,1.0658,
0.630972,-0.0850,0.5323,1.0879,-3.5949,2.8850,1.5452,1.7635,2.0288,1.0658,
0.632759,-0.0850,0.5323,1.0879,-3.5949,2.8850,1.5452,1.8861,0.5651,1.4216,
0.647302,-0.0850,0.5323,1.0879,-3.5949,2.8850,1.5452,1.8589,-1.3156,1.5004,
0.667459,0.3872,0.3950,0.7552,-3.5949,2.8850,1.5452,1.8589,-1.3156,1.5004,
0.669297,0.3872,0.3950,0.7552,0.7569,1.0199,-1.4771,1.8589,-1.3156,1.5004,
0.671006,0.3872,0.3950,0.7552,0.7569,1.0199,-1.4771,1.4775,-1.3667,1.0669,
0.686389,0.3872,0.3950,0.7552,0.7569,1.0199,-1.4771,0.8645,-0.6168,0.7649,
0.706819,0.1339,0.4605,0.9547,0.7569,1.0199,-1.4771,0.8645,-0.6168,0.7649,
0.708784,0.1339,0.4605,0.9547,-2.1256,1.3486,0.7346,0.8645,-0.6168,0.7649,
0.710388,0.1339,0.4605,0.9547,-2.1256,1.3486,0.7346,0.2466,-0.5481,0.9358,
0.726726,0.1339,0.4605,0.9547,-2.1256,1.3486,0.7346,-0.1917,-0.4320,1.2085,
0.748404,0.4080,0.3819,0.8939,-2.1256,1.3486,0.7346,-0.1917,-0.4320,1.2085,
0.751039,0.4080,0.3819,0.8939,0.2890,0.7006,0.2070,-0.1917,-0.4320,1.2085,
0.752975,0.4080,0.3819,0.8939,0.2890,0.7006,0.2070,-0.7393,0.1033,0.9353,
0.767521,0.4080,0.3819,0.8939,0.2890,0.7006,0.2070,-0.8826,-0.1252,0.4202,
0.787206,0.4207,0.2780,1.1983,0.2890,0.7006,0.2070,-0.8826,-0.1252,0.4202,
0.789697,0.4207,0.2780,1.1983,0.3315,0.0630,3.0999,-0.8826,-0.1252,0.4202,
0.791087,0.4207,0.2780,1.1983,0.3315,0.0630,3.0999,-0.3739,-0.3079,0.1497,
0.806824,0.4207,0.2780,1.1983,0.3315,0.0630,3.0999,0.2083,0.0575,0.0479,
0.826533,0.4121,0.1964,1.2797,0.3315,0.0630,3.0999,0.2083,0.0575,0.0479,
0.829010,0.4121,0.1964,1.2797,0.1942,-0.6930,3.9075,0.2083,0.0575,0.0479,
0.831003,0.4121,0.1964,1.2797,0.1942,-0.6930,3.9075,0.8352,0.7430,-0.0005,
0.846705,0.4121,0.1964,1.2797,0.1942,-0.6930,3.9075,1.4195,0.6306,0.1369,
0.867616,0.3819,0.2582,0.7217,0.1942,-0.6930,3.9075,1.4195,0.6306,0.1369,
0.870384,0.3819,0.2582,0.7217,0.1282,-0.4585,-1.5400,1.4195,0.6306,0.1369,
0.872541,0.3819,0.2582,0.7217,0.1282,-0.4585,-1.5400,1.3087,0.9161,0.1710,
0.887117,0.3819,0.2582,0.7217,0.1282,-0.4585,-1.5400,0.6525,0.7862,0.3356,
0.906736,0.3034,0.4388,0.8072,0.1282,-0.4585,-1.5400,0.6525,0.7862,0.3356,
0.908791,0.3034,0.4388,0.8072,-0.3802,1.0088,-0.6972,0.6525,0.7862,0.3356,
0.910768,0.3034,0.4388,0.8072,-0.3802,1.0088,-0.6972,0.1960,0.3430,0.4378,
0.926960,0.3034,0.4388,0.8072,-0.3802,1.0088,-0.6972,0.0996,0.1214,0.2823,
0.947052,0.2443,0.4815,0.7867,-0.3802,1.0088,-0.6972,0.0996,0.1214,0.2823,
0.950088,0.2443,0.4815,0.7867,-0.9168,1.4007,-0.9044,0.0996,0.1214,0.2823,
0.951917,0.2443,0.4815,0.7867,-0.9168,1.4007,-0.9044,-0.0373,0.0096,0.0048,
0.967184,0.2443,0.4815,0.7867,-0.9168,1.4007,-0.9044,-0.1784,-0.0932,-0.1103,
0.986825,0.2719,0.3572,0.8925,-0.9168,1.4007,-0.9044,-0.1784,-0.0932,-0.1103,
0.989842,0.2719,0.3572,0.8925,-0.6377,0.1940,0.1244,-0.1784,-0.0932,-0.1103,
0.991853,0.2719,0.3572,0.8925,-0.6377,0.1940,0.1244,-0.1230,0.1848,-0.1997,
1.006484,0.2719,0.3572,0.8925,-0.6377,0.1940,0.1244,0.0336,0.4400,-0.0847,
1.026994,0.3044,0.5160,0.6987,-0.6377,0.1940,0.1244,0.0336,0.4400,-0.0847,
1.030369,0.3044,0.5160,0.6987,-0.1901,1.7201,-1.8110,0.0336,0.4400,-0.0847,
1.032771,0.3044,0.5160,0.6987,-0.1901,1.7201,-1.8110,0.0352,0.6445,-0.0282,
1.047051,0.3044,0.5160,0.6987,-0.1901,1.7201,-1.8110,-0.2280,0.6056,-0.1859,
1.066655,0.2927,0.6924,0.9042,-0.1901,1.7201,-1.8110,-0.2280,0.6056,-0.1859,
1.069055,0.2927,0.6924,0.9042,-0.0709,3.4285,0.1280,-0.2280,0.6056,-0.1859,
1.070748,0.2927,0.6924,0.9042,-0.0709,3.4285,0.1280,-0.3617,0.1001,-0.3132,
1.086337,0.2927,0.6924,0.9042,-0.0709,3.4285,0.1280,-0.3707,-0.4229,-0.3462,
1.106391,0.3134,0.6882,0.9973,-0.0709,3.4285,0.1280,-0.3707,-0.4229,-0.3462,
1.108402,0.3134,0.6882,0.9973,0.1197,3.4773,1.0106,-0.3707,-0.4229,-0.3462,
1.109883,0.3134,0.6882,0.9973,0.1197,3.4773,1.0106,-0.4629,-0.3159,-0.5577,
1.126563,0.3134,0.6882,0.9973,0.1197,3.4773,1.0106,-0.4261,-0.0394,-0.8543,
1.146856,0.0584,0.4441,1.0706,0.1197,3.4773,1.0106,-0.4261,-0.0394,-0.8543,
1.148773,0.0584,0.4441,1.0706,-2.3511,1.1581,1.6926,-0.4261,-0.0394,-0.8543,
1.150438,0.0584,0.4441,1.0706,-2.3511,1.1581,1.6926,-0.3244,0.2525,-1.0248,
1.166548,0.0584,0.4441,1.0706,-2.3511,1.1581,1.6926,-0.2194,0.7468,-0.9449,
1.186462,-0.1341,0.3007,1.1377,-2.3511,1.1581,1.6926,-0.2194,0.7468,-0.9449,
1.188328,-0.1341,0.3007,1.1377,-3.9354,-0.2613,2.2613,-0.2194,0.7468,-0.9449,
1.190011,-0.1341,0.3007,1.1377,-3.9354,-0.2613,2.2613,-0.0985,1.1990,-0.8799,
1.206795,-0.1341,0.3007,1.1377,-3.9354,-0.2613,2.2613,0.0192,1.3177,-0.6999,
1.226131,-0.3711,0.1935,1.1585,-3.9354,-0.2613,2.2613,0.0192,1.3177,-0.6999,
1.229217,-0.3711,0.1935,1.1585,-5.7056,-1.3729,2.3420,0.0192,1.3177,-0.6999,
1.231225,-0.3711,0.1935,1.1585,-5.7056,-1.3729,2.3420,0.2120,1.3348,-0.3302,
1.246723,-0.3711,0.1935,1.1585,-5.7056,-1.3729,2.3420,0.5060,1.8195,0.0852,
1.266388,-0.2555,0.1717,1.0574,-5.7056,-1.3729,2.3420,0.5060,1.8195,0.0852,
1.269642,-0.2555,0.1717,1.0574,-3.9870,-1.7258,1.2873,0.5060,1.8195,0.0852,
1.271875,-0.2555,0.1717,1.0574,-3.9870,-1.7258,1.2873,0.8527,1.9750,0.0581,
1.286143,-0.2555,0.1717,1.0574,-3.9870,-1.7258,1.2873,0.9481,1.7518,0.0224,
1.306361,-0.3779,0.0840,0.8956,-3.9870,-1.7258,1.2873,0.9481,1.7518,0.0224,
1.308621,-0.3779,0.0840,0.8956,-4.4776,-2.8880,-0.2669,0.9481,1.7518,0.0224,
1.310540,-0.3779,0.0840,0.8956,-4.4776,-2.8880,-0.2669,0.7739,2.1167,0.2764,
1.327077,-0.3779,0.0840,0.8956,-4.4776,-2.8880,-0.2669,0.7265,2.6626,0.7127,
1.346088,-0.2482,0.0992,0.8338,-4.4776,-2.8880,-0.2669,0.7265,2.6626,0.7127,
1.348626,-0.2482,0.0992,0.8338,-2.3708,-2.9587,-0.8128,0.7265,2.6626,0.7127,
1.350384,-0.2482,0.0992,0.8338,-2.3708,-2.9587,-0.8128,0.7531,2.4501,0.8405,
1.365875,-0.2482,0.0992,0.8338,-2.3708,-2.9587,-0.8128,0.7169,1.9936,0.9774,
1.386276,-0.2282,0.2201,0.8150,-2.3708,-2.9587,-0.8128,0.7169,1.9936,0.9774,
1.389435,-0.2282,0.2201,0.8150,-1.5131,-2.0296,-0.8514,0.7169,1.9936,0.9774,
1.392016,-0.2282,0.2201,0.8150,-1.5131,-2.0296,-0.8514,0.6354,1.8578,1.0695,
1.406889,-0.2282,0.2201,0.8150,-1.5131,-2.0296,-0.8514,0.5438,2.1396,1.1111,
1.426067,-0.1131,0.2563,0.8343,-1.5131,-2.0296,-0.8514,0.5438,2.1396,1.1111,
1.428794,-0.1131,0.2563,0.8343,0.1268,-1.9194,-0.4847,0.5438,2.1396,1.1111,
1.430476,-0.1131,0.2563,0.8343,0.1268,-1.9194,-0.4847,0.3814,2.0895,0.9955,
1.446678,-0.1131,0.2563,0.8343,0.1268,-1.9194,-0.4847,0.2162,1.9516,0.9886,
1.466488,-0.0970,0.2712,0.8751,0.1268,-1.9194,-0.4847,0.2162,1.9516,0.9886,
1.468670,-0.0970,0.2712,0.8751,0.7974,-1.9272,0.0851,0.2162,1.9516,0.9886,
1.470328,-0.0970,0.2712,0.8751,0.7974,-1.9272,0.0851,0.0554,2.1231,1.0999,
1.486421,-0.0970,0.2712,0.8751,0.7974,-1.9272,0.0851,0.0831,2.0171,1.2581,
1.505815,0.0784,0.4163,0.9345,0.7974,-1.9272,0.0851,0.0831,2.0171,1.2581,
1.507471,0.0784,0.4163,0.9345,2.9604,-0.5963,0.8211,0.0831,2.0171,1.2581,
1.508869,0.0784,0.4163,0.9345,2.9604,-0.5963,0.8211,0.2365,1.6075,1.3476,
1.526274,0.0784,0.4163,0.9345,2.9604,-0.5963,0.8211,0.3292,1.3939,1.2069,
1.545896,0.1898,0.4852,0.8172,2.9604,-0.5963,0.8211,0.3292,1.3939,1.2069,
1.548342,0.1898,0.4852,0.8172,4.2630,-0.1240,-0.1519,0.3292,1.3939,1.2069,
1.550207,0.1898,0.4852,0.8172,4.2630,-0.1240,-0.1519,0.2844,1.5111,1.0567,
1.566762,0.1898,0.4852,0.8172,4.2630,-0.1240,-0.1519,0.2791,1.1963,0.9774,
1.586282,0.1529,0.5458,0.8646,4.2630,-0.1240,-0.1519,0.2791,1.1963,0.9774,
1.588149,0.1529,0.5458,0.8646,4.0635,0.2798,0.4794,0.2791,1.1963,0.9774,
1.589600,0.1529,0.5458,0.8646,4.0635,0.2798,0.4794,0.2791,0.5651,1.0088,
1.605530,0.1529,0.5458,0.8646,4.0635,0.2798,0.4794,0.3100,0.1683,1.0828,
1.625457,0.1415,0.6105,0.9719,4.0635,0.2798,0.4794,0.3100,0.1683,1.0828,
1.627923,0.1415,0.6105,0.9719,3.8103,0.7160,1.6152,0.3100,0.1683,1.0828,
1.629770,0.1415,0.6105,0.9719,3.8103,0.7160,1.6152,0.4011,0.0932,1.2751,
1.645432,0.1415,0.6105,0.9719,3.8103,0.7160,1.6152,0.6168,-0.1859,1.0408,
1.666114,0.1485,0.7300,0.8790,3.8103,0.7160,1.6152,0.6168,-0.1859,1.0408,
1.667966,0.1485,0.7300,0.8790,3.6088,1.6199,0.8099,0.6168,-0.1859,1.0408,
1.669398,0.1485,0.7300,0.8790,3.6088,1.6199,0.8099,0.6056,-0.4879,0.7468,
1.685705,0.1485,0.7300,0.8790,3.6088,1.6199,0.8099,0.2887,-0.4602,0.3968,
1.705783,0.1476,0.6403,0.7498,3.6088,1.6199,0.8099,0.2887,-0.4602,0.3968,
1.707569,0.1476,0.6403,0.7498,3.2761,0.5500,-0.4010,0.2887,-0.4602,0.3968,
1.709201,0.1476,0.6403,0.7498,3.2761,0.5500,-0.4010,-0.1859,-0.3574,0.1667,
1.725803,0.1476,0.6403,0.7498,3.2761,0.5500,-0.4010,-0.5337,-0.1598,0.0463,
1.746059,0.0799,0.5482,0.7754,3.2761,0.5500,-0.4010,-0.5337,-0.1598,0.0463,
1.747988,0.0799,0.5482,0.7754,2.4210,-0.2594,-0.2601,-0.5337,-0.1598,0.0463,
1.749629,0.0799,0.5482,0.7754,2.4210,-0.2594,-0.2601,-0.5214,-0.1385,-0.0559,
1.766751,0.0799,0.5482,0.7754,2.4210,-0.2594,-0.2601,-0.3920,-0.6967,-0.1161,
1.786228,-0.0423,0.6406,0.6269,2.4210,-0.2594,-0.2601,-0.3920,-0.6967,-0.1161,
1.788258,-0.0423,0.6406,0.6269,1.0680,0.7749,-1.8373,-0.3920,-0.6967,-0.1161,
1.789856,-0.0423,0.6406,0.6269,1.0680,0.7749,-1.8373,-0.9737,-1.4690,-0.1710,
1.805279,-0.0423,0.6406,0.6269,1.0680,0.7749,-1.8373,-1.3545,-0.9832,-0.3654,
1.825040,-0.0706,0.5084,0.9376,1.0680,0.7749,-1.8373,-1.3545,-0.9832,-0.3654,
1.827949,-0.0706,0.5084,0.9376,0.4072,-0.1480,0.9039,-1.3545,-0.9832,-0.3654,
1.829468,-0.0706,0.5084,0.9376,0.4072,-0.1480,0.9039,-1.2251,-0.5316,-0.4884,
1.844711,-0.0706,0.5084,0.9376,0.4072,-0.1480,0.9039,-1.0456,-0.4341,-0.3696,
1.865538,0.1647,0.4901,1.0197,0.4072,-0.1480,0.9039,-1.0456,-0.4341,-0.3696,
1.867492,0.1647,0.4901,1.0197,2.6043,0.0658,1.4640,-1.0456,-0.4341,-0.3696,
1.869054,0.1647,0.4901,1.0197,2.6043,0.0658,1.4640,-0.3680,-0.3611,-0.2855,
1.885620,0.1647,0.4901,1.0197,2.6043,0.0658,1.4640,0.2370,-0.3617,-0.7025,
1.905313,0.1283,0.3384,0.9413,2.6043,0.0658,1.4640,0.2370,-0.3617,-0.7025,
1.908139,0.1283,0.3384,0.9413,2.1637,-1.3704,0.6583,0.2370,-0.3617,-0.7025,
1.910067,0.1283,0.3384,0.9413,2.1637,-1.3704,0.6583,0.5204,0.0128,-1.0205,
1.924993,0.1283,0.3384,0.9413,2.1637,-1.3704,0.6583,0.9673,0.2189,-1.3279,
1.945198,-0.1068,0.3794,0.9232,2.1637,-1.3704,0.6583,0.9673,0.2189,-1.3279,
1.947952,-0.1068,0.3794,0.9232,0.0806,-1.1454,0.6069,0.9673,0.2189,-1.3279,
1.949651,-0.1068,0.3794,0.9232,0.0806,-1.1454,0.6069,1.4477,0.3622,-1.5287,
1.965380,-0.1068,0.3794,0.9232,0.0806,-1.1454,0.6069,2.0954,0.6887,-1.2932,
1.985365,-0.0770,0.4471,0.6860,0.0806,-1.1454,0.6069,2.0954,0.6887,-1.2932,
1.988217,-0.0770,0.4471,0.6860,0.8184,-0.9826,-1.3347,2.0954,0.6887,-1.2932,
1.990049,-0.0770,0.4471,0.6860,0.8184,-0.9826,-1.3347,2.5151,0.8916,-1.4269,
2.005341,-0.0770,0.4471,0.6860,0.8184,-0.9826,-1.3347,2.3446,1.0189,-1.7470,
2.025429,-0.4984,0.4068,-0.0858,0.8184,-0.9826,-1.3347,2.3446,1.0189,-1.7470,
2.027657,-0.4984,0.4068,-0.0858,-2.6548,-2.0091,-8.2737,2.3446,1.0189,-1.7470,
2.029602,-0.4984,0.4068,-0.0858,-2.6548,-2.0091,-8.2737,1.4003,1.8109,-1.0717,
2.044804,-0.4984,0.4068,-0.0858,-2.6548,-2.0091,-8.2737,0.3254,1.7087,-1.1537,
2.065163,-0.8109,0.7884,0.6061,-2.6548,-2.0091,-8.2737,0.3254,1.7087,-1.1537,
2.067351,-0.8109,0.7884,0.6061,-4.9341,1.5961,-1.0970,0.3254,1.7087,-1.1537,
2.069243,-0.8109,0.7884,0.6061,-4.9341,1.5961,-1.0970,0.0389,1.2091,-0.9950,
2.084483,-0.8109,0.7884,0.6061,-4.9341,1.5961,-1.0970,-0.0410,1.2469,-0.6669,
2.105506,-0.5470,0.7437,0.4820,-4.9341,1.5961,-1.0970,-0.0410,1.2469,-0.6669,
2.107654,-0.5470,0.7437,0.4820,-1.7640,1.2479,-2.1138,-0.0410,1.2469,-0.6669,
2.109378,-0.5470,0.7437,0.4820,-1.7640,1.2479,-2.1138,-0.2029,1.3092,-0.5475,
2.125583,-0.5470,0.7437,0.4820,-1.7640,1.2479,-2.1138,-0.1390,1.7369,-0.3121,
2.146000,-0.5328,0.6633,0.7119,-1.7640,1.2479,-2.1138,-0.1390,1.7369,-0.3121,
2.148198,-0.5328,0.6633,0.7119,-1.0836,0.5588,0.3627,-0.1390,1.7369,-0.3121,
2.149775,-0.5328,0.6633,0.7119,-1.0836,0.5588,0.3627,0.1486,1.8738,-0.2589,
2.165078,-0.5328,0.6633,0.7119,-1.0836,0.5588,0.3627,0.4900,1.3918,-0.3851,
2.185718,-0.5441,0.6650,0.8145,-1.0836,0.5588,0.3627,0.4900,1.3918,-0.3851,
2.187682,-0.5441,0.6650,0.8145,-0.6963,0.5511,1.7301,0.4900,1.3918,-0.3851,
2.189305,-0.5441,0.6650,0.8145,-0.6963,0.5511,1.7301,1.0690,1.4216,-0.3116,
2.205312,-0.5441,0.6650,0.8145,-0.6963,0.5511,1.7301,1.6868,1.4072,-0.2967,
2.224413,-0.5805,0.6623,0.6552,-0.6963,0.5511,1.7301,1.6868,1.4072,-0.2967,
2.226554,-0.5805,0.6623,0.6552,-0.6422,0.2580,0.7770,1.6868,1.4072,-0.2967,
2.228138,-0.5805,0.6623,0.6552,-0.6422,0.2580,0.7770,2.0959,1.2341,-0.3025,
2.244795,-0.5805,0.6623,0.6552,-0.6422,0.2580,0.7770,2.3031,0.9779,-0.1923,
2.265538,-0.5333,0.6777,0.4600,-0.6422,0.2580,0.7770,2.3031,0.9779,-0.1923,
2.269161,-0.5333,0.6777,0.4600,0.1114,0.0076,-0.3567,2.3031,0.9779,-0.1923,
2.271360,-0.5333,0.6777,0.4600,0.1114,0.0076,-0.3567,2.3889,0.7159,-0.2482,
2.284356,-0.5333,0.6777,0.4600,0.1114,0.0076,-0.3567,2.4719,0.6967,-0.3025,
2.305176,-0.5170,0.6767,0.3357,0.1114,0.0076,-0.3567,2.4719,0.6967,-0.3025,
2.307124,-0.5170,0.6767,0.3357,0.4667,-0.3665,-0.7822,2.4719,0.6967,-0.3025,
2.308817,-0.5170,0.6767,0.3357,0.4667,-0.3665,-0.7822,2.6237,0.8570,-0.2386,
2.324895,-0.5170,0.6767,0.3357,0.4667,-0.3665,-0.7822,2.7484,0.6147,-0.3686,
2.344518,-0.7190,0.7363,0.2353,0.4667,-0.3665,-0.7822,2.7484,0.6147,-0.3686,
2.346917,-0.7190,0.7363,0.2353,-1.3078,-0.0824,-0.8524,2.7484,0.6147,-0.3686,
2.348936,-0.7190,0.7363,0.2353,-1.3078,-0.0824,-0.8524,2.8890,0.3430,-0.3009,
2.365278,-0.7190,0.7363,0.2353,-1.3078,-0.0824,-0.8524,3.1052,0.4272,-0.1630,
2.385058,-0.4967,0.6948,0.1129,-1.3078,-0.0824,-0.8524,3.1052,0.4272,-0.1630,
2.387278,-0.4967,0.6948,0.1129,0.9814,-0.7528,-1.0800,3.1052,0.4272,-0.1630,
2.389017,-0.4967,0.6948,0.1129,0.9814,-0.7528,-1.0800,3.3082,0.2722,-0.3137,
2.404447,-0.4967,0.6948,0.1129,0.9814,-0.7528,-1.0800,3.3993,0.0953,-0.5358,
2.424214,-0.7173,0.6430,-0.0965,0.9814,-0.7528,-1.0800,3.3993,0.0953,-0.5358,
2.426483,-0.7173,0.6430,-0.0965,-1.0303,-1.3749,-2.0656,3.3993,0.0953,-0.5358,
2.428286,-0.7173,0.6430,-0.0965,-1.0303,-1.3749,-2.0656,3.2720,-0.1214,-0.5278,
2.444914,-0.7173,0.6430,-0.0965,-1.0303,-1.3749,-2.0656,3.0467,-0.2232,-0.3244,
2.464907,-0.5250,0.6677,-0.3538,-1.0303,-1.3749,-2.0656,3.0467,-0.2232,-0.3244,
2.467031,-0.5250,0.6677,-0.3538,0.9806,-1.1123,-3.6607,3.0467,-0.2232,-0.3244,
2.468862,-0.5250,0.6677,-0.3538,0.9806,-1.1123,-3.6607,2.5662,-0.3004,-0.4043,
2.485024,-0.5250,0.6677,-0.3538,0.9806,-1.1123,-3.6607,1.7476,-0.4112,-0.5529,
2.505059,-0.7161,0.8162,-0.6061,0.9806,-1.1123,-3.6607,1.7476,-0.4112,-0.5529,
2.507132,-0.7161,0.8162,-0.6061,-0.7416,0.4768,-5.4922,1.7476,-0.4112,-0.5529,
2.509044,-0.7161,0.8162,-0.6061,-0.7416,0.4768,-5.4922,0.8661,-0.3382,-0.4485,
2.524854,-0.7161,0.8162,-0.6061,-0.7416,0.4768,-5.4922,-0.0501,-0.2402,-0.2221,
2.544488,-0.6550,0.8087,-0.4449,-0.7416,0.4768,-5.4922,-0.0501,-0.2402,-0.2221,
2.547071,-0.6550,0.8087,-0.4449,-0.0388,0.4960,-3.8322,-0.0501,-0.2402,-0.2221,
2.548897,-0.6550,0.8087,-0.4449,-0.0388,0.4960,-3.8322,-0.7808,-0.3350,-0.1987,
2.565051,-0.6550,0.8087,-0.4449,-0.0388,0.4960,-3.8322,-1.0924,-0.4048,-0.1294,
2.584326,-0.6823,0.7810,-0.1131,-0.0388,0.4960,-3.8322,-1.0924,-0.4048,-0.1294,
2.586953,-0.6823,0.7810,-0.1131,-0.2548,0.2545,-0.9064,-1.0924,-0.4048,-0.1294,
2.588786,-0.6823,0.7810,-0.1131,-0.2548,0.2545,-0.9064,-1.0578,-0.4634,-0.0346,
2.604282,-0.6823,0.7810,-0.1131,-0.2548,0.2545,-0.9064,-0.8533,-0.2493,-0.0298,
2.624765,-0.6347,0.7566,0.0403,-0.2548,0.2545,-0.9064,-0.8533,-0.2493,-0.0298,
2.626849,-0.6347,0.7566,0.0403,0.2192,0.0195,0.2736,-0.8533,-0.2493,-0.0298,
2.628304,-0.6347,0.7566,0.0403,0.2192,0.0195,0.2736,-0.7270,-0.3728,-0.1049,
2.644282,-0.6347,0.7566,0.0403,0.2192,0.0195,0.2736,-0.4245,-0.4815,-0.2493,
2.664609,-0.4823,0.7124,0.3112,0.2192,0.0195,0.2736,-0.4245,-0.4815,-0.2493,
2.666709,-0.4823,0.7124,0.3112,1.7527,-0.3691,2.6455,-0.4245,-0.4815,-0.2493,
2.668427,-0.4823,0.7124,0.3112,1.7527,-0.3691,2.6455,-0.0027,-0.4852,-0.3494,
2.683989,-0.4823,0.7124,0.3112,1.7527,-0.3691,2.6455,0.4836,-0.3340,-0.5273,
2.704285,-0.8025,0.7764,0.0452,1.7527,-0.3691,2.6455,0.4836,-0.3340,-0.5273,
2.706249,-0.8025,0.7764,0.0452,-1.2668,0.3674,0.0002,0.4836,-0.3340,-0.5273,
2.708056,-0.8025,0.7764,0.0452,-1.2668,0.3674,0.0002,0.8543,-0.1113,-0.4176,
2.724963,-0.8025,0.7764,0.0452,-1.2668,0.3674,0.0002,0.7281,-0.2226,-0.2551,
2.743901,-0.7415,0.7972,-0.3777,-1.2668,0.3674,0.0002,0.7281,-0.2226,-0.2551,
2.745858,-0.7415,0.7972,-0.3777,-0.5750,0.6469,-3.9335,0.7281,-0.2226,-0.2551,
2.747835,-0.7415,0.7972,-0.3777,-0.5750,0.6469,-3.9335,0.2349,-0.2743,-0.1417,
2.765039,-0.7415,0.7972,-0.3777,-0.5750,0.6469,-3.9335,-0.3052,-0.3292,-0.1715,
2.784491,-0.5739,0.7627,-0.0213,-0.5750,0.6469,-3.9335,-0.3052,-0.3292,-0.1715,
2.787648,-0.5739,0.7627,-0.0213,1.0949,0.3369,-0.4894,-0.3052,-0.3292,-0.1715,
2.789573,-0.5739,0.7627,-0.0213,1.0949,0.3369,-0.4894,-0.3622,-0.3228,-0.1603,
2.803922,-0.5739,0.7627,-0.0213,1.0949,0.3369,-0.4894,0.1944,-0.4389,-0.5444,
2.824772,-0.6425,1.1023,0.2377,1.0949,0.3369,-0.4894,0.1944,-0.4389,-0.5444,
2.827183,-0.6425,1.1023,0.2377,0.5164,3.7610,1.9216,0.1944,-0.4389,-0.5444,
2.828862,-0.6425,1.1023,0.2377,0.5164,3.7610,1.9216,1.2096,-0.1124,-1.1718,
2.843769,-0.6425,1.1023,0.2377,0.5164,3.7610,1.9216,1.6975,-0.2445,-0.8788,
2.863591,-0.6948,1.0657,-0.1292,0.5164,3.7610,1.9216,1.6975,-0.2445,-0.8788,
2.864989,-0.6948,1.0657,-0.1292,0.2854,3.6733,-1.3245,1.6975,-0.2445,-0.8788,
2.866277,-0.6948,1.0657,-0.1292,0.2854,3.6733,-1.3245,1.2693,-0.3941,0.5300,
2.883291,-0.6948,1.0657,-0.1292,0.2854,3.6733,-1.3245,0.8687,-0.3159,0.6482,
2.916108,-0.5196,0.9772,0.2008,0.2854,3.6733,-1.3245,0.8687,-0.3159,0.6482,
2.917198,-0.5196,0.9772,0.2008,1.8415,2.6434,2.1025,0.8687,-0.3159,0.6482,
2.918012,-0.5196,0.9772,0.2008,1.8415,2.6434,2.1025,0.9119,-0.3334,0.8533,
2.923457,-0.5196,0.9772,0.2008,1.8415,2.6434,2.1025,1.1553,-0.6008,1.1436,
2.948559,-0.4354,0.8123,0.3225,1.8415,2.6434,2.1025,1.1553,-0.6008,1.1436,
2.949955,-0.4354,0.8123,0.3225,2.3727,0.7485,3.4372,1.1553,-0.6008,1.1436,
2.951486,-0.4354,0.8123,0.3225,2.3727,0.7485,3.4372,1.3049,-0.5779,1.2501,
2.963245,-0.4354,0.8123,0.3225,2.3727,0.7485,3.4372,1.3476,-0.7430,1.3603,
2.983457,-0.6259,0.8077,0.3396,2.3727,0.7485,3.4372,1.3476,-0.7430,1.3603,
2.985199,-0.6259,0.8077,0.3396,0.1232,0.3785,3.7939,1.3476,-0.7430,1.3603,
2.986767,-0.6259,0.8077,0.3396,0.1232,0.3785,3.7939,1.0514,-1.1835,1.6948,
3.003905,-0.6259,0.8077,0.3396,0.1232,0.3785,3.7939,0.4783,-1.3268,1.9153,
3.023484,-0.6787,0.5639,0.0833,0.1232,0.3785,3.7939,0.4783,-1.3268,1.9153,
3.025903,-0.6787,0.5639,0.0833,-0.9102,-2.4178,1.1508,0.4783,-1.3268,1.9153,
3.027854,-0.6787,0.5639,0.0833,-0.9102,-2.4178,1.1508,-0.3111,-1.1713,1.9042,
3.077347,-0.6787,0.5639,0.0833,-0.9102,-2.4178,1.1508,-0.9284,-1.3071,1.7076,
3.079489,-0.9645,0.5326,0.0794,-0.9102,-2.4178,1.1508,-0.9284,-1.3071,1.7076,
3.081109,-0.9645,0.5326,0.0794,-4.2270,-3.0775,0.6099,-0.9284,-1.3071,1.7076,
3.082857,-0.9645,0.5326,0.0794,-4.2270,-3.0775,0.6099,-1.1558,-1.5478,1.4855,
3.084274,-0.9645,0.5326,0.0794,-4.2270,-3.0775,0.6099,-1.2022,-1.7838,1.0472,
3.103781,-1.0813,0.3982,-0.1412,-4.2270,-3.0775,0.6099,-1.2022,-1.7838,1.0472,
3.105729,-1.0813,0.3982,-0.1412,-5.7922,-4.6001,-2.2739,-1.2022,-1.7838,1.0472,
3.107683,-1.0813,0.3982,-0.1412,-5.7922,-4.6001,-2.2739,-1.2037,-1.7529,0.3718,
3.123012,-1.0813,0.3982,-0.1412,-5.7922,-4.6001,-2.2739,-1.0892,-1.7007,-0.4123,
3.143894,-1.1045,0.3623,-0.1644,-5.7922,-4.6001,-2.2739,-1.0892,-1.7007,-0.4123,
3.147076,-1.1045,0.3623,-0.1644,-6.0940,-4.8889,-3.2150,-1.0892,-1.7007,-0.4123,
3.149191,-1.1045,0.3623,-0.1644,-6.0940,-4.8889,-3.2150,-0.7361,-1.6432,-1.0514,
3.163308,-1.1045,0.3623,-0.1644,-6.0940,-4.8889,-3.2150,-0.3398,-1.6426,-1.6975,
3.183520,-0.9655,0.2885,-0.2360,-6.0940,-4.8889,-3.2150,-0.3398,-1.6426,-1.6975,
3.186080,-0.9655,0.2885,-0.2360,-4.3698,-5.2896,-4.3989,-0.3398,-1.6426,-1.6975,
3.188756,-0.9655,0.2885,-0.2360,-4.3698,-5.2896,-4.3989,0.1672,-1.6544,-2.2685,
3.204084,-0.9655,0.2885,-0.2360,-4.3698,-5.2896,-4.3989,1.0445,-1.8418,-2.3351,
3.223197,-0.6462,0.5192,-0.2658,-4.3698,-5.2896,-4.3989,1.0445,-1.8418,-2.3351,
3.225301,-0.6462,0.5192,-0.2658,-0.6267,-2.5695,-4.8365,1.0445,-1.8418,-2.3351,
3.227344,-0.6462,0.5192,-0.2658,-0.6267,-2.5695,-4.8365,1.6000,-1.5441,-2.2887,
3.243004,-0.6462,0.5192,-0.2658,-0.6267,-2.5695,-4.8365,1.8472,-1.0504,-2.3292,
3.263067,-0.6108,0.5490,-0.3496,-0.6267,-2.5695,-4.8365,1.8472,-1.0504,-2.3292,
3.264846,-0.6108,0.5490,-0.3496,0.3070,-1.8687,-5.4347,1.8472,-1.0504,-2.3292,
3.265856,-0.6108,0.5490,-0.3496,0.3070,-1.8687,-5.4347,1.8120,-0.8458,-2.3271,
3.283452,-0.6108,0.5490,-0.3496,0.3070,-1.8687,-5.4347,1.7374,-0.6003,-2.1604,
3.304244,-0.6340,0.6662,-0.2704,0.3070,-1.8687,-5.4347,1.7374,-0.6003,-2.1604,
3.305912,-0.6340,0.6662,-0.2704,0.6633,-0.2606,-4.3204,1.7374,-0.6003,-2.1604,
3.307324,-0.6340,0.6662,-0.2704,0.6633,-0.2606,-4.3204,1.5276,-0.1731,-1.4919,
3.322935,-0.6340,0.6662,-0.2704,0.6633,-0.2606,-4.3204,1.6554,0.3409,-0.4661,
3.343501,-0.5275,0.6899,0.0283,0.6633,-0.2606,-4.3204,1.6554,0.3409,-0.4661,
3.345596,-0.5275,0.6899,0.0283,1.9727,0.1527,-0.9441,1.6554,0.3409,-0.4661,
3.347367,-0.5275,0.6899,0.0283,1.9727,0.1527,-0.9441,2.0032,0.7191,0.5028,
3.362881,-0.5275,0.6899,0.0283,1.9727,0.1527,-0.9441,2.1241,0.8304,1.1478,
3.383943,-0.9154,0.6061,-0.0366,1.9727,0.1527,-0.9441,2.1241,0.8304,1.1478,
3.386072,-0.9154,0.6061,-0.0366,-2.0066,-0.9521,-0.7664,2.1241,0.8304,1.1478,
3.388119,-0.9154,0.6061,-0.0366,-2.0066,-0.9521,-0.7664,2.1225,0.6392,1.8008,
3.403741,-0.9154,0.6061,-0.0366,-2.0066,-0.9521,-0.7664,2.3212,1.6730,3.0557,
3.424085,-0.8069,0.5228,-0.1766,-2.0066,-0.9521,-0.7664,2.3212,1.6730,3.0557,
3.426898,-0.8069,0.5228,-0.1766,-1.6011,-2.3653,-1.1739,2.3212,1.6730,3.0557,
3.428648,-0.8069,0.5228,-0.1766,-1.6011,-2.3653,-1.1739,2.0879,2.6514,3.9356,
3.442462,-0.8069,0.5228,-0.1766,-1.6011,-2.3653,-1.1739,1.5984,3.1846,4.4283,
3.462893,0.3662,0.2404,-0.8944,-1.6011,-2.3653,-1.1739,1.5984,3.1846,4.4283,
3.465207,0.3662,0.2404,-0.8944,8.4296,-5.9831,-6.9766,1.5984,3.1846,4.4283,
3.466521,0.3662,0.2404,-0.8944,8.4296,-5.9831,-6.9766,0.5012,0.9731,4.1002,
3.483239,0.3662,0.2404,-0.8944,8.4296,-5.9831,-6.9766,-2.1279,-3.5031,2.9614,
3.503163,-0.1046,0.2963,-0.1974,8.4296,-5.9831,-6.9766,-2.1279,-3.5031,2.9614,
3.505029,-0.1046,0.2963,-0.1974,2.6744,-6.0829,-0.6231,-2.1279,-3.5031,2.9614,
3.506419,-0.1046,0.2963,-0.1974,2.6744,-6.0829,-0.6231,-2.2695,-3.4978,3.5841,
3.522879,-0.1046,0.2963,-0.1974,2.6744,-6.0829,-0.6231,-1.0285,-4.4800,3.3476,
3.544211,0.7065,2.3263,-0.6108,2.6744,-6.0829,-0.6231,-1.0285,-4.4800,3.3476,
3.546429,0.7065,2.3263,-0.6108,9.4516,13.3247,-5.7702,-1.0285,-4.4800,3.3476,
3.548309,0.7065,2.3263,-0.6108,9.4516,13.3247,-5.7702,1.0599,-2.8363,2.6573,
3.563093,0.7065,2.3263,-0.6108,9.4516,13.3247,-5.7702,1.3337,-2.4901,0.1678,
3.583255,-0.7153,2.6185,-0.9262,9.4516,13.3247,-5.7702,1.3337,-2.4901,0.1678,
3.585910,-0.7153,2.6185,-0.9262,-4.9886,16.0752,-8.6341,1.3337,-2.4901,0.1678,
3.587782,-0.7153,2.6185,-0.9262,-4.9886,16.0752,-8.6341,0.1438,-2.6317,-1.8323,
3.602504,-0.7153,2.6185,-0.9262,-4.9886,16.0752,-8.6341,-1.4871,-0.8405,-0.7984,
3.623431,-0.2685,0.4077,-0.0054,-4.9886,16.0752,-8.6341,-1.4871,-0.8405,-0.7984,
3.626651,-0.2685,0.4077,-0.0054,-0.0845,-5.4742,-0.0225,-1.4871,-0.8405,-0.7984,
3.628583,-0.2685,0.4077,-0.0054,-0.0845,-5.4742,-0.0225,-2.3084,-0.1811,-0.3329,
3.642264,-0.2685,0.4077,-0.0054,-0.0845,-5.4742,-0.0225,-2.6743,-0.2706,-0.0309,
3.662295,-0.3865,0.5834,0.3440,-0.0845,-5.4742,-0.0225,-2.6743,-0.2706,-0.0309,
3.664292,-0.3865,0.5834,0.3440,-1.1633,-3.6910,2.4953,-2.6743,-0.2706,-0.0309,
3.665427,-0.3865,0.5834,0.3440,-1.1633,-3.6910,2.4953,-2.4544,-0.5875,0.0293,
3.682883,-0.3865,0.5834,0.3440,-1.1633,-3.6910,2.4953,-1.0445,-0.2397,-0.6163,
3.702530,-0.8275,0.8595,0.3227,-1.1633,-3.6910,2.4953,-1.0445,-0.2397,-0.6163,
3.705388,-0.8275,0.8595,0.3227,-5.3519,-0.8578,1.6009,-1.0445,-0.2397,-0.6163,
3.707200,-0.8275,0.8595,0.3227,-5.3519,-0.8578,1.6009,0.6535,0.8368,-0.5593,
3.723025,-0.8275,0.8595,0.3227,-5.3519,-0.8578,1.6009,1.3758,1.1649,-0.2439,
3.742559,-0.4454,0.8348,-0.0921,-5.3519,-0.8578,1.6009,1.3758,1.1649,-0.2439,
3.745482,-0.4454,0.8348,-0.0921,-1.3310,-1.0869,-1.9390,1.3758,1.1649,-0.2439,
3.747675,-0.4454,0.8348,-0.0921,-1.3310,-1.0869,-1.9390,1.5569,1.1425,-0.1944,
3.762726,-0.4454,0.8348,-0.0921,-1.3310,-1.0869,-1.9390,1.5457,1.3028,-0.1811,
3.783155,-0.4068,0.9183,-0.5880,-1.3310,-1.0869,-1.9390,1.5457,1.3028,-0.1811,
3.785807,-0.4068,0.9183,-0.5880,-0.8211,-0.2785,-6.0151,1.5457,1.3028,-0.1811,
3.787560,-0.4068,0.9183,-0.5880,-0.8211,-0.2785,-6.0151,1.5068,1.9036,-0.1859,
3.803371,-0.4068,0.9183,-0.5880,-0.8211,-0.2785,-6.0151,1.1111,1.8115,-0.2684,
3.822714,-0.3068,0.8539,-0.8121,-0.8211,-0.2785,-6.0151,1.1111,1.8115,-0.2684,
3.825708,-0.3068,0.8539,-0.8121,0.2365,-0.8738,-7.4659,1.1111,1.8115,-0.2684,
3.827795,-0.3068,0.8539,-0.8121,0.2365,-0.8738,-7.4659,0.4426,1.0930,-0.4096,
3.842273,-0.3068,0.8539,-0.8121,0.2365,-0.8738,-7.4659,-0.0266,0.3862,-0.5955,
3.863294,-0.3496,0.8153,-0.3542,0.2365,-0.8738,-7.4659,-0.0266,0.3862,-0.5955,
3.865418,-0.3496,0.8153,-0.3542,-0.0069,-1.1720,-2.7322,-0.0266,0.3862,-0.5955,
3.867354,-0.3496,0.8153,-0.3542,-0.0069,-1.1720,-2.7322,-0.1193,0.1710,-0.7350,
3.882455,-0.3496,0.8153,-0.3542,-0.0069,-1.1720,-2.7322,-0.1097,-0.2248,-0.7473,
3.902115,-0.4124,0.9638,-0.0054,-0.0069,-1.1720,-2.7322,-0.1097,-0.2248,-0.7473,
3.904536,-0.4124,0.9638,-0.0054,-0.3463,0.3927,0.7027,-0.1097,-0.2248,-0.7473,
3.906225,-0.4124,0.9638,-0.0054,-0.3463,0.3927,0.7027,-0.1001,-1.2053,-0.6029,
3.925901,-0.4124,0.9638,-0.0054,-0.3463,0.3927,0.7027,-0.0708,-1.8631,-0.3665,
3.945253,-0.3855,1.1475,0.0545,-0.3463,0.3927,0.7027,-0.0708,-1.8631,-0.3665,
3.947523,-0.3855,1.1475,0.0545,0.1272,2.2636,1.0280,-0.0708,-1.8631,-0.3665,
3.949040,-0.3855,1.1475,0.0545,0.1272,2.2636,1.0280,-0.0703,-1.9292,-0.2439,
3.962391,-0.3855,1.1475,0.0545,0.1272,2.2636,1.0280,0.0154,-1.5031,-0.1571,
3.982852,-0.3562,1.1558,0.1058,0.1272,2.2636,1.0280,0.0154,-1.5031,-0.1571,
3.985329,-0.3562,1.1558,0.1058,0.5103,2.3762,1.2497,0.0154,-1.5031,-0.1571,
3.986984,-0.3562,1.1558,0.1058,0.5103,2.3762,1.2497,0.0282,-1.1079,-0.0261,
4.001576,-0.3562,1.1558,0.1058,0.5103,2.3762,1.2497,-0.0527,-0.8740,-0.0858,
4.021671,-0.4288,1.1971,0.1375,0.5103,2.3762,1.2497,-0.0527,-0.8740,-0.0858,
4.023714,-0.4288,1.1971,0.1375,-0.1754,2.7898,1.3978,-0.0527,-0.8740,-0.0858,
4.025103,-0.4288,1.1971,0.1375,-0.1754,2.7898,1.3978,-0.2716,-1.0365,-0.2099,
4.041778,-0.4288,1.1971,0.1375,-0.1754,2.7898,1.3978,-0.6072,-1.3380,-0.1854,
4.062411,-0.5741,1.2337,0.1747,-0.1754,2.7898,1.3978,-0.6072,-1.3380,-0.1854,
4.064632,-0.5741,1.2337,0.1747,-1.5349,3.1834,1.4125,-0.6072,-1.3380,-0.1854,
4.066255,-0.5741,1.2337,0.1747,-1.5349,3.1834,1.4125,-0.9278,-1.2852,-0.1135,
4.082196,-0.5741,1.2337,0.1747,-1.5349,3.1834,1.4125,-0.9907,-0.5811,-0.1001,
4.102089,-0.4896,0.8775,0.2384,-1.5349,3.1834,1.4125,-0.9907,-0.5811,-0.1001,
4.105253,-0.4896,0.8775,0.2384,-0.6877,-0.2684,1.5439,-0.9907,-0.5811,-0.1001,
4.107361,-0.4896,0.8775,0.2384,-0.6877,-0.2684,1.5439,-0.7920,0.0394,-0.1465,
4.123956,-0.4896,0.8775,0.2384,-0.6877,-0.2684,1.5439,-0.5689,0.0959,-0.1901,
4.142127,-0.3794,0.6464,0.1480,-0.6877,-0.2684,1.5439,-0.5689,0.0959,-0.1901,
4.145404,-0.3794,0.6464,0.1480,0.4600,-2.4758,0.4105,-0.5689,0.0959,-0.1901,
4.147647,-0.3794,0.6464,0.1480,0.4600,-2.4758,0.4105,-0.3222,-0.0431,-0.2402,
4.162676,-0.3794,0.6464,0.1480,0.4600,-2.4758,0.4105,-0.0879,-0.1811,-0.3148,
4.182366,-0.3601,0.6264,0.0149,0.4600,-2.4758,0.4105,-0.0879,-0.1811,-0.3148,
4.184889,-0.3601,0.6264,0.0149,0.7415,-2.6164,-0.9853,-0.0879,-0.1811,-0.3148,
4.187000,-0.3601,0.6264,0.0149,0.7415,-2.6164,-0.9853,0.0053,-0.2317,-0.3462,
4.201898,-0.3601,0.6264,0.0149,0.7415,-2.6164,-0.9853,-0.0836,-0.2658,-0.2642,
4.222107,-0.4004,0.6885,-0.0086,0.7415,-2.6164,-0.9853,-0.0836,-0.2658,-0.2642,
4.223150,-0.4004,0.6885,-0.0086,0.4414,-1.9538,-1.2717,-0.0836,-0.2658,-0.2642,
4.223828,-0.4004,0.6885,-0.0086,0.4414,-1.9538,-1.2717,-0.3020,-0.2722,-0.1411,
4.242570,-0.4004,0.6885,-0.0086,0.4414,-1.9538,-1.2717,-0.4948,-0.2759,-0.0373,
4.262116,-0.4752,0.7730,0.1029,0.4414,-1.9538,-1.2717,-0.4948,-0.2759,-0.0373,
4.265359,-0.4752,0.7730,0.1029,-0.2742,-1.0894,-0.3660,-0.4948,-0.2759,-0.0373,
4.267550,-0.4752,0.7730,0.1029,-0.2742,-1.0894,-0.3660,-0.5193,-0.3324,0.0463,
4.282513,-0.4752,0.7730,0.1029,-0.2742,-1.0894,-0.3660,-0.4048,-0.2892,0.1305,
4.302013,-0.5819,0.8453,0.0557,-0.2742,-1.0894,-0.3660,-0.4048,-0.2892,0.1305,
4.305135,-0.5819,0.8453,0.0557,-1.3562,-0.3645,-1.0291,-0.4048,-0.2892,0.1305,
4.307089,-0.5819,0.8453,0.0557,-1.3562,-0.3645,-1.0291,-0.3004,-0.0858,0.2040,
4.322926,-0.5819,0.8453,0.0557,-1.3562,-0.3645,-1.0291,-0.3201,0.0911,0.2466,
4.342560,-0.6249,0.8526,-0.0208,-1.3562,-0.3645,-1.0291,-0.3201,0.0911,0.2466,
4.345138,-0.6249,0.8526,-0.0208,-1.8102,-0.2980,-1.8379,-0.3201,0.0911,0.2466,
4.347137,-0.6249,0.8526,-0.0208,-1.8102,-0.2980,-1.8379,-0.5007,0.0229,0.3111,
4.362253,-0.6249,0.8526,-0.0208,-1.8102,-0.2980,-1.8379,-0.4858,-0.1907,0.3739,
4.382096,-0.5536,0.9425,0.0520,-1.8102,-0.2980,-1.8379,-0.4858,-0.1907,0.3739,
4.385019,-0.5536,0.9425,0.0520,-1.2047,0.5658,-1.2704,-0.4858,-0.1907,0.3739,
4.386900,-0.5536,0.9425,0.0520,-1.2047,0.5658,-1.2704,-0.2828,-0.3281,0.4117,
4.401864,-0.5536,0.9425,0.0520,-1.2047,0.5658,-1.2704,0.0021,-0.3297,0.4549,
4.422032,-0.6047,1.0786,0.0767,-1.2047,0.5658,-1.2704,0.0021,-0.3297,0.4549,
4.425179,-0.6047,1.0786,0.0767,-1.8799,1.8380,-1.1316,0.0021,-0.3297,0.4549,
4.427223,-0.6047,1.0786,0.0767,-1.8799,1.8380,-1.1316,0.2338,-0.3984,0.5225,
4.441420,-0.6047,1.0786,0.0767,-1.8799,1.8380,-1.1316,0.3164,-0.3382,0.5886,
4.461250,-0.7693,1.2501,0.0068,-1.8799,1.8380,-1.1316,0.3164,-0.3382,0.5886,
4.463196,-0.7693,1.2501,0.0068,-3.7161,3.4109,-1.7777,0.3164,-0.3382,0.5886,
4.464834,-0.7693,1.2501,0.0068,-3.7161,3.4109,-1.7777,0.3361,-0.1827,0.6663,
4.481916,-0.7693,1.2501,0.0068,-3.7161,3.4109,-1.7777,0.3957,-0.0101,0.7345,
4.501715,-0.7366,1.3083,0.0985,-3.7161,3.4109,-1.7777,0.3957,-0.0101,0.7345,
4.504067,-0.7366,1.3083,0.0985,-3.6512,3.8513,-0.7642,0.3957,-0.0101,0.7345,
4.505844,-0.7366,1.3083,0.0985,-3.6512,3.8513,-0.7642,0.5358,-0.0463,0.7553,
4.522986,-0.7366,1.3083,0.0985,-3.6512,3.8513,-0.7642,0.4586,-0.2764,0.7377,
4.542040,-0.5653,1.0771,0.1495,-3.6512,3.8513,-0.7642,0.4586,-0.2764,0.7377,
4.544369,-0.5653,1.0771,0.1495,-2.2528,1.4514,-0.1061,0.4586,-0.2764,0.7377,
4.546108,-0.5653,1.0771,0.1495,-2.2528,1.4514,-0.1061,0.2296,-0.3521,0.6876,
4.562047,-0.5653,1.0771,0.1495,-2.2528,1.4514,-0.1061,-0.0799,-0.2269,0.6514,
4.582110,-0.3418,0.8700,0.3848,-2.2528,1.4514,-0.1061,-0.0799,-0.2269,0.6514,
4.584888,-0.3418,0.8700,0.3848,-0.3250,-0.6679,2.1900,-0.0799,-0.2269,0.6514,
4.586700,-0.3418,0.8700,0.3848,-0.3250,-0.6679,2.1900,-0.2615,-0.3393,0.5965,
4.601827,-0.3418,0.8700,0.3848,-0.3250,-0.6679,2.1900,-0.2120,-0.7862,0.5699,
4.622141,-0.0862,0.9484,0.5490,-0.3250,-0.6679,2.1900,-0.2120,-0.7862,0.5699,
4.624547,-0.0862,0.9484,0.5490,1.9273,0.0486,3.6472,-0.2120,-0.7862,0.5699,
4.626101,-0.0862,0.9484,0.5490,1.9273,0.0486,3.6472,-0.1278,-1.4195,0.5257,
4.641926,-0.0862,0.9484,0.5490,1.9273,0.0486,3.6472,-0.0804,-1.9329,0.4336,
4.662180,0.2301,1.1649,0.5512,1.9273,0.0486,3.6472,-0.0804,-1.9329,0.4336,
4.664189,0.2301,1.1649,0.5512,4.7267,2.1271,3.4554,-0.0804,-1.9329,0.4336,
4.665750,0.2301,1.1649,0.5512,4.7267,2.1271,3.4554,-0.1076,-2.0283,0.2791,
4.682044,0.2301,1.1649,0.5512,4.7267,2.1271,3.4554,-0.1603,-1.3263,0.1364,
4.701795,0.2983,1.2381,0.4400,4.7267,2.1271,3.4554,-0.1603,-1.3263,0.1364,
4.704562,0.2983,1.2381,0.4400,5.1807,2.8367,2.1581,-0.1603,-1.3263,0.1364,
4.706070,0.2983,1.2381,0.4400,5.1807,2.8367,2.1581,-0.0852,-0.2770,0.0027,
4.722055,0.2983,1.2381,0.4400,5.1807,2.8367,2.1581,0.1427,0.6322,-0.0229,
4.741961,-0.0420,0.9826,0.2333,5.1807,2.8367,2.1581,0.1427,0.6322,-0.0229,
4.744098,-0.0420,0.9826,0.2333,1.8645,0.3309,0.1593,0.1427,0.6322,-0.0229,
4.745613,-0.0420,0.9826,0.2333,1.8645,0.3309,0.1593,0.3883,0.9790,-0.0490,
4.761672,-0.0420,0.9826,0.2333,1.8645,0.3309,0.1593,0.6876,0.9428,-0.2216,
4.781868,-0.4718,1.0586,0.1537,1.8645,0.3309,0.1593,0.6876,0.9428,-0.2216,
4.784057,-0.4718,1.0586,0.1537,-2.2199,1.0457,-0.3315,0.6876,0.9428,-0.2216,
4.785816,-0.4718,1.0586,0.1537,-2.2199,1.0457,-0.3315,1.1771,0.9539,-1.0434,
4.801019,-0.4718,1.0586,0.1537,-2.2199,1.0457,-0.3315,1.4647,0.7691,-1.4381,
4.821608,-0.4141,0.7488,-0.0660,-2.2199,1.0457,-0.3315,1.4647,0.7691,-1.4381,
4.824052,-0.4141,0.7488,-0.0660,-1.1399,-1.9396,-1.9021,1.4647,0.7691,-1.4381,
4.825881,-0.4141,0.7488,-0.0660,-1.1399,-1.9396,-1.9021,1.2405,0.1539,-1.1681,
4.841478,-0.4141,0.7488,-0.0660,-1.1399,-1.9396,-1.9021,0.6924,-0.3814,-0.7127,
4.861829,-0.2888,0.6645,-0.1375,-1.1399,-1.9396,-1.9021,0.6924,-0.3814,-0.7127,
4.863466,-0.2888,0.6645,-0.1375,0.4316,-2.6909,-2.2619,0.6924,-0.3814,-0.7127,
4.864488,-0.2888,0.6645,-0.1375,0.4316,-2.6909,-2.2619,0.0069,-0.5092,-0.1832,
4.880835,-0.2888,0.6645,-0.1375,0.4316,-2.6909,-2.2619,-0.4788,-0.2072,0.2951,
4.900951,-0.1566,0.5446,-0.0850,0.4316,-2.6909,-2.2619,-0.4788,-0.2072,0.2951,
4.903936,-0.1566,0.5446,-0.0850,1.6927,-3.8643,-1.8805,-0.4788,-0.2072,0.2951,
4.905582,-0.1566,0.5446,-0.0850,1.6927,-3.8643,-1.8805,-0.7691,-0.0107,0.5300,
4.920665,-0.1566,0.5446,-0.0850,1.6927,-3.8643,-1.8805,-0.8836,-0.0682,0.5715,
4.941008,-0.1063,0.6853,-0.0032,1.6927,-3.8643,-1.8805,-0.8836,-0.0682,0.5715,
4.943752,-0.1063,0.6853,-0.0032,1.9812,-2.5143,-1.3876,-0.8836,-0.0682,0.5715,
4.945449,-0.1063,0.6853,-0.0032,1.9812,-2.5143,-1.3876,-0.7814,-0.2269,0.3957,
4.961337,-0.1063,0.6853,-0.0032,1.9812,-2.5143,-1.3876,-0.5603,-0.3025,-0.0293,
4.981494,-0.3506,0.8815,-0.0665,1.9812,-2.5143,-1.3876,-0.5603,-0.3025,-0.0293,
4.983924,-0.3506,0.8815,-0.0665,-0.4966,-0.5736,-2.2862,-0.5603,-0.3025,-0.0293,
4.985755,-0.3506,0.8815,-0.0665,-0.4966,-0.5736,-2.2862,-0.5385,-0.2232,-0.4645,
5.001521,-0.3506,0.8815,-0.0665,-0.4966,-0.5736,-2.2862,-0.6317,0.0575,-0.6695,
5.021379,-0.2553,0.7573,-0.0154,-0.4966,-0.5736,-2.2862,-0.6317,0.0575,-0.6695,
5.025007,-0.2553,0.7573,-0.0154,0.6391,-1.6801,-2.0097,-0.6317,0.0575,-0.6695,
5.026938,-0.2553,0.7573,-0.0154,0.6391,-1.6801,-2.0097,-0.7159,-0.1305,-0.7681,
5.042757,-0.2553,0.7573,-0.0154,0.6391,-1.6801,-2.0097,-0.7782,-0.7121,-0.9790,
5.061942,-0.5421,1.5027,0.1275,0.6391,-1.6801,-2.0097,-0.7782,-0.7121,-0.9790,
5.064298,-0.5421,1.5027,0.1275,-1.8921,5.7992,-0.9339,-0.7782,-0.7121,-0.9790,
5.066000,-0.5421,1.5027,0.1275,-1.8921,5.7992,-0.9339,-1.2400,-1.8046,-1.1079,
5.081111,-0.5421,1.5027,0.1275,-1.8921,5.7992,-0.9339,-1.6634,-2.5833,-0.6232,
5.100761,-0.1923,0.8692,0.5140,-1.8921,5.7992,-0.9339,-1.6634,-2.5833,-0.6232,
5.103390,-0.1923,0.8692,0.5140,1.6026,-0.1464,2.0491,-1.6634,-2.5833,-0.6232,
5.104951,-0.1923,0.8692,0.5140,1.6026,-0.1464,2.0491,-1.7236,-2.5279,0.2892,
5.120574,-0.1923,0.8692,0.5140,1.6026,-0.1464,2.0491,-1.5175,-1.4589,0.4581,
5.141147,0.1070,0.8311,0.7979,1.6026,-0.1464,2.0491,-1.5175,-1.4589,0.4581,
5.143256,0.1070,0.8311,0.7979,4.0994,-0.3545,3.9958,-1.5175,-1.4589,0.4581,
5.144862,0.1070,0.8311,0.7979,4.0994,-0.3545,3.9958,-0.9071,0.0698,0.4554,
5.160517,0.1070,0.8311,0.7979,4.0994,-0.3545,3.9958,0.0005,1.0312,0.2999,
5.180518,-0.0154,0.9047,0.7632,4.0994,-0.3545,3.9958,0.0005,1.0312,0.2999,
5.182753,-0.0154,0.9047,0.7632,2.8566,0.3913,3.5667,0.0005,1.0312,0.2999,
5.184361,-0.0154,0.9047,0.7632,2.8566,0.3913,3.5667,0.7313,1.3534,0.2365,
5.200556,-0.0154,0.9047,0.7632,2.8566,0.3913,3.5667,1.0227,1.5441,0.2514,
5.220950,-0.2306,1.0679,0.5433,2.8566,0.3913,3.5667,1.0227,1.5441,0.2514,
5.224021,-0.2306,1.0679,0.5433,0.8771,1.8321,1.8895,1.0227,1.5441,0.2514,
5.225400,-0.2306,1.0679,0.5433,0.8771,1.8321,1.8895,1.0445,1.8871,0.1987,
5.240866,-0.2306,1.0679,0.5433,0.8771,1.8321,1.8895,1.0780,2.1135,0.0831,
5.261638,-0.3371,0.9802,0.2717,0.8771,1.8321,1.8895,1.0780,2.1135,0.0831,
5.263801,-0.3371,0.9802,0.2717,0.0334,0.8220,-0.1452,1.0780,2.1135,0.0831,
5.265517,-0.3371,0.9802,0.2717,0.0334,0.8220,-0.1452,1.0599,2.2749,-0.1593,
5.280987,-0.3371,0.9802,0.2717,0.0334,0.8220,-0.1452,0.8788,2.2003,-0.4863,
5.301223,-0.4867,0.7410,-0.0178,0.0334,0.8220,-0.1452,0.8788,2.2003,-0.4863,
5.304373,-0.4867,0.7410,-0.0178,-1.1042,-1.5734,-2.3382,0.8788,2.2003,-0.4863,
5.306257,-0.4867,0.7410,-0.0178,-1.1042,-1.5734,-2.3382,0.5071,1.6453,-0.6594,
5.324250,-0.4867,0.7410,-0.0178,-1.1042,-1.5734,-2.3382,-0.0442,0.9140,-0.5289,
5.340697,-0.5306,0.5797,-0.1258,-1.1042,-1.5734,-2.3382,-0.0442,0.9140,-0.5289,
5.343168,-0.5306,0.5797,-0.1258,-1.2235,-3.0819,-3.1198,-0.0442,0.9140,-0.5289,
5.345029,-0.5306,0.5797,-0.1258,-1.2235,-3.0819,-3.1198,-0.6088,0.4453,-0.2791,
5.360944,-0.5306,0.5797,-0.1258,-1.2235,-3.0819,-3.1198,-0.9326,0.4405,-0.1273,
5.381416,-0.3904,0.5421,0.0432,-1.2235,-3.0819,-3.1198,-0.9326,0.4405,-0.1273,
5.383863,-0.3904,0.5421,0.0432,0.2565,-3.3569,-1.6598,-0.9326,0.4405,-0.1273,
5.385760,-0.3904,0.5421,0.0432,0.2565,-3.3569,-1.6598,-0.9145,0.5353,-0.1049,
5.400809,-0.3904,0.5421,0.0432,0.2565,-3.3569,-1.6598,-0.6360,0.4123,-0.1459,
5.421167,-0.3481,0.6308,0.1947,0.2565,-3.3569,-1.6598,-0.6360,0.4123,-0.1459,
5.423665,-0.3481,0.6308,0.1947,0.7552,-2.3996,-0.3646,-0.6360,0.4123,-0.1459,
5.425313,-0.3481,0.6308,0.1947,0.7552,-2.3996,-0.3646,-0.2104,0.0895,-0.1220,
5.440705,-0.3481,0.6308,0.1947,0.7552,-2.3996,-0.3646,0.2136,-0.1214,-0.0591,
5.461480,-0.3887,0.7718,0.2035,0.7552,-2.3996,-0.3646,0.2136,-0.1214,-0.0591,
5.463856,-0.3887,0.7718,0.2035,0.3873,-1.0032,-0.2805,0.2136,-0.1214,-0.0591,
5.465691,-0.3887,0.7718,0.2035,0.3873,-1.0032,-0.2805,0.5145,-0.1459,0.0426,
5.480445,-0.3887,0.7718,0.2035,0.3873,-1.0032,-0.2805,0.6056,-0.0149,0.1678,
5.501220,-0.4722,0.9518,0.1627,0.3873,-1.0032,-0.2805,0.6056,-0.0149,0.1678,
5.504503,-0.4722,0.9518,0.1627,-0.4715,0.6954,-0.4973,0.6056,-0.0149,0.1678,
5.506283,-0.4722,0.9518,0.1627,-0.4715,0.6954,-0.4973,0.3931,0.3105,0.2626,
5.526468,-0.4722,0.9518,0.1627,-0.4715,0.6954,-0.4973,0.0730,0.5731,0.2839,
5.540514,-0.5372,1.0798,0.3547,-0.4715,0.6954,-0.4973,0.0730,0.5731,0.2839,
5.542847,-0.5372,1.0798,0.3547,-1.1644,1.8886,1.5336,0.0730,0.5731,0.2839,
5.544515,-0.5372,1.0798,0.3547,-1.1644,1.8886,1.5336,0.1262,0.3654,0.3350,
5.561045,-0.5372,1.0798,0.3547,-1.1644,1.8886,1.5336,0.5981,0.1806,0.4075,
5.580451,-0.6435,1.2462,0.3403,-1.1644,1.8886,1.5336,0.5981,0.1806,0.4075,
5.583863,-0.6435,1.2462,0.3403,-2.3147,3.4323,1.5630,0.5981,0.1806,0.4075,
5.585843,-0.6435,1.2462,0.3403,-2.3147,3.4323,1.5630,1.1313,0.0879,0.5049,
5.600379,-0.6435,1.2462,0.3403,-2.3147,3.4323,1.5630,1.2757,0.1390,0.5065,
5.620520,-0.6347,1.3339,0.1280,-2.3147,3.4323,1.5630,1.2757,0.1390,0.5065,
5.622707,-0.6347,1.3339,0.1280,-2.4005,4.1383,-0.0739,1.2757,0.1390,0.5065,
5.624554,-0.6347,1.3339,0.1280,-2.4005,4.1383,-0.0739,0.7286,0.4783,0.3334,
5.640690,-0.6347,1.3339,0.1280,-2.4005,4.1383,-0.0739,0.0362,0.1358,0.1177,
5.659969,-0.3015,0.9623,0.4466,-2.4005,4.1383,-0.0739,0.0362,0.1358,0.1177,
5.663858,-0.3015,0.9623,0.4466,0.7995,0.4437,3.2313,0.0362,0.1358,0.1177,
5.665463,-0.3015,0.9623,0.4466,0.7995,0.4437,3.2313,0.0288,-0.7787,0.1310,
5.680290,-0.3015,0.9623,0.4466,0.7995,0.4437,3.2313,0.2743,-1.3561,0.0980,
5.700983,0.0037,0.7974,0.2524,0.7995,0.4437,3.2313,0.2743,-1.3561,0.0980,
5.702993,0.0037,0.7974,0.2524,3.6693,-1.2028,1.1868,0.2743,-1.3561,0.0980,
5.704665,0.0037,0.7974,0.2524,3.6693,-1.2028,1.1868,0.4171,-1.4775,-0.0394,
5.719481,0.0037,0.7974,0.2524,3.6693,-1.2028,1.1868,0.3712,-1.2586,-0.1188,
5.739969,-0.1248,0.9596,0.0235,3.6693,-1.2028,1.1868,0.3712,-1.2586,-0.1188,
5.742158,-0.1248,0.9596,0.0235,2.3066,0.3563,-1.1270,0.3712,-1.2586,-0.1188,
5.743948,-0.1248,0.9596,0.0235,2.3066,0.3563,-1.1270,0.2253,-0.8091,-0.0948,
5.760237,-0.1248,0.9596,0.0235,2.3066,0.3563,-1.1270,0.0666,-0.1960,0.0234,
5.779785,-0.2863,0.9589,-0.0450,2.3066,0.3563,-1.1270,0.0666,-0.1960,0.0234,
5.781961,-0.2863,0.9589,-0.0450,0.6681,0.3271,-1.7945,0.0666,-0.1960,0.0234,
5.783759,-0.2863,0.9589,-0.0450,0.6681,0.3271,-1.7945,-0.0277,0.2413,0.2317,
5.800364,-0.2863,0.9589,-0.0450,0.6681,0.3271,-1.7945,0.0250,0.3904,0.3313,
5.821074,-0.2213,0.7806,0.0068,0.6681,0.3271,-1.7945,0.0250,0.3904,0.3313,
5.823076,-0.2213,0.7806,0.0068,1.2149,-1.4615,-1.2399,0.0250,0.3904,0.3313,
5.824893,-0.2213,0.7806,0.0068,1.2149,-1.4615,-1.2399,0.1870,0.2386,0.2802,
5.840490,-0.2213,0.7806,0.0068,1.2149,-1.4615,-1.2399,0.3750,-0.2280,0.1598,
5.859871,-0.2494,0.7346,0.0254,1.2149,-1.4615,-1.2399,0.3750,-0.2280,0.1598,
5.861876,-0.2494,0.7346,0.0254,0.8599,-1.9550,-0.9546,0.3750,-0.2280,0.1598,
5.863795,-0.2494,0.7346,0.0254,0.8599,-1.9550,-0.9546,0.5268,-0.6067,0.1135,
5.879563,-0.2494,0.7346,0.0254,0.8599,-1.9550,-0.9546,0.5689,-0.8075,0.0352,
5.899864,-0.4586,0.8592,0.0362,0.8599,-1.9550,-0.9546,0.5689,-0.8075,0.0352,
5.902957,-0.4586,0.8592,0.0362,-1.2490,-0.7688,-0.7407,0.5689,-0.8075,0.0352,
5.905221,-0.4586,0.8592,0.0362,-1.2490,-0.7688,-0.7407,0.6306,-0.7627,-0.4687,
5.920557,-0.4586,0.8592,0.0362,-1.2490,-0.7688,-0.7407,0.5593,-0.9001,-0.8160,
5.940064,-0.4485,0.7366,0.0208,-1.2490,-0.7688,-0.7407,0.5593,-0.9001,-0.8160,
5.943503,-0.4485,0.7366,0.0208,-0.9502,-1.9096,-0.7845,0.5593,-0.9001,-0.8160,
5.945829,-0.4485,0.7366,0.0208,-0.9502,-1.9096,-0.7845,0.3451,-1.1356,-0.7718,
5.959185,-0.4485,0.7366,0.0208,-0.9502,-1.9096,-0.7845,0.1198,-1.4019,-0.5433,
5.980107,-0.2822,0.6740,-0.0061,-0.9502,-1.9096,-0.7845,0.1198,-1.4019,-0.5433,
5.983167,-0.2822,0.6740,-0.0061,0.8670,-2.4389,-1.1435,0.1198,-1.4019,-0.5433,
5.985179,-0.2822,0.6740,-0.0061,0.8670,-2.4389,-1.1435,-0.1427,-1.4946,-0.2802,
5.999297,-0.2822,0.6740,-0.0061,0.8670,-2.4389,-1.1435,-0.2402,-1.2080,-0.0676,
6.019698,-0.2328,0.7385,0.0303,0.8670,-2.4389,-1.1435,-0.2402,-1.2080,-0.0676,
6.022884,-0.2328,0.7385,0.0303,1.3480,-1.7721,-1.0523,-0.2402,-1.2080,-0.0676,
6.024872,-0.2328,0.7385,0.0303,1.3480,-1.7721,-1.0523,-0.2903,-0.9880,0.0511,
6.039150,-0.2328,0.7385,0.0303,1.3480,-1.7721,-1.0523,-0.2035,-0.7404,0.1443,
6.059368,-0.3882,1.0029,0.0366,1.3480,-1.7721,-1.0523,-0.2035,-0.7404,0.1443,
6.061855,-0.3882,1.0029,0.0366,-0.2597,0.8176,-1.1946,-0.2035,-0.7404,0.1443,
6.063697,-0.3882,1.0029,0.0366,-0.2597,0.8176,-1.1946,-0.1603,-0.5289,-0.0330,
6.079658,-0.3882,1.0029,0.0366,-0.2597,0.8176,-1.1946,-0.2194,-0.3537,-0.2972,
6.099244,-0.6396,0.8685,-0.0523,-0.2597,0.8176,-1.1946,-0.2194,-0.3537,-0.2972,
6.101452,-0.6396,0.8685,-0.0523,-2.6561,-0.4587,-2.1437,-0.2194,-0.3537,-0.2972,
6.103464,-0.6396,0.8685,-0.0523,-2.6561,-0.4587,-2.1437,-0.2157,-0.0048,-0.3899,
6.118918,-0.6396,0.8685,-0.0523,-2.6561,-0.4587,-2.1437,-0.2338,0.0538,-0.6109,
6.139183,-0.6718,0.9096,-0.0154,-2.6561,-0.4587,-2.1437,-0.2338,0.0538,-0.6109,
6.142174,-0.6718,0.9096,-0.0154,-2.7551,0.0403,-1.8163,-0.2338,0.0538,-0.6109,
6.144042,-0.6718,0.9096,-0.0154,-2.7551,0.0403,-1.8163,-0.3787,-0.4607,-0.7324,
6.159576,-0.6718,0.9096,-0.0154,-2.7551,0.0403,-1.8163,-0.3185,-0.8533,-0.3750,
6.179375,-0.7825,1.6349,0.1349,-2.7551,0.0403,-1.8163,-0.3185,-0.8533,-0.3750,
6.181711,-0.7825,1.6349,0.1349,-3.6917,7.2597,-0.5697,-0.3185,-0.8533,-0.3750,
6.183578,-0.7825,1.6349,0.1349,-3.6917,7.2597,-0.5697,-0.3143,-1.6762,-0.3025,
6.199224,-0.7825,1.6349,0.1349,-3.6917,7.2597,-0.5697,-0.5731,-2.0288,0.2557,
6.218642,-0.1683,1.0073,0.2240,-3.6917,7.2597,-0.5697,-0.5731,-2.0288,0.2557,
6.220756,-0.1683,1.0073,0.2240,2.1789,1.1509,-0.1428,-0.5731,-2.0288,0.2557,
6.222373,-0.1683,1.0073,0.2240,2.1789,1.1509,-0.1428,-1.0141,-1.7284,0.1901,
6.238720,-0.1683,1.0073,0.2240,2.1789,1.1509,-0.1428,-0.8155,-0.7377,0.3286,
6.258526,-0.2289,1.0808,0.5172,2.1789,1.1509,-0.1428,-0.8155,-0.7377,0.3286,
6.261023,-0.2289,1.0808,0.5172,1.3689,1.9283,2.2290,-0.8155,-0.7377,0.3286,
6.262494,-0.2289,1.0808,0.5172,1.3689,1.9283,2.2290,-0.5119,-0.4682,0.1981,
6.279131,-0.2289,1.0808,0.5172,1.3689,1.9283,2.2290,-0.1875,-0.0383,0.1385,
6.299708,-0.2465,0.9457,0.4771,1.3689,1.9283,2.2290,-0.1875,-0.0383,0.1385,
6.301705,-0.2465,0.9457,0.4771,1.1090,0.6211,1.6793,-0.1875,-0.0383,0.1385,
6.303275,-0.2465,0.9457,0.4771,1.1090,0.6211,1.6793,0.1561,0.6882,0.1571,
6.319305,-0.2465,0.9457,0.4771,1.1090,0.6211,1.6793,0.4661,1.4179,0.1875,
6.338738,-0.2340,0.8634,0.3867,1.1090,0.6211,1.6793,0.4661,1.4179,0.1875,
6.341100,-0.2340,0.8634,0.3867,1.2793,-0.2480,1.0413,0.4661,1.4179,0.1875,
6.342870,-0.2340,0.8634,0.3867,1.2793,-0.2480,1.0413,0.6780,1.7284,0.2093,
6.358657,-0.2340,0.8634,0.3867,1.2793,-0.2480,1.0413,0.8314,1.6911,0.1651,
6.379706,-0.2807,0.9907,0.2770,1.2793,-0.2480,1.0413,0.8314,1.6911,0.1651,
6.383559,-0.2807,0.9907,0.2770,0.9126,0.8941,0.4664,0.8314,1.6911,0.1651,
6.385406,-0.2807,0.9907,0.2770,0.9126,0.8941,0.4664,0.8506,1.5073,-0.0309,
6.399175,-0.2807,0.9907,0.2770,0.9126,0.8941,0.4664,0.7643,1.3955,-0.3910,
6.418784,-0.5267,0.9088,0.0068,0.9126,0.8941,0.4664,0.7643,1.3955,-0.3910,
6.421528,-0.5267,0.9088,0.0068,-1.3123,0.0580,-1.6813,0.7643,1.3955,-0.3910,
6.423814,-0.5267,0.9088,0.0068,-1.3123,0.0580,-1.6813,0.5140,1.1377,-0.6067,
6.440193,-0.5267,0.9088,0.0068,-1.3123,0.0580,-1.6813,0.0309,0.6706,-0.4437,
6.459088,-0.5316,0.6772,-0.0931,-1.3123,0.0580,-1.6813,0.0309,0.6706,-0.4437,
6.461222,-0.5316,0.6772,-0.0931,-1.1065,-2.1439,-2.4070,0.0309,0.6706,-0.4437,
6.463284,-0.5316,0.6772,-0.0931,-1.1065,-2.1439,-2.4070,-0.4746,0.3116,-0.2242,
6.479224,-0.5316,0.6772,-0.0931,-1.1065,-2.1439,-2.4070,-0.8464,0.2264,-0.0629,
6.499076,-0.4117,0.4986,-0.0044,-1.1065,-2.1439,-2.4070,-0.8464,0.2264,-0.0629,
6.501394,-0.4117,0.4986,-0.0044,0.1361,-3.8285,-1.7240,-0.8464,0.2264,-0.0629,
6.503273,-0.4117,0.4986,-0.0044,0.1361,-3.8285,-1.7240,-0.9742,0.3739,-0.0256,
6.518366,-0.4117,0.4986,-0.0044,0.1361,-3.8285,-1.7240,-0.8932,0.5177,-0.0389,
6.539082,-0.3740,0.5345,0.1229,0.1361,-3.8285,-1.7240,-0.8932,0.5177,-0.0389,
6.541377,-0.3740,0.5345,0.1229,0.5484,-3.4038,-0.7256,-0.8932,0.5177,-0.0389,
6.543279,-0.3740,0.5345,0.1229,0.5484,-3.4038,-0.7256,-0.6477,0.3531,-0.0644,
6.558854,-0.3740,0.5345,0.1229,0.5484,-3.4038,-0.7256,-0.3276,-0.0128,-0.0613,
6.578818,-0.3474,0.6193,0.1478,0.5484,-3.4038,-0.7256,-0.3276,-0.0128,-0.0613,
6.581212,-0.3474,0.6193,0.1478,0.8444,-2.5235,-0.6205,-0.3276,-0.0128,-0.0613,
6.583073,-0.3474,0.6193,0.1478,0.8444,-2.5235,-0.6205,-0.0458,-0.2152,-0.0570,
6.599089,-0.3474,0.6193,0.1478,0.8444,-2.5235,-0.6205,0.1763,-0.2951,-0.0101,
6.618692,-0.4195,0.7613,0.1043,0.8444,-2.5235,-0.6205,0.1763,-0.2951,-0.0101,
6.620258,-0.4195,0.7613,0.1043,0.1284,-1.1322,-1.0676,0.1763,-0.2951,-0.0101,
6.621308,-0.4195,0.7613,0.1043,0.1284,-1.1322,-1.0676,0.2796,-0.2605,0.1113,
6.639277,-0.4195,0.7613,0.1043,0.1284,-1.1322,-1.0676,0.1561,0.0804,0.2477,
6.658734,-0.5612,0.8673,0.0474,0.1284,-1.1322,-1.0676,0.1561,0.0804,0.2477,
6.660934,-0.5612,0.8673,0.0474,-1.3296,-0.1412,-1.5658,0.1561,0.0804,0.2477,
6.662907,-0.5612,0.8673,0.0474,-1.3296,-0.1412,-1.5658,-0.1880,0.5332,0.3489,
6.679259,-0.5612,0.8673,0.0474,-1.3296,-0.1412,-1.5658,-0.5406,0.8053,0.3856,
6.698914,-0.6425,1.0503,0.2216,-1.3296,-0.1412,-1.5658,-0.5406,0.8053,0.3856,
6.702801,-0.6425,1.0503,0.2216,-2.1782,1.6276,0.1406,-0.5406,0.8053,0.3856,
6.704546,-0.6425,1.0503,0.2216,-2.1782,1.6276,0.1406,-0.5992,0.7952,0.4261,
6.719036,-0.6425,1.0503,0.2216,-2.1782,1.6276,0.1406,-0.2764,0.6812,0.4820,
6.738964,-0.6599,1.2386,0.2785,-2.1782,1.6276,0.1406,-0.2764,0.6812,0.4820,
6.743204,-0.6599,1.2386,0.2785,-2.4449,3.4357,0.6668,-0.2764,0.6812,0.4820,
6.744975,-0.6599,1.2386,0.2785,-2.4449,3.4357,0.6668,0.2615,0.6285,0.5172,
6.758561,-0.6599,1.2386,0.2785,-2.4449,3.4357,0.6668,0.7665,0.5678,0.5257,
6.778017,-0.6164,1.3835,0.2553,-2.4449,3.4357,0.6668,0.7665,0.5678,0.5257,
6.780612,-0.6164,1.3835,0.2553,-2.1546,4.7338,0.7140,0.7665,0.5678,0.5257,
6.782104,-0.6164,1.3835,0.2553,-2.1546,4.7338,0.7140,1.0456,0.2546,0.5337,
6.797953,-0.6164,1.3835,0.2553,-2.1546,4.7338,0.7140,1.0445,-0.3057,0.3920,
6.819085,-0.3540,1.1763,0.3318,-2.1546,4.7338,0.7140,1.0445,-0.3057,0.3920,
6.821251,-0.3540,1.1763,0.3318,0.2517,2.5666,1.8314,1.0445,-0.3057,0.3920,
6.822827,-0.3540,1.1763,0.3318,0.2517,2.5666,1.8314,1.0381,-0.7617,0.3132,
6.839106,-0.3540,1.1763,0.3318,0.2517,2.5666,1.8314,0.9252,-0.9188,0.2285,
6.857989,-0.1253,0.8216,0.2646,0.2517,2.5666,1.8314,0.9252,-0.9188,0.2285,
6.860978,-0.1253,0.8216,0.2646,2.3519,-1.0003,1.4039,0.9252,-0.9188,0.2285,
6.863184,-0.1253,0.8216,0.2646,2.3519,-1.0003,1.4039,0.5816,-0.8911,0.1917,
6.877967,-0.1253,0.8216,0.2646,2.3519,-1.0003,1.4039,0.1358,-0.7787,0.2365,
6.898155,-0.0963,0.8707,0.2125,2.3519,-1.0003,1.4039,0.1358,-0.7787,0.2365,
6.900861,-0.0963,0.8707,0.2125,2.4815,-0.5754,0.8665,0.1358,-0.7787,0.2365,
6.902564,-0.0963,0.8707,0.2125,2.4815,-0.5754,0.8665,-0.2104,-0.6328,0.2535,
6.918150,-0.0963,0.8707,0.2125,2.4815,-0.5754,0.8665,-0.4144,-0.3382,0.2392,
6.938753,-0.2590,0.9203,0.1402,2.4815,-0.5754,0.8665,-0.4144,-0.3382,0.2392,
6.940892,-0.2590,0.9203,0.1402,0.7394,-0.1146,-0.0430,-0.4144,-0.3382,0.2392,
6.942765,-0.2590,0.9203,0.1402,0.7394,-0.1146,-0.0430,-0.4746,-0.0320,0.2312,
6.958331,-0.2590,0.9203,0.1402,0.7394,-0.1146,-0.0430,-0.3712,0.1257,0.2908,
6.978326,-0.2844,0.8622,0.1182,0.7394,-0.1146,-0.0430,-0.3712,0.1257,0.2908,
6.980783,-0.2844,0.8622,0.1182,0.3861,-0.6965,-0.4097,-0.3712,0.1257,0.2908,
6.982653,-0.2844,0.8622,0.1182,0.3861,-0.6965,-0.4097,-0.1784,0.0383,0.3041,
6.998003,-0.2844,0.8622,0.1182,0.3861,-0.6965,-0.4097,0.0304,-0.1230,0.1923,
7.018574,-0.3210,0.8240,0.0840,0.3861,-0.6965,-0.4097,0.0304,-0.1230,0.1923,
7.021158,-0.3210,0.8240,0.0840,-0.0668,-1.0967,-0.7755,0.0304,-0.1230,0.1923,
7.023186,-0.3210,0.8240,0.0840,-0.0668,-1.0967,-0.7755,0.3435,-0.1225,0.0463,
7.040302,-0.3210,0.8240,0.0840,-0.0668,-1.0967,-0.7755,0.6621,-0.0101,-0.0144,
7.058195,-0.4984,0.9333,0.0518,-0.0668,-1.0967,-0.7755,0.6621,-0.0101,-0.0144,
7.060662,-0.4984,0.9333,0.0518,-1.7921,-0.0534,-0.9009,0.6621,-0.0101,-0.0144,
7.062570,-0.4984,0.9333,0.0518,-1.7921,-0.0534,-0.9009,1.1441,0.4282,-0.4389,
7.077645,-0.4984,0.9333,0.0518,-1.7921,-0.0534,-0.9009,1.2107,0.1651,-0.8005,
7.097808,-0.3735,0.6745,-0.0818,-1.7921,-0.0534,-0.9009,1.2107,0.1651,-0.8005,
7.100390,-0.3735,0.6745,-0.0818,-0.3268,-2.5642,-1.7409,1.2107,0.1651,-0.8005,
7.102376,-0.3735,0.6745,-0.0818,-0.3268,-2.5642,-1.7409,0.8325,-0.4522,-0.7835,
7.118298,-0.3735,0.6745,-0.0818,-0.3268,-2.5642,-1.7409,0.4155,-0.7798,-0.5278,
7.137835,-0.1893,0.5096,-0.0963,-0.3268,-2.5642,-1.7409,0.4155,-0.7798,-0.5278,
7.140302,-0.1893,0.5096,-0.0963,1.6973,-4.1114,-1.7397,0.4155,-0.7798,-0.5278,
7.142069,-0.1893,0.5096,-0.0963,1.6973,-4.1114,-1.7397,0.0288,-0.8522,-0.1779,
7.157851,-0.1893,0.5096,-0.0963,1.6973,-4.1114,-1.7397,-0.1257,-0.5065,0.2024,
7.179055,-0.1810,0.7200,-0.0513,1.6973,-4.1114,-1.7397,-0.1257,-0.5065,0.2024,
7.182691,-0.1810,0.7200,-0.0513,1.7514,-2.0499,-1.4132,-0.1257,-0.5065,0.2024,
7.184592,-0.1810,0.7200,-0.0513,1.7514,-2.0499,-1.4132,-0.1939,-0.1667,0.2866,
7.197686,-0.1810,0.7200,-0.0513,1.7514,-2.0499,-1.4132,-0.2482,-0.0698,0.1028,
7.217855,-0.2700,0.8763,-0.0379,1.7514,-2.0499,-1.4132,-0.2482,-0.0698,0.1028,
7.220725,-0.2700,0.8763,-0.0379,0.8045,-0.5363,-1.3786,-0.2482,-0.0698,0.1028,
7.222744,-0.2700,0.8763,-0.0379,0.8045,-0.5363,-1.3786,-0.2525,-0.0985,-0.1092,
7.237368,-0.2700,0.8763,-0.0379,0.8045,-0.5363,-1.3786,-0.2684,-0.1300,-0.1619,
7.257959,-0.3669,0.9482,-0.0936,0.8045,-0.5363,-1.3786,-0.2684,-0.1300,-0.1619,
7.260425,-0.3669,0.9482,-0.0936,-0.1017,0.1972,-2.0332,-0.2684,-0.1300,-0.1619,
7.262094,-0.3669,0.9482,-0.0936,-0.1017,0.1972,-2.0332,-0.2807,0.1257,-0.3633,
7.277780,-0.3669,0.9482,-0.0936,-0.1017,0.1972,-2.0332,-0.3206,0.2525,-0.7148,
7.298206,-0.6249,0.9736,-0.1087,-0.1017,0.1972,-2.0332,-0.3206,0.2525,-0.7148,
7.300370,-0.6249,0.9736,-0.1087,-2.4008,0.5386,-2.1896,-0.3206,0.2525,-0.7148,
7.302124,-0.6249,0.9736,-0.1087,-2.4008,0.5386,-2.1896,-0.3638,0.2977,-0.9081,
7.317355,-0.6249,0.9736,-0.1087,-2.4008,0.5386,-2.1896,-0.4687,0.0565,-0.5683,
7.337336,-0.9005,1.5577,0.2201,-2.4008,0.5386,-2.1896,-0.4687,0.0565,-0.5683,
7.340345,-0.9005,1.5577,0.2201,-4.8297,6.3966,0.9117,-0.4687,0.0565,-0.5683,
7.342105,-0.9005,1.5577,0.2201,-4.8297,6.3966,0.9117,-0.2232,-0.5188,-0.0900,
7.358280,-0.9005,1.5577,0.2201,-4.8297,6.3966,0.9117,-0.3254,-2.5007,0.3180,
7.376863,-0.3484,1.4475,0.0173,-4.8297,6.3966,0.9117,-0.3254,-2.5007,0.3180,
7.378928,-0.3484,1.4475,0.0173,0.4548,5.3142,-1.4106,-0.3254,-2.5007,0.3180,
7.380555,-0.3484,1.4475,0.0173,0.4548,5.3142,-1.4106,-1.3273,-3.6523,0.3787,
7.397353,-0.3484,1.4475,0.0173,0.4548,5.3142,-1.4106,-1.3976,-1.4109,0.2567,
7.416994,-0.0762,0.8758,0.5126,0.4548,5.3142,-1.4106,-1.3976,-1.4109,0.2567,
7.419479,-0.0762,0.8758,0.5126,2.8120,-0.2234,2.5844,-1.3976,-1.4109,0.2567,
7.421210,-0.0762,0.8758,0.5126,2.8120,-0.2234,2.5844,-0.9795,-0.1427,0.3755,
7.438773,-0.0762,0.8758,0.5126,2.8120,-0.2234,2.5844,-0.5033,0.4224,0.2626,
7.457444,-0.1796,0.6753,0.4827,2.8120,-0.2234,2.5844,-0.5033,0.4224,0.2626,
7.459790,-0.1796,0.6753,0.4827,1.6740,-2.1627,2.0316,-0.5033,0.4224,0.2626,
7.461435,-0.1796,0.6753,0.4827,1.6740,-2.1627,2.0316,-0.1688,0.4874,0.2237,
7.477791,-0.1796,0.6753,0.4827,1.6740,-2.1627,2.0316,-0.0224,0.1193,0.3036,
7.497281,-0.3147,0.8477,0.3928,1.6740,-2.1627,2.0316,-0.0224,0.1193,0.3036,
7.500132,-0.3147,0.8477,0.3928,0.2683,-0.4960,1.1250,-0.0224,0.1193,0.3036,
7.501989,-0.3147,0.8477,0.3928,0.2683,-0.4960,1.1250,-0.0304,0.0218,0.4011,
7.516895,-0.3147,0.8477,0.3928,0.2683,-0.4960,1.1250,-0.0826,0.4485,0.3558,
7.537390,-0.3332,1.1162,0.3401,0.2683,-0.4960,1.1250,-0.0826,0.4485,0.3558,
7.539460,-0.3332,1.1162,0.3401,-0.0228,2.0915,0.6174,-0.0826,0.4485,0.3558,
7.541112,-0.3332,1.1162,0.3401,-0.0228,2.0915,0.6174,-0.0005,1.3774,0.1289,
7.557875,-0.3332,1.1162,0.3401,-0.0228,2.0915,0.6174,0.1790,2.1540,-0.1103,
7.577476,-0.3884,0.7644,0.1830,-0.0228,2.0915,0.6174,0.1790,2.1540,-0.1103,
7.581002,-0.3884,0.7644,0.1830,-0.3866,-1.3639,-0.6677,0.1790,2.1540,-0.1103,
7.583080,-0.3884,0.7644,0.1830,-0.3866,-1.3639,-0.6677,0.2844,2.2552,-0.2221,
7.597461,-0.3884,0.7644,0.1830,-0.3866,-1.3639,-0.6677,0.2344,1.8227,-0.3089,
7.617234,-0.4644,0.6095,-0.0247,-0.3866,-1.3639,-0.6677,0.2344,1.8227,-0.3089,
7.620613,-0.4644,0.6095,-0.0247,-0.8523,-2.8674,-2.3215,0.2344,1.8227,-0.3089,
7.623108,-0.4644,0.6095,-0.0247,-0.8523,-2.8674,-2.3215,-0.0660,1.0248,-0.3643,
7.637007,-0.4644,0.6095,-0.0247,-0.8523,-2.8674,-2.3215,-0.5172,0.2716,-0.3041,
7.658762,-0.4752,0.5753,0.0349,-0.8523,-2.8674,-2.3215,-0.5172,0.2716,-0.3041,
7.661061,-0.4752,0.5753,0.0349,-0.7871,-3.1281,-1.7422,-0.5172,0.2716,-0.3041,
7.662999,-0.4752,0.5753,0.0349,-0.7871,-3.1281,-1.7422,-0.8016,0.0282,-0.1992,
7.677074,-0.4752,0.5753,0.0349,-0.7871,-3.1281,-1.7422,-0.7675,0.1321,-0.1039,
7.697120,-0.3240,0.5643,0.1747,-0.7871,-3.1281,-1.7422,-0.7675,0.1321,-0.1039,
7.699855,-0.3240,0.5643,0.1747,0.7550,-3.1428,-0.6334,-0.7675,0.1321,-0.1039,
7.701482,-0.3240,0.5643,0.1747,0.7550,-3.1428,-0.6334,-0.5097,0.1337,-0.0959,
7.717221,-0.3240,0.5643,0.1747,0.7550,-3.1428,-0.6334,-0.1811,0.0011,-0.0730,
7.736743,-0.3078,0.6508,0.1673,0.7550,-3.1428,-0.6334,-0.1811,0.0011,-0.0730,
7.739830,-0.3078,0.6508,0.1673,0.9486,-2.2488,-0.8140,-0.1811,0.0011,-0.0730,
7.741540,-0.3078,0.6508,0.1673,0.9486,-2.2488,-0.8140,0.0927,-0.1417,-0.0064,
7.756691,-0.3078,0.6508,0.1673,0.9486,-2.2488,-0.8140,0.2423,-0.1135,0.1071,
7.777568,-0.4229,0.8101,0.1114,0.9486,-2.2488,-0.8140,0.2423,-0.1135,0.1071,
7.779872,-0.4229,0.8101,0.1114,-0.2089,-0.7121,-1.3246,0.2423,-0.1135,0.1071,
7.781772,-0.4229,0.8101,0.1114,-0.2089,-0.7121,-1.3246,0.1864,0.1987,0.2434,
7.796580,-0.4229,0.8101,0.1114,-0.2089,-0.7121,-1.3246,-0.1262,0.6381,0.3350,
7.816717,-0.5619,0.9071,0.1275,-0.2089,-0.7121,-1.3246,-0.1262,0.6381,0.3350,
7.819132,-0.5619,0.9071,0.1275,-1.6205,0.1926,-1.0804,-0.1262,0.6381,0.3350,
7.820869,-0.5619,0.9071,0.1275,-1.6205,0.1926,-1.0804,-0.5103,0.9374,0.3878,
7.838423,-0.5619,0.9071,0.1275,-1.6205,0.1926,-1.0804,-0.7095,1.0733,0.4447,
7.857227,-0.6689,1.0564,0.1827,-1.6205,0.1926,-1.0804,-0.7095,1.0733,0.4447,
7.859654,-0.6689,1.0564,0.1827,-2.7053,1.6519,-0.5854,-0.7095,1.0733,0.4447,
7.861367,-0.6689,1.0564,0.1827,-2.7053,1.6519,-0.5854,-0.6429,1.0834,0.5092,
7.876765,-0.6689,1.0564,0.1827,-2.7053,1.6519,-0.5854,-0.3995,1.0663,0.5454,
7.896663,-0.6762,1.1758,0.1886,-2.7053,1.6519,-0.5854,-0.3995,1.0663,0.5454,
7.898875,-0.6762,1.1758,0.1886,-2.8578,2.7922,-0.5456,-0.3995,1.0663,0.5454,
7.900601,-0.6762,1.1758,0.1886,-2.8578,2.7922,-0.5456,-0.0426,0.9950,0.5364,
7.917483,-0.6762,1.1758,0.1886,-2.8578,2.7922,-0.5456,0.3878,0.7989,0.5012,
7.935904,-0.6313,1.3307,0.2433,-2.8578,2.7922,-0.5456,0.3878,0.7989,0.5012,
7.937968,-0.6313,1.3307,0.2433,-2.5161,4.2175,0.1848,0.3878,0.7989,0.5012,
7.939114,-0.6313,1.3307,0.2433,-2.5161,4.2175,0.1848,0.7457,0.4453,0.4128,
7.956817,-0.6313,1.3307,0.2433,-2.5161,4.2175,0.1848,1.0461,-0.2823,0.3478,
7.976454,-0.4779,1.2047,0.3159,-2.5161,4.2175,0.1848,1.0461,-0.2823,0.3478,
7.978232,-0.4779,1.2047,0.3159,-1.1397,2.8548,1.2264,1.0461,-0.2823,0.3478,
7.979241,-0.4779,1.2047,0.3159,-1.1397,2.8548,1.2264,1.1606,-0.8107,0.3744,
7.996694,-0.4779,1.2047,0.3159,-1.1397,2.8548,1.2264,0.9007,-0.9321,0.3734,
8.016634,-0.2040,0.9012,0.2722,-1.1397,2.8548,1.2264,0.9007,-0.9321,0.3734,
8.019558,-0.2040,0.9012,0.2722,1.3495,-0.2418,1.0489,0.9007,-0.9321,0.3734,
8.021294,-0.2040,0.9012,0.2722,1.3495,-0.2418,1.0489,0.2711,-0.7792,0.3451,
8.040387,-0.2040,0.9012,0.2722,1.3495,-0.2418,1.0489,-0.2839,-0.7510,0.3329,
8.056929,-0.0965,0.9125,0.3892,1.3495,-0.2418,1.0489,-0.2839,-0.7510,0.3329,
8.059936,-0.0965,0.9125,0.3892,2.2237,-0.1753,2.0836,-0.2839,-0.7510,0.3329,
8.061770,-0.0965,0.9125,0.3892,2.2237,-0.1753,2.0836,-0.4618,-0.7420,0.3228,
8.076007,-0.0965,0.9125,0.3892,2.2237,-0.1753,2.0836,-0.3910,-0.3739,0.2338,
8.097020,-0.2067,0.9816,0.3020,2.2237,-0.1753,2.0836,-0.3910,-0.3739,0.2338,
8.100264,-0.2067,0.9816,0.3020,0.9909,0.4985,0.9915,-0.3910,-0.3739,0.2338,
8.101697,-0.2067,0.9816,0.3020,0.9909,0.4985,0.9915,-0.1880,0.2477,0.1470,
8.116136,-0.2067,0.9816,0.3020,0.9909,0.4985,0.9915,0.0570,0.5108,0.1092,
8.137521,-0.2814,0.9230,0.1786,0.9909,0.4985,0.9915,0.0570,0.5108,0.1092,
8.141038,-0.2814,0.9230,0.1786,0.2266,-0.0882,-0.2100,0.0570,0.5108,0.1092,
8.143369,-0.2814,0.9230,0.1786,0.2266,-0.0882,-0.2100,0.2716,0.3792,0.0932,
8.157602,-0.2814,0.9230,0.1786,0.2266,-0.0882,-0.2100,0.5545,0.4501,0.0293,
8.177134,-0.3408,0.9152,0.1036,0.2266,-0.0882,-0.2100,0.5545,0.4501,0.0293,
8.179549,-0.3408,0.9152,0.1036,-0.3485,-0.2030,-0.7459,0.5545,0.4501,0.0293,
8.181501,-0.3408,0.9152,0.1036,-0.3485,-0.2030,-0.7459,0.9518,0.7436,-0.1044,
8.196849,-0.3408,0.9152,0.1036,-0.3485,-0.2030,-0.7459,1.5153,1.2176,-0.4432,
8.218840,-0.4134,0.8732,-0.0388,-0.3485,-0.2030,-0.7459,1.5153,1.2176,-0.4432,
8.221788,-0.4134,0.8732,-0.0388,-0.8914,-0.6516,-1.5600,1.5153,1.2176,-0.4432,
8.223849,-0.4134,0.8732,-0.0388,-0.8914,-0.6516,-1.5600,1.7731,1.2048,-0.7180,
8.236134,-0.4134,0.8732,-0.0388,-0.8914,-0.6516,-1.5600,1.3923,0.3904,-0.7265,
8.256476,-0.2577,0.6376,-0.1449,-0.8914,-0.6516,-1.5600,1.3923,0.3904,-0.7265,
8.259080,-0.2577,0.6376,-0.1449,0.9274,-2.9164,-1.9137,1.3923,0.3904,-0.7265,
8.260878,-0.2577,0.6376,-0.1449,0.9274,-2.9164,-1.9137,0.7974,-0.3036,-0.5209,
8.276483,-0.2577,0.6376,-0.1449,0.9274,-2.9164,-1.9137,0.2493,-0.5044,-0.2067,
8.296699,-0.2128,0.5812,-0.0814,0.9274,-2.9164,-1.9137,0.2493,-0.5044,-0.2067,
8.299225,-0.2128,0.5812,-0.0814,1.4944,-3.4270,-1.1572,0.2493,-0.5044,-0.2067,
8.300997,-0.2128,0.5812,-0.0814,1.4944,-3.4270,-1.1572,-0.0996,-0.3238,0.0772,
8.317510,-0.2128,0.5812,-0.0814,1.4944,-3.4270,-1.1572,-0.2455,-0.0405,0.2003,
8.336564,-0.2565,0.7161,0.0151,1.4944,-3.4270,-1.1572,-0.2455,-0.0405,0.2003,
8.338881,-0.2565,0.7161,0.0151,1.0125,-2.1223,-0.3004,-0.2455,-0.0405,0.2003,
8.340730,-0.2565,0.7161,0.0151,1.0125,-2.1223,-0.3004,-0.2653,0.1033,0.2844,
8.356538,-0.2565,0.7161,0.0151,1.0125,-2.1223,-0.3004,-0.1694,0.0804,0.3451,
8.375997,-0.1957,0.8988,-0.0117,1.0125,-2.1223,-0.3004,-0.1694,0.0804,0.3451,
8.378219,-0.1957,0.8988,-0.0117,1.4953,-0.3708,-0.6304,-0.1694,0.0804,0.3451,
8.380067,-0.1957,0.8988,-0.0117,1.4953,-0.3708,-0.6304,-0.0676,0.0426,0.3276,
8.397708,-0.1957,0.8988,-0.0117,1.4953,-0.3708,-0.6304,-0.0730,0.2956,-0.0618,
8.416076,-0.3843,0.9096,-0.1884,1.4953,-0.3708,-0.6304,-0.0730,0.2956,-0.0618,
8.419081,-0.3843,0.9096,-0.1884,-0.3982,-0.2820,-2.3645,-0.0730,0.2956,-0.0618,
8.421381,-0.3843,0.9096,-0.1884,-0.3982,-0.2820,-2.3645,-0.1790,0.7899,-0.7036,
8.438985,-0.3843,0.9096,-0.1884,-0.3982,-0.2820,-2.3645,-0.3228,0.9497,-0.8064,
8.456317,-0.3899,1.1631,-0.0518,-0.3982,-0.2820,-2.3645,-0.3228,0.9497,-0.8064,
8.458780,-0.3899,1.1631,-0.0518,-0.1712,2.3083,-0.9664,-0.3228,0.9497,-0.8064,
8.460681,-0.3899,1.1631,-0.0518,-0.1712,2.3083,-0.9664,-0.3995,0.4107,-0.5204,
8.475958,-0.3899,1.1631,-0.0518,-0.1712,2.3083,-0.9664,-0.5444,-1.2890,-0.0517,
8.495833,-0.6508,1.7314,0.0594,-0.1712,2.3083,-0.9664,-0.5444,-1.2890,-0.0517,
8.499481,-0.6508,1.7314,0.0594,-2.6361,7.9298,-0.1136,-0.5444,-1.2890,-0.0517,
8.501222,-0.6508,1.7314,0.0594,-2.6361,7.9298,-0.1136,-0.8203,-3.2480,0.3366,
8.515631,-0.6508,1.7314,0.0594,-2.6361,7.9298,-0.1136,-1.3779,-3.6778,0.1497,
8.535970,-0.3904,0.8355,0.2917,-2.6361,7.9298,-0.1136,-1.3779,-3.6778,0.1497,
8.538425,-0.3904,0.8355,0.2917,-0.3277,-0.8338,1.2660,-1.3779,-3.6778,0.1497,
8.540517,-0.3904,0.8355,0.2917,-0.3277,-0.8338,1.2660,-1.7763,-2.6909,0.1896,
8.556920,-0.3904,0.8355,0.2917,-0.3277,-0.8338,1.2660,-1.7390,-1.4754,0.5625,
8.575742,-0.1842,0.6804,0.4937,-0.3277,-0.8338,1.2660,-1.7390,-1.4754,0.5625,
8.578767,-0.1842,0.6804,0.4937,1.3911,-2.2579,2.3316,-1.7390,-1.4754,0.5625,
8.580783,-0.1842,0.6804,0.4937,1.3911,-2.2579,2.3316,-1.4871,-0.8842,0.5822,
8.595545,-0.1842,0.6804,0.4937,1.3911,-2.2579,2.3316,-1.0195,-0.6125,0.4810,
8.615780,-0.2900,0.9560,0.5507,1.3911,-2.2579,2.3316,-1.0195,-0.6125,0.4810,
8.618011,-0.2900,0.9560,0.5507,0.0820,0.5198,2.3435,-1.0195,-0.6125,0.4810,
8.619300,-0.2900,0.9560,0.5507,0.0820,0.5198,2.3435,-0.6093,-0.3340,0.3776,
8.637472,-0.2900,0.9560,0.5507,0.0820,0.5198,2.3435,-0.3116,0.6179,0.1672,
8.655852,-0.4273,1.1050,0.4444,0.0820,0.5198,2.3435,-0.3116,0.6179,0.1672,
8.658268,-0.4273,1.1050,0.4444,-1.3412,2.0068,1.1552,-0.3116,0.6179,0.1672,
8.659979,-0.4273,1.1050,0.4444,-1.3412,2.0068,1.1552,0.0804,2.0165,-0.0501,
8.675051,-0.4273,1.1050,0.4444,-1.3412,2.0068,1.1552,0.3398,2.6040,-0.1577,
8.695242,-0.3762,0.6240,0.1781,-1.3412,2.0068,1.1552,0.3398,2.6040,-0.1577,
8.697733,-0.3762,0.6240,0.1781,-0.5082,-2.7112,-1.1126,0.3398,2.6040,-0.1577,
8.699497,-0.3762,0.6240,0.1781,-0.5082,-2.7112,-1.1126,0.3910,2.3212,-0.1923,
8.715326,-0.3762,0.6240,0.1781,-0.5082,-2.7112,-1.1126,0.2956,1.6538,-0.3691,
8.735443,-0.3924,0.5375,-0.0039,-0.5082,-2.7112,-1.1126,0.2956,1.6538,-0.3691,
8.737818,-0.3924,0.5375,-0.0039,-0.3554,-3.5575,-2.5113,0.2956,1.6538,-0.3691,
8.739348,-0.3924,0.5375,-0.0039,-0.3554,-3.5575,-2.5113,0.1135,1.0504,-0.5246,
8.755060,-0.3924,0.5375,-0.0039,-0.3554,-3.5575,-2.5113,-0.2770,0.6067,-0.5033,
8.775901,-0.4512,0.5306,-0.0291,-0.3554,-3.5575,-2.5113,-0.2770,0.6067,-0.5033,
8.778385,-0.4512,0.5306,-0.0291,-0.6723,-3.5425,-2.6671,-0.2770,0.6067,-0.5033,
8.780408,-0.4512,0.5306,-0.0291,-0.6723,-3.5425,-2.6671,-0.7047,0.3228,-0.3190,
8.795771,-0.4512,0.5306,-0.0291,-0.6723,-3.5425,-2.6671,-0.8096,0.1651,-0.1518,
8.815568,-0.2917,0.5526,0.1693,-0.6723,-3.5425,-2.6671,-0.8096,0.1651,-0.1518,
8.817961,-0.2917,0.5526,0.1693,0.9969,-3.2160,-0.9484,-0.8096,0.1651,-0.1518,
8.819892,-0.2917,0.5526,0.1693,0.9969,-3.2160,-0.9484,-0.5811,0.0511,-0.0570,
8.837895,-0.2917,0.5526,0.1693,0.9969,-3.2160,-0.9484,-0.2013,-0.0208,-0.0202,
8.855636,-0.3159,0.7561,0.2968,0.9969,-3.2160,-0.9484,-0.2013,-0.0208,-0.0202,
8.858930,-0.3159,0.7561,0.2968,0.7748,-1.1738,0.1691,-0.2013,-0.0208,-0.0202,
8.861020,-0.3159,0.7561,0.2968,0.7748,-1.1738,0.1691,0.1965,-0.1342,0.0389,
8.875157,-0.3159,0.7561,0.2968,0.7748,-1.1738,0.1691,0.5539,-0.3111,0.2035,
8.895338,-0.3887,0.9689,0.1791,0.7748,-1.1738,0.1691,0.5539,-0.3111,0.2035,
8.897469,-0.3887,0.9689,0.1791,-0.0043,0.8526,-0.8900,0.5539,-0.3111,0.2035,
8.899285,-0.3887,0.9689,0.1791,-0.0043,0.8526,-0.8900,0.5902,0.0021,0.3638,
8.915164,-0.3887,0.9689,0.1791,-0.0043,0.8526,-0.8900,0.1433,0.8027,0.4453,
8.935520,-0.6164,1.0627,0.0787,-0.0043,0.8526,-0.8900,0.1433,0.8027,0.4453,
8.937753,-0.6164,1.0627,0.0787,-2.3154,1.6745,-1.6584,0.1433,0.8027,0.4453,
8.939639,-0.6164,1.0627,0.0787,-2.3154,1.6745,-1.6584,-0.5033,1.3779,0.5017,
8.956320,-0.6164,1.0627,0.0787,-2.3154,1.6745,-1.6584,-0.8543,1.4008,0.5902,
8.974972,-0.7002,1.1228,0.2331,-2.3154,1.6745,-1.6584,-0.8543,1.4008,0.5902,
8.977324,-0.7002,1.1228,0.2331,-3.1925,2.2488,-0.1771,-0.8543,1.4008,0.5902,
8.979243,-0.7002,1.1228,0.2331,-3.1925,2.2488,-0.1771,-0.8133,1.1851,0.6626,
8.995462,-0.7002,1.1228,0.2331,-3.1925,2.2488,-0.1771,-0.3760,0.8112,0.6450,
9.014349,-0.6938,1.2618,0.3728,-3.1925,2.2488,-0.1771,-0.3760,0.8112,0.6450,
9.016899,-0.6938,1.2618,0.3728,-3.2594,3.5762,1.1282,-0.3760,0.8112,0.6450,
9.018299,-0.6938,1.2618,0.3728,-3.2594,3.5762,1.1282,0.3121,0.3862,0.6061,
9.035911,-0.6938,1.2618,0.3728,-3.2594,3.5762,1.1282,1.0551,-0.0469,0.5758,
9.054749,-0.5595,1.1949,0.2829,-3.2594,3.5762,1.1282,1.0551,-0.0469,0.5758,
9.057556,-0.5595,1.1949,0.2829,-2.1345,2.7739,0.5131,1.0551,-0.0469,0.5758,
9.059496,-0.5595,1.1949,0.2829,-2.1345,2.7739,0.5131,1.4360,-0.5167,0.4618,
9.074993,-0.5595,1.1949,0.2829,-2.1345,2.7739,0.5131,1.1553,-0.7031,0.4682,
9.095187,-0.2443,0.9225,0.2748,-2.1345,2.7739,0.5131,1.1553,-0.7031,0.4682,
9.098960,-0.2443,0.9225,0.2748,0.7368,-0.0626,0.8222,1.1553,-0.7031,0.4682,
9.100553,-0.2443,0.9225,0.2748,0.7368,-0.0626,0.8222,0.5188,-0.7281,0.3872,
9.116067,-0.2443,0.9225,0.2748,0.7368,-0.0626,0.8222,0.0634,-0.8932,0.2621,
9.135126,-0.0298,0.8284,0.3972,0.7368,-0.0626,0.8222,0.0634,-0.8932,0.2621,
9.137308,-0.0298,0.8284,0.3972,2.6512,-1.0427,2.0022,0.0634,-0.8932,0.2621,
9.139068,-0.0298,0.8284,0.3972,2.6512,-1.0427,2.0022,-0.1001,-1.0333,0.2067,
9.155050,-0.0298,0.8284,0.3972,2.6512,-1.0427,2.0022,-0.0682,-0.8384,0.1332,
9.175294,-0.0926,0.9631,0.2577,2.6512,-1.0427,2.0022,-0.0682,-0.8384,0.1332,
9.177547,-0.0926,0.9631,0.2577,1.8706,0.2603,0.4704,-0.0682,-0.8384,0.1332,
9.179202,-0.0926,0.9631,0.2577,1.8706,0.2603,0.4704,0.0101,-0.0943,0.0330,
9.194932,-0.0926,0.9631,0.2577,1.8706,0.2603,0.4704,0.0874,0.4645,0.0176,
9.215168,-0.2446,0.9963,0.1341,1.8706,0.2603,0.4704,0.0874,0.4645,0.0176,
9.218400,-0.2446,0.9963,0.1341,0.3650,0.5736,-0.7076,0.0874,0.4645,0.0176,
9.220318,-0.2446,0.9963,0.1341,0.3650,0.5736,-0.7076,0.1470,0.5396,0.0293,
9.238315,-0.2446,0.9963,0.1341,0.3650,0.5736,-0.7076,0.1641,0.2658,-0.0011,
9.254570,-0.2714,0.8756,0.0706,0.3650,0.5736,-0.7076,0.1641,0.2658,-0.0011,
9.256869,-0.2714,0.8756,0.0706,0.1168,-0.6283,-1.2191,0.1641,0.2658,-0.0011,
9.258756,-0.2714,0.8756,0.0706,0.1168,-0.6283,-1.2191,0.2834,0.1704,-0.0586,
9.274433,-0.2714,0.8756,0.0706,0.1168,-0.6283,-1.2191,0.5902,0.3702,-0.0932,
9.294464,-0.2441,0.8663,0.0469,0.1168,-0.6283,-1.2191,0.5902,0.3702,-0.0932,
9.296963,-0.2441,0.8663,0.0469,0.4273,-0.7457,-1.2511,0.5902,0.3702,-0.0932,
9.298822,-0.2441,0.8663,0.0469,0.4273,-0.7457,-1.2511,0.9832,0.6195,-0.1726,
9.315013,-0.2441,0.8663,0.0469,0.4273,-0.7457,-1.2511,1.2879,0.7760,-0.6525,
9.335559,-0.3880,0.7705,-0.0464,0.4273,-0.7457,-1.2511,1.2879,0.7760,-0.6525,
9.338374,-0.3880,0.7705,-0.0464,-0.7896,-1.7024,-1.6653,1.2879,0.7760,-0.6525,
9.340713,-0.3880,0.7705,-0.0464,-0.7896,-1.7024,-1.6653,1.1633,0.2892,-0.9460,
9.355196,-0.3880,0.7705,-0.0464,-0.7896,-1.7024,-1.6653,0.7521,-0.5268,-0.8938,
9.374831,-0.2827,0.6240,-0.0547,-0.7896,-1.7024,-1.6653,0.7521,-0.5268,-0.8938,
9.377202,-0.2827,0.6240,-0.0547,0.5773,-3.0613,-1.4106,0.7521,-0.5268,-0.8938,
9.378964,-0.2827,0.6240,-0.0547,0.5773,-3.0613,-1.4106,0.3542,-0.9220,-0.6498,
9.394282,-0.2827,0.6240,-0.0547,0.5773,-3.0613,-1.4106,0.0714,-0.9103,-0.2285,
9.414794,-0.2433,0.6679,-0.0249,0.5773,-3.0613,-1.4106,0.0714,-0.9103,-0.2285,
9.417235,-0.2433,0.6679,-0.0249,1.0910,-2.5779,-1.1663,0.0714,-0.9103,-0.2285,
9.419132,-0.2433,0.6679,-0.0249,1.0910,-2.5779,-1.1663,-0.1417,-0.5779,0.0756,
9.436659,-0.2433,0.6679,-0.0249,1.0910,-2.5779,-1.1663,-0.2402,-0.2013,0.1497,
9.454458,-0.2238,0.8888,0.0252,1.0910,-2.5779,-1.1663,-0.2402,-0.2013,0.1497,
9.456937,-0.2238,0.8888,0.0252,1.2263,-0.4214,-0.7988,-0.2402,-0.2013,0.1497,
9.458870,-0.2238,0.8888,0.0252,1.2263,-0.4214,-0.7988,-0.2392,-0.0117,0.1161,
9.474360,-0.2238,0.8888,0.0252,1.2263,-0.4214,-0.7988,-0.1246,-0.0293,0.0724,
9.494466,-0.2739,1.0051,-0.1129,1.2263,-0.4214,-0.7988,-0.1246,-0.0293,0.0724,
9.496902,-0.2739,1.0051,-0.1129,0.6957,0.7100,-2.2075,-0.1246,-0.0293,0.0724,
9.498718,-0.2739,1.0051,-0.1129,0.6957,0.7100,-2.2075,-0.1182,0.0112,-0.0810,
9.514080,-0.2739,1.0051,-0.1129,0.6957,0.7100,-2.2075,-0.2876,0.2956,-0.5950,
9.534527,-0.5643,0.9186,-0.1226,0.6957,0.7100,-2.2075,-0.2876,0.2956,-0.5950,
9.536944,-0.5643,0.9186,-0.1226,-2.0058,-0.0838,-2.2929,-0.2876,0.2956,-0.5950,
9.538885,-0.5643,0.9186,-0.1226,-2.0058,-0.0838,-2.2929,-0.3419,0.3553,-1.1649,
9.554417,-0.5643,0.9186,-0.1226,-2.0058,-0.0838,-2.2929,-0.3425,-0.0032,-0.5848,
9.574467,-0.8333,1.5702,0.1532,-2.0058,-0.0838,-2.2929,-0.3425,-0.0032,-0.5848,
9.576932,-0.8333,1.5702,0.1532,-4.3188,6.4459,0.3127,-0.3425,-0.0032,-0.5848,
9.578569,-0.8333,1.5702,0.1532,-4.3188,6.4459,0.3127,-0.0341,-0.8368,0.4288,
9.593827,-0.8333,1.5702,0.1532,-4.3188,6.4459,0.3127,-0.1252,-2.3031,0.7606,
9.613585,-0.0215,1.0989,0.0086,-4.3188,6.4459,0.3127,-0.1252,-2.3031,0.7606,
9.616361,-0.0215,1.0989,0.0086,3.3409,1.7437,-1.3648,-0.1252,-2.3031,0.7606,
9.618275,-0.0215,1.0989,0.0086,3.3409,1.7437,-1.3648,-1.0195,-3.8067,0.1023,
9.633423,-0.0215,1.0989,0.0086,3.3409,1.7437,-1.3648,-1.2469,-3.1894,-0.0117,
9.653461,-0.0586,0.8451,0.3247,3.3409,1.7437,-1.3648,-1.2469,-3.1894,-0.0117,
9.656214,-0.0586,0.8451,0.3247,2.6761,-0.6765,0.8675,-1.2469,-3.1894,-0.0117,
9.658101,-0.0586,0.8451,0.3247,2.6761,-0.6765,0.8675,-1.0328,-1.6565,0.4506,
9.674479,-0.0586,0.8451,0.3247,2.6761,-0.6765,0.8675,-0.7792,-0.3888,0.3798,
9.694334,-0.2682,0.8722,0.5712,2.6761,-0.6765,0.8675,-0.7792,-0.3888,0.3798,
9.697342,-0.2682,0.8722,0.5712,0.3537,-0.3731,2.8224,-0.7792,-0.3888,0.3798,
9.699392,-0.2682,0.8722,0.5712,0.3537,-0.3731,2.8224,-0.3419,0.2141,0.3819,
9.713711,-0.2682,0.8722,0.5712,0.3537,-0.3731,2.8224,0.1332,0.4384,0.4085,
9.733794,-0.3220,1.0180,0.4884,0.3537,-0.3731,2.8224,0.1332,0.4384,0.4085,
9.737571,-0.3220,1.0180,0.4884,-0.2784,1.0220,2.0099,0.1332,0.4384,0.4085,
9.739488,-0.3220,1.0180,0.4884,-0.2784,1.0220,2.0099,0.5129,0.8874,0.2647,
9.756332,-0.3220,1.0180,0.4884,-0.2784,1.0220,2.0099,0.6812,1.3433,-0.0453,
9.774354,-0.4202,0.8502,0.2741,-0.2784,1.0220,2.0099,0.6812,1.3433,-0.0453,
9.776580,-0.4202,0.8502,0.2741,-1.1590,-0.6908,0.2354,0.6812,1.3433,-0.0453,
9.778279,-0.4202,0.8502,0.2741,-1.1590,-0.6908,0.2354,0.6056,1.5303,-0.3057,
9.793533,-0.4202,0.8502,0.2741,-1.1590,-0.6908,0.2354,0.4368,1.2719,-0.3760,
9.814354,-0.3733,0.5910,0.0992,-1.1590,-0.6908,0.2354,0.4368,1.2719,-0.3760,
9.816751,-0.3733,0.5910,0.0992,-0.4496,-3.2363,-1.1188,0.4368,1.2719,-0.3760,
9.818712,-0.3733,0.5910,0.0992,-0.4496,-3.2363,-1.1188,0.2003,0.7436,-0.4096,
9.834330,-0.3733,0.5910,0.0992,-0.4496,-3.2363,-1.1188,-0.1033,0.2546,-0.4032,
9.853408,-0.3770,0.5414,0.0222,-0.4496,-3.2363,-1.1188,-0.1033,0.2546,-0.4032,
9.856260,-0.3770,0.5414,0.0222,-0.2988,-3.6727,-1.7900,-0.1033,0.2546,-0.4032,
9.858172,-0.3770,0.5414,0.0222,-0.2988,-3.6727,-1.7900,-0.4565,-0.1135,-0.3451,
9.873770,-0.3770,0.5414,0.0222,-0.2988,-3.6727,-1.7900,-0.6770,-0.2770,-0.2173,
9.893432,-0.3095,0.6303,0.1549,-0.2988,-3.6727,-1.7900,-0.6770,-0.2770,-0.2173,
9.897259,-0.3095,0.6303,0.1549,0.4458,-2.7146,-0.7190,-0.6770,-0.2770,-0.2173,
9.898780,-0.3095,0.6303,0.1549,0.4458,-2.7146,-0.7190,-0.6104,-0.3286,-0.0937,
9.913763,-0.3095,0.6303,0.1549,0.4458,-2.7146,-0.7190,-0.3388,-0.3526,-0.0708,
9.934020,-0.3054,0.7569,0.1627,0.4458,-2.7146,-0.7190,-0.3388,-0.3526,-0.0708,
9.936311,-0.3054,0.7569,0.1627,0.4836,-1.4186,-0.8577,-0.3388,-0.3526,-0.0708,
9.937966,-0.3054,0.7569,0.1627,0.4836,-1.4186,-0.8577,-0.0575,-0.3398,-0.0980,
9.953466,-0.3054,0.7569,0.1627,0.4836,-1.4186,-0.8577,0.1758,-0.2988,-0.0629,
9.974159,-0.4283,0.9010,0.0161,0.4836,-1.4186,-0.8577,0.1758,-0.2988,-0.0629,
9.978490,-0.4283,0.9010,0.0161,-0.7239,-0.0007,-2.3177,0.1758,-0.2988,-0.0629,
9.981016,-0.4283,0.9010,0.0161,-0.7239,-0.0007,-2.3177,0.2647,-0.1854,0.0138,
9.993139,-0.4283,0.9010,0.0161,-0.7239,-0.0007,-2.3177,0.1385,0.0075,0.1364,
10.014034,-0.5883,0.9990,-0.0166,-0.7239,-0.0007,-2.3177,0.1385,0.0075,0.1364,
10.018079,-0.5883,0.9990,-0.0166,-2.2814,0.9282,-2.5088,0.1385,0.0075,0.1364,
10.020288,-0.5883,0.9990,-0.0166,-2.2814,0.9282,-2.5088,-0.1593,0.3015,0.2658,
10.038150,-0.5883,0.9990,-0.0166,-2.2814,0.9282,-2.5088,-0.4027,0.4975,0.3574,
10.053235,-0.6000,1.0092,0.2160,-2.2814,0.9282,-2.5088,-0.4027,0.4975,0.3574,
10.056218,-0.6000,1.0092,0.2160,-2.4556,1.0144,-0.2621,-0.4027,0.4975,0.3574,
10.058225,-0.6000,1.0092,0.2160,-2.4556,1.0144,-0.2621,-0.2663,0.4032,0.4112,
10.073503,-0.6000,1.0092,0.2160,-2.4556,1.0144,-0.2621,0.2748,0.1875,0.4304,
10.093350,-0.5424,1.2369,0.3997,-2.4556,1.0144,-0.2621,0.2748,0.1875,0.4304,
10.095752,-0.5424,1.2369,0.3997,-2.0120,3.1889,1.5799,0.2748,0.1875,0.4304,
10.097392,-0.5424,1.2369,0.3997,-2.0120,3.1889,1.5799,1.0525,-0.1641,0.4000,
10.113008,-0.5424,1.2369,0.3997,-2.0120,3.1889,1.5799,1.8365,-0.5779,0.4144,
10.133080,-0.4693,1.3127,0.1986,-2.0120,3.1889,1.5799,1.8365,-0.5779,0.4144,
10.135393,-0.4693,1.3127,0.1986,-1.4732,3.7578,0.0825,1.8365,-0.5779,0.4144,
10.137037,-0.4693,1.3127,0.1986,-1.4732,3.7578,0.0825,2.1098,-0.8048,0.3787,
10.152980,-0.4693,1.3127,0.1986,-1.4732,3.7578,0.0825,1.4669,-0.7276,0.3057,
10.173129,-0.1989,1.1605,0.2067,-1.4732,3.7578,0.0825,1.4669,-0.7276,0.3057,
10.175289,-0.1989,1.1605,0.2067,1.0038,2.1119,0.7243,1.4669,-0.7276,0.3057,
10.176815,-0.1989,1.1605,0.2067,1.0038,2.1119,0.7243,0.3574,-0.8304,0.3361,
10.192674,-0.1989,1.1605,0.2067,1.0038,2.1119,0.7243,-0.3127,-0.9779,0.2924,
10.212696,0.0046,0.9892,0.3608,1.0038,2.1119,0.7243,-0.3127,-0.9779,0.2924,
10.215092,0.0046,0.9892,0.3608,2.8342,0.3966,2.1398,-0.3127,-0.9779,0.2924,
10.216548,0.0046,0.9892,0.3608,2.8342,0.3966,2.1398,-0.5912,-0.8288,0.1981,
10.232728,0.0046,0.9892,0.3608,2.8342,0.3966,2.1398,-0.5225,-0.6722,0.0304,
10.252937,-0.0310,0.9765,0.2629,2.8342,0.3966,2.1398,-0.5225,-0.6722,0.0304,
10.255462,-0.0310,0.9765,0.2629,2.3867,0.2920,0.8860,-0.5225,-0.6722,0.0304,
10.257245,-0.0310,0.9765,0.2629,2.3867,0.2920,0.8860,-0.2871,-0.4655,-0.0842,
10.273429,-0.0310,0.9765,0.2629,2.3867,0.2920,0.8860,-0.0655,-0.2674,-0.0368,
10.293466,-0.1815,1.0232,0.0787,2.3867,0.2920,0.8860,-0.0655,-0.2674,-0.0368,
10.295653,-0.1815,1.0232,0.0787,0.8894,0.7624,-1.0232,-0.0655,-0.2674,-0.0368,
10.297392,-0.1815,1.0232,0.0787,0.8894,0.7624,-1.0232,0.1507,-0.0554,0.1220,
10.312910,-0.1815,1.0232,0.0787,0.8894,0.7624,-1.0232,0.3148,-0.0197,0.1907,
10.333114,-0.1884,0.9315,0.0022,0.8894,0.7624,-1.0232,0.3148,-0.0197,0.1907,
10.336793,-0.1884,0.9315,0.0022,0.7274,-0.1821,-1.6669,0.3148,-0.0197,0.1907,
10.338925,-0.1884,0.9315,0.0022,0.7274,-0.1821,-1.6669,0.4895,-0.1603,0.1523,
10.352971,-0.1884,0.9315,0.0022,0.7274,-0.1821,-1.6669,0.7089,-0.4107,0.0714,
10.373440,-0.2419,0.8167,-0.0332,0.7274,-0.1821,-1.6669,0.7089,-0.4107,0.0714,
10.375828,-0.2419,0.8167,-0.0332,0.1373,-1.3607,-1.8047,0.7089,-0.4107,0.0714,
10.377664,-0.2419,0.8167,-0.0332,0.1373,-1.3607,-1.8047,0.8954,-0.6147,0.0463,
10.392490,-0.2419,0.8167,-0.0332,0.1373,-1.3607,-1.8047,1.1739,-0.3925,-0.1401,
10.413261,-0.4637,0.8832,-0.0269,0.1373,-1.3607,-1.8047,1.1739,-0.3925,-0.1401,
10.416698,-0.4637,0.8832,-0.0269,-2.0301,-0.7574,-1.3837,1.1739,-0.3925,-0.1401,
10.418767,-0.4637,0.8832,-0.0269,-2.0301,-0.7574,-1.3837,1.4392,-0.1065,-1.0136,
10.433428,-0.4637,0.8832,-0.0269,-2.0301,-0.7574,-1.3837,1.1111,-0.8234,-1.3790,
10.453447,-0.3283,0.5282,-0.0630,-2.0301,-0.7574,-1.3837,1.1111,-0.8234,-1.3790,
10.455767,-0.3283,0.5282,-0.0630,-0.2708,-4.1513,-1.3125,1.1111,-0.8234,-1.3790,
10.457811,-0.3283,0.5282,-0.0630,-0.2708,-4.1513,-1.3125,0.4623,-1.8621,-1.0951,
10.473218,-0.3283,0.5282,-0.0630,-0.2708,-4.1513,-1.3125,0.0107,-2.2205,-0.4975,
10.492183,-0.2399,0.4837,-0.0403,-0.2708,-4.1513,-1.3125,0.0107,-2.2205,-0.4975,
10.495274,-0.2399,0.4837,-0.0403,0.8299,-4.4960,-1.2546,0.0107,-2.2205,-0.4975,
10.496968,-0.2399,0.4837,-0.0403,0.8299,-4.4960,-1.2546,-0.2344,-1.7928,0.0810,
10.512002,-0.2399,0.4837,-0.0403,0.8299,-4.4960,-1.2546,-0.4373,-1.1484,0.4469,
10.533032,-0.1908,0.6157,0.0024,0.8299,-4.4960,-1.2546,-0.4373,-1.1484,0.4469,
10.535538,-0.1908,0.6157,0.0024,1.1552,-3.2218,-1.1431,-0.4373,-1.1484,0.4469,
10.537230,-0.1908,0.6157,0.0024,1.1552,-3.2218,-1.1431,-0.5827,-0.7228,0.5550,
10.552216,-0.1908,0.6157,0.0024,1.1552,-3.2218,-1.1431,-0.4858,-0.2253,0.4416,
10.572433,-0.2648,0.8514,-0.0388,1.1552,-3.2218,-1.1431,-0.4858,-0.2253,0.4416,
10.574778,-0.2648,0.8514,-0.0388,0.2210,-0.9417,-1.8012,-0.4858,-0.2253,0.4416,
10.576567,-0.2648,0.8514,-0.0388,0.2210,-0.9417,-1.8012,-0.3260,0.3744,0.1236,
10.592221,-0.2648,0.8514,-0.0388,0.2210,-0.9417,-1.8012,-0.3819,0.4895,-0.3467,
10.612609,-0.5152,0.9569,-0.3237,0.2210,-0.9417,-1.8012,-0.3819,0.4895,-0.3467,
10.617075,-0.5152,0.9569,-0.3237,-2.1619,0.1256,-4.6638,-0.3819,0.4895,-0.3467,
10.618869,-0.5152,0.9569,-0.3237,-2.1619,0.1256,-4.6638,-0.6408,0.8458,-0.6605,
10.632511,-0.5152,0.9569,-0.3237,-2.1619,0.1256,-4.6638,-0.9603,1.5105,-1.0812,
10.652092,-0.7696,1.0080,-0.3345,-2.1619,0.1256,-4.6638,-0.9603,1.5105,-1.0812,
10.655582,-0.7696,1.0080,-0.3345,-4.2500,0.7838,-4.8967,-0.9603,1.5105,-1.0812,
10.657810,-0.7696,1.0080,-0.3345,-4.2500,0.7838,-4.8967,-1.0147,2.0496,-1.3108,
10.672438,-0.7696,1.0080,-0.3345,-4.2500,0.7838,-4.8967,-0.9342,1.7678,-1.1292,
10.692647,-0.6232,1.0405,-0.2067,-4.2500,0.7838,-4.8967,-0.9342,1.7678,-1.1292,
10.694947,-0.6232,1.0405,-0.2067,-2.2519,1.3409,-3.7214,-0.9342,1.7678,-1.1292,
10.696796,-0.6232,1.0405,-0.2067,-2.2519,1.3409,-3.7214,-0.9172,0.6546,-1.1340,
10.711785,-0.6232,1.0405,-0.2067,-2.2519,1.3409,-3.7214,-0.4581,-0.9465,-1.0227,
10.731875,-0.8656,2.0080,0.3999,-2.2519,1.3409,-3.7214,-0.4581,-0.9465,-1.0227,
10.734807,-0.8656,2.0080,0.3999,-4.2632,11.0459,1.9562,-0.4581,-0.9465,-1.0227,
10.736433,-0.8656,2.0080,0.3999,-4.2632,11.0459,1.9562,0.6764,-2.8512,-0.2711,
10.752856,-0.8656,2.0080,0.3999,-4.2632,11.0459,1.9562,0.0639,-5.7769,-0.2663,
10.771845,0.1229,1.3469,0.1173,-4.2632,11.0459,1.9562,0.0639,-5.7769,-0.2663,
10.773828,0.1229,1.3469,0.1173,5.1342,4.5810,-1.3910,0.0639,-5.7769,-0.2663,
10.775041,0.1229,1.3469,0.1173,5.1342,4.5810,-1.3910,-0.3665,-4.6643,-0.6557,
10.792252,0.1229,1.3469,0.1173,5.1342,4.5810,-1.3910,-0.1598,-2.0251,-0.9705,
10.812654,-0.0476,1.0373,0.5624,5.1342,4.5810,-1.3910,-0.1598,-2.0251,-0.9705,
10.814902,-0.0476,1.0373,0.5624,3.3606,1.7016,2.3683,-0.1598,-2.0251,-0.9705,
10.816446,-0.0476,1.0373,0.5624,3.3606,1.7016,2.3683,0.2381,-0.6967,-0.9470,
10.832301,-0.0476,1.0373,0.5624,3.3606,1.7016,2.3683,0.7782,0.1561,-0.6349,
10.852386,-0.0103,0.9496,0.6748,3.3606,1.7016,2.3683,0.7782,0.1561,-0.6349,
10.855972,-0.0103,0.9496,0.6748,3.9588,0.9035,3.5987,0.7782,0.1561,-0.6349,
10.857403,-0.0103,0.9496,0.6748,3.9588,0.9035,3.5987,1.2464,0.5571,-0.4330,
10.872185,-0.0103,0.9496,0.6748,3.9588,0.9035,3.5987,1.4876,0.2264,-0.5779,
10.891880,0.0029,0.8101,0.4209,3.9588,0.9035,3.5987,1.4876,0.2264,-0.5779,
10.893915,0.0029,0.8101,0.4209,4.2845,-0.5355,1.6274,1.4876,0.2264,-0.5779,
10.895767,0.0029,0.8101,0.4209,4.2845,-0.5355,1.6274,1.6043,-0.3393,-0.7686,
10.911904,0.0029,0.8101,0.4209,4.2845,-0.5355,1.6274,1.5287,-0.5422,-0.7984,
10.932261,-0.2147,0.9225,0.1788,4.2845,-0.5355,1.6274,1.5287,-0.5422,-0.7984,
10.936193,-0.2147,0.9225,0.1788,2.3109,0.5328,-0.3196,1.5287,-0.5422,-0.7984,
10.937796,-0.2147,0.9225,0.1788,2.3109,0.5328,-0.3196,1.2778,-0.4463,-0.6946,
10.952933,-0.2147,0.9225,0.1788,2.3109,0.5328,-0.3196,0.9982,-0.2695,-0.5183,
10.972065,-0.3425,0.8937,0.1581,2.3109,0.5328,-0.3196,0.9982,-0.2695,-0.5183,
10.973952,-0.3425,0.8937,0.1581,1.1638,0.2389,-0.2288,0.9982,-0.2695,-0.5183,
10.975350,-0.3425,0.8937,0.1581,1.1638,0.2389,-0.2288,0.7931,-0.1593,-0.2791,
10.991049,-0.3425,0.8937,0.1581,1.1638,0.2389,-0.2288,0.6876,-0.1523,-0.1230,
11.011601,-0.3005,0.7187,0.2108,1.1638,0.2389,-0.2288,0.6876,-0.1523,-0.1230,
11.013147,-0.3005,0.7187,0.2108,1.6283,-1.4904,0.5088,0.6876,-0.1523,-0.1230,
11.013995,-0.3005,0.7187,0.2108,1.6283,-1.4904,0.5088,0.6828,-0.3100,-0.0719,
11.031778,-0.3005,0.7187,0.2108,1.6283,-1.4904,0.5088,0.7292,-0.5369,-0.1188,
11.051856,-0.3110,0.6203,0.2504,1.6283,-1.4904,0.5088,0.7292,-0.5369,-0.1188,
11.054054,-0.3110,0.6203,0.2504,1.5332,-2.4793,1.0603,0.7292,-0.5369,-0.1188,
11.055800,-0.3110,0.6203,0.2504,1.5332,-2.4793,1.0603,0.7915,-0.7542,-0.1768,
11.071600,-0.3110,0.6203,0.2504,1.5332,-2.4793,1.0603,0.8495,-1.0179,-0.2551,
11.091726,-0.3095,0.5590,0.2946,1.5332,-2.4793,1.0603,0.8495,-1.0179,-0.2551,
11.094720,-0.3095,0.5590,0.2946,1.5745,-3.0842,1.6117,0.8495,-1.0179,-0.2551,
11.096565,-0.3095,0.5590,0.2946,1.5745,-3.0842,1.6117,0.9465,-1.3987,-0.3441,
11.111740,-0.3095,0.5590,0.2946,1.5745,-3.0842,1.6117,1.0994,-1.8967,-0.4400,
11.131932,-0.3059,0.6073,0.2595,1.5745,-3.0842,1.6117,1.0994,-1.8967,-0.4400,
11.134143,-0.3059,0.6073,0.2595,1.6623,-2.5885,1.3114,1.0994,-1.8967,-0.4400,
11.135876,-0.3059,0.6073,0.2595,1.6623,-2.5885,1.3114,1.2623,-2.2003,-0.4778,
11.151614,-0.3059,0.6073,0.2595,1.6623,-2.5885,1.3114,1.3726,-2.2035,-0.4783,
11.172500,-0.3413,0.6936,0.1595,1.6623,-2.5885,1.3114,1.3726,-2.2035,-0.4783,
11.174789,-0.3413,0.6936,0.1595,1.3709,-1.7179,0.3686,1.3726,-2.2035,-0.4783,
11.176523,-0.3413,0.6936,0.1595,1.3709,-1.7179,0.3686,1.4056,-2.0203,-0.4176,
11.191085,-0.3413,0.6936,0.1595,1.3709,-1.7179,0.3686,1.3960,-1.8994,-0.2999,
11.211554,-0.4051,0.8289,0.1068,1.3709,-1.7179,0.3686,1.3960,-1.8994,-0.2999,
11.214077,-0.4051,0.8289,0.1068,0.7783,-0.3877,-0.0430,1.3960,-1.8994,-0.2999,
11.215709,-0.4051,0.8289,0.1068,0.7783,-0.3877,-0.0430,1.3566,-1.7614,-0.1443,
11.230839,-0.4051,0.8289,0.1068,0.7783,-0.3877,-0.0430,1.2900,-1.4514,-0.0149,
11.251113,-0.4158,0.8238,0.0396,0.7783,-0.3877,-0.0430,1.2900,-1.4514,-0.0149,
11.253365,-0.4158,0.8238,0.0396,0.6344,-0.4769,-0.5543,1.2900,-1.4514,-0.0149,
11.255137,-0.4158,0.8238,0.0396,0.6344,-0.4769,-0.5543,1.2219,-1.2314,0.1230,
11.271982,-0.4158,0.8238,0.0396,0.6344,-0.4769,-0.5543,1.1372,-1.1718,0.2354,
11.290955,-0.5223,0.8421,-0.0599,0.6344,-0.4769,-0.5543,1.1372,-1.1718,0.2354,
11.293239,-0.5223,0.8421,-0.0599,-0.5111,-0.3706,-1.3459,1.1372,-1.1718,0.2354,
11.295166,-0.5223,0.8421,-0.0599,-0.5111,-0.3706,-1.3459,1.0424,-0.9928,0.3382,
11.311003,-0.5223,0.8421,-0.0599,-0.5111,-0.3706,-1.3459,0.9657,-0.8543,0.4490,
11.330916,-0.6843,0.9890,-0.1744,-0.5111,-0.3706,-1.3459,0.9657,-0.8543,0.4490,
11.333402,-0.6843,0.9890,-0.1744,-2.2413,0.9780,-2.2620,0.9657,-0.8543,0.4490,
11.335296,-0.6843,0.9890,-0.1744,-2.2413,0.9780,-2.2620,0.8517,-0.7904,0.4772,
11.351915,-0.6843,0.9890,-0.1744,-2.2413,0.9780,-2.2620,0.6402,-0.8320,0.4091,
11.370574,-0.5883,0.8226,-0.3081,-2.2413,0.9780,-2.2620,0.6402,-0.8320,0.4091,
11.372420,-0.5883,0.8226,-0.3081,-1.4422,-0.7327,-3.4035,0.6402,-0.8320,0.4091,
11.373598,-0.5883,0.8226,-0.3081,-1.4422,-0.7327,-3.4035,0.3883,-0.9726,0.3148,
11.390842,-0.5883,0.8226,-0.3081,-1.4422,-0.7327,-3.4035,0.2077,-1.2575,0.2850,
11.411234,-0.5494,0.8678,-0.2897,-1.4422,-0.7327,-3.4035,0.2077,-1.2575,0.2850,
11.414469,-0.5494,0.8678,-0.2897,-1.1646,-0.3378,-3.2644,0.2077,-1.2575,0.2850,
11.416101,-0.5494,0.8678,-0.2897,-1.1646,-0.3378,-3.2644,0.2194,-1.3273,0.2354,
11.431068,-0.5494,0.8678,-0.2897,-1.1646,-0.3378,-3.2644,0.5614,-1.7135,0.1326,
11.451167,-0.5910,0.9587,-0.0296,-1.1646,-0.3378,-3.2644,0.5614,-1.7135,0.1326,
11.454443,-0.5910,0.9587,-0.0296,-1.6558,0.5184,-0.8130,0.5614,-1.7135,0.1326,
11.456950,-0.5910,0.9587,-0.0296,-1.6558,0.5184,-0.8130,0.9705,-2.0677,0.1316,
11.470834,-0.5910,0.9587,-0.0296,-1.6558,0.5184,-0.8130,1.0914,-1.7332,0.0708,
11.490763,-0.4341,1.0427,0.1630,-1.6558,0.5184,-0.8130,1.0914,-1.7332,0.0708,
11.493054,-0.4341,1.0427,0.1630,-0.1912,1.3054,1.1311,1.0914,-1.7332,0.0708,
11.494686,-0.4341,1.0427,0.1630,-0.1912,1.3054,1.1311,1.0780,-1.6948,-0.0160,
11.510819,-0.4341,1.0427,0.1630,-0.1912,1.3054,1.1311,1.1462,-1.9452,-0.1145,
11.530825,-0.3633,1.3302,0.3374,-0.1912,1.3054,1.1311,1.1462,-1.9452,-0.1145,
11.533076,-0.3633,1.3302,0.3374,0.4965,4.1156,2.9419,1.1462,-1.9452,-0.1145,
11.534728,-0.3633,1.3302,0.3374,0.4965,4.1156,2.9419,1.4509,-2.3734,-0.1369,
11.551904,-0.3633,1.3302,0.3374,0.4965,4.1156,2.9419,1.6320,-2.8070,-0.1406,
11.571264,-0.2761,1.1641,0.2443,0.4965,4.1156,2.9419,1.6320,-2.8070,-0.1406,
11.573267,-0.2761,1.1641,0.2443,1.3699,2.4918,2.1581,1.6320,-2.8070,-0.1406,
11.574835,-0.2761,1.1641,0.2443,1.3699,2.4918,2.1581,1.3902,-2.6919,-0.1827,
11.590808,-0.2761,1.1641,0.2443,1.3699,2.4918,2.1581,0.8762,-2.6158,-0.1997,
11.610854,-0.0340,1.1153,0.2946,1.3699,2.4918,2.1581,0.8762,-2.6158,-0.1997,
11.613320,-0.0340,1.1153,0.2946,3.7863,2.0339,2.6204,0.8762,-2.6158,-0.1997,
11.614993,-0.0340,1.1153,0.2946,3.7863,2.0339,2.6204,0.5518,-2.8437,-0.2514,
11.630884,-0.0340,1.1153,0.2946,3.7863,2.0339,2.6204,0.5507,-2.9929,-0.2562,
11.650474,-0.1659,1.0327,0.1644,3.7863,2.0339,2.6204,0.5507,-2.9929,-0.2562,
11.652463,-0.1659,1.0327,0.1644,2.5357,1.2577,1.0570,0.5507,-2.9929,-0.2562,
11.654027,-0.1659,1.0327,0.1644,2.5357,1.2577,1.0570,0.6557,-2.5817,-0.0218,
11.670526,-0.1659,1.0327,0.1644,2.5357,1.2577,1.0570,0.7436,-1.8642,0.2631,
11.691103,-0.2819,0.9069,0.0472,2.5357,1.2577,1.0570,0.7436,-1.8642,0.2631,
11.693172,-0.2819,0.9069,0.0472,1.2612,-0.0294,-0.2242,0.7436,-1.8642,0.2631,
11.694996,-0.2819,0.9069,0.0472,1.2612,-0.0294,-0.2242,0.8277,-1.3625,0.3941,
11.710446,-0.2819,0.9069,0.0472,1.2612,-0.0294,-0.2242,0.9582,-1.2442,0.3888,
11.731141,-0.3506,0.6523,0.0247,1.2612,-0.0294,-0.2242,0.9582,-1.2442,0.3888,
11.733455,-0.3506,0.6523,0.0247,0.4131,-2.6091,-0.3309,0.9582,-1.2442,0.3888,
11.735321,-0.3506,0.6523,0.0247,0.4131,-2.6091,-0.3309,1.1276,-1.2096,0.3691,
11.750720,-0.3506,0.6523,0.0247,0.4131,-2.6091,-0.3309,1.2117,-1.0892,0.2967,
11.770497,-0.5397,0.7691,0.0183,0.4131,-2.6091,-0.3309,1.2117,-1.0892,0.2967,
11.772834,-0.5397,0.7691,0.0183,-1.5790,-1.5351,-0.1453,1.2117,-1.0892,0.2967,
11.774831,-0.5397,0.7691,0.0183,-1.5790,-1.5351,-0.1453,1.4376,-0.5662,-0.4139,
11.790829,-0.5397,0.7691,0.0183,-1.5790,-1.5351,-0.1453,1.6623,-0.2722,-1.0780,
11.810121,-0.5812,0.6982,-0.1556,-1.5790,-1.5351,-0.1453,1.6623,-0.2722,-1.0780,
11.813196,-0.5812,0.6982,-0.1556,-1.7187,-2.1197,-1.3546,1.6623,-0.2722,-1.0780,
11.814897,-0.5812,0.6982,-0.1556,-1.7187,-2.1197,-1.3546,1.3566,-0.4266,-0.8804,
11.830542,-0.5812,0.6982,-0.1556,-1.7187,-2.1197,-1.3546,0.8538,-0.4788,-0.4075,
11.850576,-0.3623,0.7324,-0.1693,-1.7187,-2.1197,-1.3546,0.8538,-0.4788,-0.4075,
11.852933,-0.3623,0.7324,-0.1693,0.6619,-1.6645,-1.1704,0.8538,-0.4788,-0.4075,
11.854840,-0.3623,0.7324,-0.1693,0.6619,-1.6645,-1.1704,0.4522,-0.3776,-0.0868,
11.870320,-0.3623,0.7324,-0.1693,0.6619,-1.6645,-1.1704,0.3041,0.0703,-0.0538,
11.890564,-0.3970,0.8013,-0.2272,0.6619,-1.6645,-1.1704,0.3041,0.0703,-0.0538,
11.892933,-0.3970,0.8013,-0.2272,0.3498,-0.9694,-1.6303,0.3041,0.0703,-0.0538,
11.894839,-0.3970,0.8013,-0.2272,0.3498,-0.9694,-1.6303,0.2360,0.3515,-0.1071,
11.910033,-0.3970,0.8013,-0.2272,0.3498,-0.9694,-1.6303,0.1198,0.3159,-0.0879,
11.930667,-0.4407,0.8392,-0.4759,0.3498,-0.9694,-1.6303,0.1198,0.3159,-0.0879,
11.933069,-0.4407,0.8392,-0.4759,-0.0484,-0.5707,-3.9004,0.1198,0.3159,-0.0879,
11.935031,-0.4407,0.8392,-0.4759,-0.0484,-0.5707,-3.9004,-0.0943,0.3270,-0.0202,
11.952756,-0.4407,0.8392,-0.4759,-0.0484,-0.5707,-3.9004,-0.3430,0.3941,-0.0282,
11.969931,-0.4102,0.8473,-0.5656,-0.0484,-0.5707,-3.9004,-0.3430,0.3941,-0.0282,
11.972392,-0.4102,0.8473,-0.5656,0.2495,-0.4857,-4.7063,-0.3430,0.3941,-0.0282,
11.974178,-0.4102,0.8473,-0.5656,0.2495,-0.4857,-4.7063,-0.5033,0.2898,-0.2008,
11.989891,-0.4102,0.8473,-0.5656,0.2495,-0.4857,-4.7063,-0.4447,0.0676,-0.4724,
12.009837,-0.5861,0.9499,-0.4398,0.2495,-0.4857,-4.7063,-0.4447,0.0676,-0.4724,
12.012585,-0.5861,0.9499,-0.4398,-1.3612,0.5646,-3.5980,-0.4447,0.0676,-0.4724,
12.014337,-0.5861,0.9499,-0.4398,-1.3612,0.5646,-3.5980,-0.2205,-0.1763,-0.5449,
12.029708,-0.5861,0.9499,-0.4398,-1.3612,0.5646,-3.5980,-0.0735,-0.6578,-0.4517,
12.050469,-0.5602,1.2015,-0.0296,-1.3612,0.5646,-3.5980,-0.0735,-0.6578,-0.4517,
12.052713,-0.5602,1.2015,-0.0296,-0.9236,3.1158,0.2957,-0.0735,-0.6578,-0.4517,
12.054355,-0.5602,1.2015,-0.0296,-0.9236,3.1158,0.2957,0.2418,-1.2986,-0.6285,
12.069851,-0.5602,1.2015,-0.0296,-0.9236,3.1158,0.2957,0.2956,-2.0256,-0.3020,
12.090148,-0.4908,1.3571,-0.1432,-0.9236,3.1158,0.2957,0.2956,-2.0256,-0.3020,
12.093287,-0.4908,1.3571,-0.1432,-0.0519,4.7326,-1.0362,0.2956,-2.0256,-0.3020,
12.095204,-0.4908,1.3571,-0.1432,-0.0519,4.7326,-1.0362,-0.0229,-2.2717,0.2045,
12.110203,-0.4908,1.3571,-0.1432,-0.0519,4.7326,-1.0362,-0.2637,-2.2110,0.8288,
12.129624,0.1532,1.1434,0.0523,-0.0519,4.7326,-1.0362,-0.2637,-2.2110,0.8288,
12.132153,0.1532,1.1434,0.0523,6.0941,2.5409,0.4085,-0.2637,-2.2110,0.8288,
12.133560,0.1532,1.1434,0.0523,6.0941,2.5409,0.4085,-0.3888,-2.9471,0.4346,
12.152787,0.1532,1.1434,0.0523,6.0941,2.5409,0.4085,-0.1401,-3.6315,-0.0629,
12.170954,-0.2321,1.2093,0.2448,6.0941,2.5409,0.4085,-0.1401,-3.6315,-0.0629,
12.173151,-0.2321,1.2093,0.2448,2.1936,3.1574,1.6104,-0.1401,-3.6315,-0.0629,
12.174804,-0.2321,1.2093,0.2448,2.1936,3.1574,1.6104,-0.2056,-4.7564,-0.1795,
12.189958,-0.2321,1.2093,0.2448,2.1936,3.1574,1.6104,-0.6679,-6.3671,-0.1529,
12.210492,-0.0826,1.1551,0.5841,2.1936,3.1574,1.6104,-0.6679,-6.3671,-0.1529,
12.212638,-0.0826,1.1551,0.5841,3.4191,2.6801,3.8144,-0.6679,-6.3671,-0.1529,
12.214177,-0.0826,1.1551,0.5841,3.4191,2.6801,3.8144,-1.0860,-5.7881,-0.1214,
12.229989,-0.0826,1.1551,0.5841,3.4191,2.6801,3.8144,-1.0290,-3.3071,-0.0011,
12.249999,0.2006,1.0197,1.1463,3.4191,2.6801,3.8144,-1.0290,-3.3071,-0.0011,
12.251962,0.2006,1.0197,1.1463,5.7721,1.4696,8.2292,-1.0290,-3.3071,-0.0011,
12.253560,0.2006,1.0197,1.1463,5.7721,1.4696,8.2292,0.0282,-1.1872,-0.1395,
12.269108,0.2006,1.0197,1.1463,5.7721,1.4696,8.2292,1.3039,-0.3302,-0.4522,
12.289653,-0.1871,0.8182,0.6073,5.7721,1.4696,8.2292,1.3039,-0.3302,-0.4522,
12.292596,-0.1871,0.8182,0.6073,1.9814,-0.5404,3.0600,1.3039,-0.3302,-0.4522,
12.294300,-0.1871,0.8182,0.6073,1.9814,-0.5404,3.0600,1.9212,0.2674,-0.6525,
12.309856,-0.1871,0.8182,0.6073,1.9814,-0.5404,3.0600,1.9382,0.5843,-0.7009,
12.329943,-0.4671,0.9032,0.2467,1.9814,-0.5404,3.0600,1.9382,0.5843,-0.7009,
12.332828,-0.4671,0.9032,0.2467,-0.4966,0.2029,0.2459,1.9382,0.5843,-0.7009,
12.334174,-0.4671,0.9032,0.2467,-0.4966,0.2029,0.2459,1.7401,0.3920,-0.6312,
12.352949,-0.4671,0.9032,0.2467,-0.4966,0.2029,0.2459,1.4509,0.1278,-0.4320,
12.369984,-0.5758,0.7818,-0.0792,-0.4966,0.2029,0.2459,1.4509,0.1278,-0.4320,
12.372291,-0.5758,0.7818,-0.0792,-1.3717,-1.0195,-2.3779,1.4509,0.1278,-0.4320,
12.374116,-0.5758,0.7818,-0.0792,-1.3717,-1.0195,-2.3779,0.9907,0.0064,-0.2413,
12.389604,-0.5758,0.7818,-0.0792,-1.3717,-1.0195,-2.3779,0.3345,-0.1886,-0.0282,
12.409156,-0.4999,0.5372,-0.1156,-1.3717,-1.0195,-2.3779,0.3345,-0.1886,-0.0282,
12.413156,-0.4999,0.5372,-0.1156,-0.5855,-3.4324,-2.5205,0.3345,-0.1886,-0.0282,
12.414960,-0.4999,0.5372,-0.1156,-0.5855,-3.4324,-2.5205,-0.2770,-0.4016,0.0538,
12.429334,-0.4999,0.5372,-0.1156,-0.5855,-3.4324,-2.5205,-0.6285,-0.3159,-0.0767,
12.450223,-0.4759,0.5201,0.1505,-0.5855,-3.4324,-2.5205,-0.6285,-0.3159,-0.0767,
12.452529,-0.4759,0.5201,0.1505,-0.3681,-3.5708,-0.1319,-0.6285,-0.3159,-0.0767,
12.454380,-0.4759,0.5201,0.1505,-0.3681,-3.5708,-0.1319,-0.5230,-0.4021,-0.2019,
12.469444,-0.4759,0.5201,0.1505,-0.3681,-3.5708,-0.1319,-0.0383,-0.9571,-0.2754,
12.490001,-0.4058,0.5932,0.1910,-0.3681,-3.5708,-0.1319,-0.0383,-0.9571,-0.2754,
12.495010,-0.4058,0.5932,0.1910,0.3540,-2.7950,0.0513,-0.0383,-0.9571,-0.2754,
12.496793,-0.4058,0.5932,0.1910,0.3540,-2.7950,0.0513,0.5337,-1.3811,-0.2684,
12.509137,-0.4058,0.5932,0.1910,0.3540,-2.7950,0.0513,0.9699,-1.3966,-0.2221,
12.529757,-0.3963,0.7766,0.0452,0.3540,-2.7950,0.0513,0.9699,-1.3966,-0.2221,
12.532079,-0.3963,0.7766,0.0452,0.4301,-1.0095,-1.3593,0.9699,-1.3966,-0.2221,
12.533874,-0.3963,0.7766,0.0452,0.4301,-1.0095,-1.3593,1.1521,-1.2245,-0.1609,
12.553210,-0.3963,0.7766,0.0452,0.4301,-1.0095,-1.3593,1.0733,-1.0594,-0.0788,
12.569327,-0.4422,1.0288,-0.0066,0.4301,-1.0095,-1.3593,1.0733,-1.0594,-0.0788,
12.572927,-0.4422,1.0288,-0.0066,-0.0533,1.4047,-1.6630,1.0733,-1.0594,-0.0788,
12.575438,-0.4422,1.0288,-0.0066,-0.0533,1.4047,-1.6630,0.7009,-0.7515,-0.0463,
12.588831,-0.4422,1.0288,-0.0066,-0.0533,1.4047,-1.6630,0.2972,-0.5875,-0.0394,
12.609104,-0.4864,1.2364,0.1571,-0.0533,1.4047,-1.6630,0.2972,-0.5875,-0.0394,
12.611877,-0.4864,1.2364,0.1571,-0.5134,3.4159,0.0003,0.2972,-0.5875,-0.0394,
12.613627,-0.4864,1.2364,0.1571,-0.5134,3.4159,0.0003,0.2706,-0.7191,0.0533,
12.629958,-0.4864,1.2364,0.1571,-0.5134,3.4159,0.0003,0.5049,-0.6876,0.1619,
12.649659,-0.5272,1.3698,0.1148,-0.5134,3.4159,0.0003,0.5049,-0.6876,0.1619,
12.652021,-0.5272,1.3698,0.1148,-0.9941,4.6812,-0.3974,0.5049,-0.6876,0.1619,
12.653813,-0.5272,1.3698,0.1148,-0.9941,4.6812,-0.3974,0.8224,-0.5396,0.2301,
12.669204,-0.5272,1.3698,0.1148,-0.9941,4.6812,-0.3974,1.1105,-0.3356,0.3095,
12.688991,-0.5201,1.1048,0.0498,-0.9941,4.6812,-0.3974,1.1105,-0.3356,0.3095,
12.691819,-0.5201,1.1048,0.0498,-1.0442,1.9853,-0.7668,1.1105,-0.3356,0.3095,
12.693528,-0.5201,1.1048,0.0498,-1.0442,1.9853,-0.7668,1.1180,-0.2360,0.3009,
12.708359,-0.5201,1.1048,0.0498,-1.0442,1.9853,-0.7668,0.5955,-0.4394,0.2770,
12.728735,-0.3054,0.9692,0.2866,-1.0442,1.9853,-0.7668,0.5955,-0.4394,0.2770,
12.731047,-0.3054,0.9692,0.2866,0.9431,0.5720,1.8034,0.5955,-0.4394,0.2770,
12.732649,-0.3054,0.9692,0.2866,0.9431,0.5720,1.8034,-0.2045,-1.0690,0.2589,
12.748884,-0.3054,0.9692,0.2866,0.9431,0.5720,1.8034,-0.5449,-1.8552,0.1816,
12.768978,0.0257,0.9017,0.4901,0.9431,0.5720,1.8034,-0.5449,-1.8552,0.1816,
12.771024,0.0257,0.9017,0.4901,4.0172,-0.1113,3.4178,-0.5449,-1.8552,0.1816,
12.772677,0.0257,0.9017,0.4901,4.0172,-0.1113,3.4178,-0.3952,-2.2142,0.1923,
12.789061,0.0257,0.9017,0.4901,4.0172,-0.1113,3.4178,-0.1529,-1.6623,0.0969,
12.808641,0.0257,1.0075,0.3020,4.0172,-0.1113,3.4178,-0.1529,-1.6623,0.0969,
12.810788,0.0257,1.0075,0.3020,3.8027,0.9091,1.1721,-0.1529,-1.6623,0.0969,
12.812381,0.0257,1.0075,0.3020,3.8027,0.9091,1.1721,0.1326,-0.7409,-0.0027,
12.829025,0.0257,1.0075,0.3020,3.8027,0.9091,1.1721,0.3558,-0.0581,0.0256,
12.848569,-0.1451,0.9863,0.0481,3.8027,0.9091,1.1721,0.3558,-0.0581,0.0256,
12.851147,-0.1451,0.9863,0.0481,2.0269,0.6558,-1.2896,0.3558,-0.0581,0.0256,
12.852792,-0.1451,0.9863,0.0481,2.0269,0.6558,-1.2896,0.4538,0.3814,0.1252,
12.868864,-0.1451,0.9863,0.0481,2.0269,0.6558,-1.2896,0.4623,0.5795,0.1449,
12.888975,-0.2751,0.8375,0.0103,2.0269,0.6558,-1.2896,0.4623,0.5795,0.1449,
12.891677,-0.2751,0.8375,0.0103,0.7058,-0.8635,-1.4226,0.4623,0.5795,0.1449,
12.893442,-0.2751,0.8375,0.0103,0.7058,-0.8635,-1.4226,0.4783,0.5124,0.1065,
12.909053,-0.2751,0.8375,0.0103,0.7058,-0.8635,-1.4226,0.8575,0.7143,-0.0549,
12.928915,-0.5812,0.9799,-0.0454,0.7058,-0.8635,-1.4226,0.8575,0.7143,-0.0549,
12.932298,-0.5812,0.9799,-0.0454,-2.2683,0.4900,-1.6171,0.8575,0.7143,-0.0549,
12.934437,-0.5812,0.9799,-0.0454,-2.2683,0.4900,-1.6171,1.4823,1.2778,-0.9225,
12.952634,-0.5812,0.9799,-0.0454,-2.2683,0.4900,-1.6171,1.4445,0.8645,-1.4674,
12.968510,-0.4417,0.5944,-0.1534,-2.2683,0.4900,-1.6171,1.4445,0.8645,-1.4674,
12.971587,-0.4417,0.5944,-0.1534,-0.4327,-3.1612,-1.9912,1.4445,0.8645,-1.4674,
12.973875,-0.4417,0.5944,-0.1534,-0.4327,-3.1612,-1.9912,0.9832,0.0304,-1.2538,
12.989050,-0.4417,0.5944,-0.1534,-0.4327,-3.1612,-1.9912,0.4922,-0.6935,-0.7473,
13.008342,-0.2262,0.4774,-0.1444,-0.4327,-3.1612,-1.9912,0.4922,-0.6935,-0.7473,
13.012430,-0.2262,0.4774,-0.1444,2.0314,-4.1559,-1.6953,0.4922,-0.6935,-0.7473,
13.014320,-0.2262,0.4774,-0.1444,2.0314,-4.1559,-1.6953,0.1129,-0.7904,-0.2067,
13.028539,-0.2262,0.4774,-0.1444,2.0314,-4.1559,-1.6953,-0.0447,-0.4581,0.2285,
13.049722,-0.1781,0.6572,-0.0884,2.0314,-4.1559,-1.6953,-0.0447,-0.4581,0.2285,
13.053506,-0.1781,0.6572,-0.0884,2.4912,-2.3960,-1.2413,-0.0447,-0.4581,0.2285,
13.055859,-0.1781,0.6572,-0.0884,2.4912,-2.3960,-1.2413,-0.1092,-0.2131,0.3185,
13.068564,-0.1781,0.6572,-0.0884,2.4912,-2.3960,-1.2413,-0.1752,-0.2312,0.2573,
13.089312,-0.2042,0.9289,-0.1390,2.4912,-2.3960,-1.2413,-0.1752,-0.2312,0.2573,
13.091698,-0.2042,0.9289,-0.1390,2.1294,0.2206,-1.8244,-0.1752,-0.2312,0.2573,
13.093465,-0.2042,0.9289,-0.1390,2.1294,0.2206,-1.8244,-0.3196,-0.3931,0.2237,
13.108014,-0.2042,0.9289,-0.1390,2.1294,0.2206,-1.8244,-0.3851,-0.1204,0.0581,
13.128269,-0.4527,1.1617,-0.2521,2.1294,0.2206,-1.8244,-0.3851,-0.1204,0.0581,
13.130455,-0.4527,1.1617,-0.2521,-0.3876,2.4696,-3.0207,-0.3851,-0.1204,0.0581,
13.132228,-0.4527,1.1617,-0.2521,-0.3876,2.4696,-3.0207,-0.3611,0.4304,-0.3308,
13.147916,-0.4527,1.1617,-0.2521,-0.3876,2.4696,-3.0207,-0.1816,0.9880,-0.6647,
13.168338,-0.5419,1.0412,-0.2306,-0.3876,2.4696,-3.0207,-0.1816,0.9880,-0.6647,
13.171065,-0.5419,1.0412,-0.2306,-1.0709,1.3763,-2.7770,-0.1816,0.9880,-0.6647,
13.172653,-0.5419,1.0412,-0.2306,-1.0709,1.3763,-2.7770,0.0889,0.9167,-0.7057,
13.188819,-0.5419,1.0412,-0.2306,-1.0709,1.3763,-2.7770,0.2711,0.0250,-0.4202,
13.208486,-0.7559,1.5052,-0.0476,-1.0709,1.3763,-2.7770,0.2711,0.0250,-0.4202,
13.210850,-0.7559,1.5052,-0.0476,-2.9620,6.0175,-0.8398,0.2711,0.0250,-0.4202,
13.212633,-0.7559,1.5052,-0.0476,-2.9620,6.0175,-0.8398,0.0330,-1.5617,-0.2024,
13.229088,-0.7559,1.5052,-0.0476,-2.9620,6.0175,-0.8398,-0.8655,-3.3588,0.1699,
13.248518,-0.2941,1.0312,0.0897,-2.9620,6.0175,-0.8398,-0.8655,-3.3588,0.1699,
13.250497,-0.2941,1.0312,0.0897,1.5061,1.3881,-0.0748,-0.8655,-3.3588,0.1699,
13.252215,-0.2941,1.0312,0.0897,1.5061,1.3881,-0.0748,-1.1446,-3.6592,0.2162,
13.268175,-0.2941,1.0312,0.0897,1.5061,1.3881,-0.0748,-0.9982,-3.8653,0.5065,
13.288930,-0.2480,0.8133,0.3784,1.5061,1.3881,-0.0748,-0.9982,-3.8653,0.5065,
13.292048,-0.2480,0.8133,0.3784,1.6029,-0.7524,1.7540,-0.9982,-3.8653,0.5065,
13.293971,-0.2480,0.8133,0.3784,1.6029,-0.7524,1.7540,-0.8772,-3.2608,0.7526,
13.308929,-0.2480,0.8133,0.3784,1.6029,-0.7524,1.7540,-1.0243,-2.0299,0.6695,
13.328123,-0.3396,0.9081,0.7168,1.6029,-0.7524,1.7540,-1.0243,-2.0299,0.6695,
13.331807,-0.3396,0.9081,0.7168,0.2126,0.1590,4.3334,-1.0243,-2.0299,0.6695,
13.333573,-0.3396,0.9081,0.7168,0.2126,0.1590,4.3334,-0.9987,-0.5720,0.6525,
13.348140,-0.3396,0.9081,0.7168,0.2126,0.1590,4.3334,-0.5465,0.8234,0.6152,
13.368673,-0.2345,1.0056,0.8299,0.2126,0.1590,4.3334,-0.5465,0.8234,0.6152,
13.370836,-0.2345,1.0056,0.8299,1.0371,1.1155,5.1879,-0.5465,0.8234,0.6152,
13.372506,-0.2345,1.0056,0.8299,1.0371,1.1155,5.1879,-0.0037,1.8307,0.3451,
13.387802,-0.2345,1.0056,0.8299,1.0371,1.1155,5.1879,0.2727,2.3771,0.0250,
13.408240,-0.2472,0.7212,0.4454,1.0371,1.1155,5.1879,0.2727,2.3771,0.0250,
13.410302,-0.2472,0.7212,0.4454,1.0669,-1.7033,1.7072,0.2727,2.3771,0.0250,
13.412026,-0.2472,0.7212,0.4454,1.0669,-1.7033,1.7072,0.3755,2.5183,-0.1529,
13.428184,-0.2472,0.7212,0.4454,1.0669,-1.7033,1.7072,0.2812,2.3500,-0.2690,
13.448456,-0.3393,0.6350,0.1637,1.0669,-1.7033,1.7072,0.2812,2.3500,-0.2690,
13.450708,-0.3393,0.6350,0.1637,0.4731,-2.5491,-0.5867,0.2812,2.3500,-0.2690,
13.452470,-0.3393,0.6350,0.1637,0.4731,-2.5491,-0.5867,0.0889,1.8956,-0.3862,
13.467354,-0.3393,0.6350,0.1637,0.4731,-2.5491,-0.5867,-0.1166,1.4253,-0.4107,
13.488307,-0.4058,0.6076,0.0428,0.4731,-2.5491,-0.5867,-0.1166,1.4253,-0.4107,
13.490689,-0.4058,0.6076,0.0428,0.0973,-2.7536,-1.5159,-0.1166,1.4253,-0.4107,
13.492563,-0.4058,0.6076,0.0428,0.0973,-2.7536,-1.5159,-0.2855,1.0445,-0.3494,
13.508175,-0.4058,0.6076,0.0428,0.0973,-2.7536,-1.5159,-0.4053,0.8362,-0.2349,
13.528297,-0.3916,0.5458,0.0095,0.0973,-2.7536,-1.5159,-0.4053,0.8362,-0.2349,
13.531299,-0.3916,0.5458,0.0095,0.4090,-3.2845,-1.8048,-0.4053,0.8362,-0.2349,
13.533202,-0.3916,0.5458,0.0095,0.4090,-3.2845,-1.8048,-0.4911,0.6045,-0.1172,
13.548801,-0.3916,0.5458,0.0095,0.4090,-3.2845,-1.8048,-0.4400,0.3702,-0.0437,
13.567920,-0.3376,0.5692,0.0745,0.4090,-3.2845,-1.8048,-0.4400,0.3702,-0.0437,
13.570192,-0.3376,0.5692,0.0745,1.0034,-3.0050,-1.2446,-0.4400,0.3702,-0.0437,
13.572068,-0.3376,0.5692,0.0745,1.0034,-3.0050,-1.2446,-0.2892,0.1955,-0.0027,
13.587542,-0.3376,0.5692,0.0745,1.0034,-3.0050,-1.2446,-0.1193,0.1747,0.0357,
13.607329,-0.3941,0.7996,0.1551,1.0034,-3.0050,-1.2446,-0.1193,0.1747,0.0357,
13.609579,-0.3941,0.7996,0.1551,0.4594,-0.7338,-0.4926,-0.1193,0.1747,0.0357,
13.611411,-0.3941,0.7996,0.1551,0.4594,-0.7338,-0.4926,0.0858,0.1140,0.1193,
13.627114,-0.3941,0.7996,0.1551,0.4594,-0.7338,-0.4926,0.1843,0.1886,0.2157,
13.648352,-0.5262,0.9230,0.0892,0.4594,-0.7338,-0.4926,0.1843,0.1886,0.2157,
13.651456,-0.5262,0.9230,0.0892,-0.8797,0.4361,-1.0640,0.1843,0.1886,0.2157,
13.653676,-0.5262,0.9230,0.0892,-0.8797,0.4361,-1.0640,0.0027,0.5284,0.3143,
13.669227,-0.5262,0.9230,0.0892,-0.8797,0.4361,-1.0640,-0.3196,0.8314,0.4176,
13.687703,-0.6376,1.0989,0.2392,-0.8797,0.4361,-1.0640,-0.3196,0.8314,0.4176,
13.690709,-0.6376,1.0989,0.2392,-2.0398,2.1122,0.4701,-0.3196,0.8314,0.4176,
13.692451,-0.6376,1.0989,0.2392,-2.0398,2.1122,0.4701,-0.4293,0.8053,0.4831,
13.706945,-0.6376,1.0989,0.2392,-2.0398,2.1122,0.4701,-0.1422,0.5103,0.5417,
13.726944,-0.6496,1.2506,0.3342,-2.0398,2.1122,0.4701,-0.1422,0.5103,0.5417,
13.729046,-0.6496,1.2506,0.3342,-2.2855,3.5355,1.4117,-0.1422,0.5103,0.5417,
13.730752,-0.6496,1.2506,0.3342,-2.2855,3.5355,1.4117,0.3894,0.3009,0.5401,
13.747386,-0.6496,1.2506,0.3342,-2.2855,3.5355,1.4117,0.9199,0.1172,0.4906,
13.766734,-0.6132,1.3249,0.2731,-2.2855,3.5355,1.4117,0.9199,0.1172,0.4906,
13.768538,-0.6132,1.3249,0.2731,-2.0948,4.1358,1.0768,0.9199,0.1172,0.4906,
13.769659,-0.6132,1.3249,0.2731,-2.0948,4.1358,1.0768,1.2970,-0.1310,0.3563,
13.786686,-0.6132,1.3249,0.2731,-2.0948,4.1358,1.0768,1.1617,-0.4373,0.3095,
13.806940,-0.4742,1.0393,0.1603,-2.0948,4.1358,1.0768,1.1617,-0.4373,0.3095,
13.808939,-0.4742,1.0393,0.1603,-0.8661,1.2172,0.3647,1.1617,-0.4373,0.3095,
13.810648,-0.4742,1.0393,0.1603,-0.8661,1.2172,0.3647,0.4666,-0.4677,0.4261,
13.827030,-0.4742,1.0393,0.1603,-0.8661,1.2172,0.3647,-0.2711,-0.6179,0.3547,
13.847211,-0.1757,0.8126,0.4048,-0.8661,1.2172,0.3647,-0.2711,-0.6179,0.3547,
13.850241,-0.1757,0.8126,0.4048,1.8932,-1.0667,2.7152,-0.2711,-0.6179,0.3547,
13.852124,-0.1757,0.8126,0.4048,1.8932,-1.0667,2.7152,-0.3846,-1.0637,0.2546,
13.867384,-0.1757,0.8126,0.4048,1.8932,-1.0667,2.7152,-0.2232,-1.1334,0.1667,
13.887113,-0.0638,0.8460,0.3411,1.8932,-1.0667,2.7152,-0.2232,-1.1334,0.1667,
13.889281,-0.0638,0.8460,0.3411,2.8150,-0.7563,1.7671,-0.2232,-1.1334,0.1667,
13.891069,-0.0638,0.8460,0.3411,2.8150,-0.7563,1.7671,0.0075,-0.7436,0.0826,
13.907701,-0.0638,0.8460,0.3411,2.8150,-0.7563,1.7671,0.2136,-0.1715,-0.0005,
13.927392,-0.1801,1.0280,0.1996,2.8150,-0.7563,1.7671,0.2136,-0.1715,-0.0005,
13.929841,-0.1801,1.0280,0.1996,1.5947,1.0059,0.3310,0.2136,-0.1715,-0.0005,
13.931447,-0.1801,1.0280,0.1996,1.5947,1.0059,0.3310,0.3201,0.2285,-0.0458,
13.946674,-0.1801,1.0280,0.1996,1.5947,1.0059,0.3310,0.3222,0.2626,0.0048,
13.968164,-0.2555,0.9301,0.0655,1.5947,1.0059,0.3310,0.3222,0.2626,0.0048,
13.970890,-0.2555,0.9301,0.0655,0.8366,0.0154,-0.8455,0.3222,0.2626,0.0048,
13.972599,-0.2555,0.9301,0.0655,0.8366,0.0154,-0.8455,0.2402,0.1124,0.0133,
13.986890,-0.2555,0.9301,0.0655,0.8366,0.0154,-0.8455,0.3654,0.4591,-0.0447,
14.007456,-0.3359,0.9149,0.0757,0.8366,0.0154,-0.8455,0.3654,0.4591,-0.0447,
14.010062,-0.3359,0.9149,0.0757,0.0503,-0.1554,-0.5968,0.3654,0.4591,-0.0447,
14.011998,-0.3359,0.9149,0.0757,0.0503,-0.1554,-0.5968,0.8187,1.1057,-0.2429,
14.027372,-0.3359,0.9149,0.0757,0.0503,-0.1554,-0.5968,1.3513,1.5638,-0.6754,
14.047568,-0.4556,0.8209,-0.0376,0.0503,-0.1554,-0.5968,1.3513,1.5638,-0.6754,
14.049930,-0.4556,0.8209,-0.0376,-0.8986,-1.0590,-1.1277,1.3513,1.5638,-0.6754,
14.052003,-0.4556,0.8209,-0.0376,-0.8986,-1.0590,-1.1277,1.5111,1.4205,-0.9550,
14.067575,-0.4556,0.8209,-0.0376,-0.8986,-1.0590,-1.1277,1.2203,0.7899,-0.9348,
14.088266,-0.3003,0.6521,-0.1405,-0.8986,-1.0590,-1.1277,1.2203,0.7899,-0.9348,
14.090865,-0.3003,0.6521,-0.1405,0.9853,-2.5950,-1.4779,1.2203,0.7899,-0.9348,
14.092687,-0.3003,0.6521,-0.1405,0.9853,-2.5950,-1.4779,0.7185,0.1198,-0.7510,
14.106578,-0.3003,0.6521,-0.1405,0.9853,-2.5950,-1.4779,0.2658,-0.3137,-0.5337,
14.127527,-0.2311,0.5653,-0.1251,0.9853,-2.5950,-1.4779,0.2658,-0.3137,-0.5337,
14.129855,-0.2311,0.5653,-0.1251,1.8925,-3.3414,-1.1674,0.2658,-0.3137,-0.5337,
14.131807,-0.2311,0.5653,-0.1251,1.8925,-3.3414,-1.1674,0.0320,-0.2759,-0.3276,
14.146201,-0.2311,0.5653,-0.1251,1.8925,-3.3414,-1.1674,-0.1726,-0.0735,-0.1715,
14.166946,-0.2494,0.6296,-0.0853,1.8925,-3.3414,-1.1674,-0.1726,-0.0735,-0.1715,
14.169086,-0.2494,0.6296,-0.0853,1.8016,-2.6699,-0.8312,-0.1726,-0.0735,-0.1715,
14.170971,-0.2494,0.6296,-0.0853,1.8016,-2.6699,-0.8312,-0.2210,0.2003,-0.0708,
14.186564,-0.2494,0.6296,-0.0853,1.8016,-2.6699,-0.8312,-0.2333,0.3776,0.0368,
14.206841,-0.3904,0.8658,-0.1268,1.8016,-2.6699,-0.8312,-0.2333,0.3776,0.0368,
14.209709,-0.3904,0.8658,-0.1268,0.4264,-0.3517,-1.2693,-0.2333,0.3776,0.0368,
14.211988,-0.3904,0.8658,-0.1268,0.4264,-0.3517,-1.2693,-0.2487,0.2344,0.1225,
14.226387,-0.3904,0.8658,-0.1268,0.4264,-0.3517,-1.2693,-0.2834,0.2684,0.0383,
14.247007,-0.5287,1.0168,-0.1942,0.4264,-0.3517,-1.2693,-0.2834,0.2684,0.0383,
14.249281,-0.5287,1.0168,-0.1942,-0.9569,1.1145,-1.9415,-0.2834,0.2684,0.0383,
14.251175,-0.5287,1.0168,-0.1942,-0.9569,1.1145,-1.9415,-0.2487,0.6344,-0.4234,
14.267135,-0.5287,1.0168,-0.1942,-0.9569,1.1145,-1.9415,-0.2455,0.7244,-0.6413,
14.286465,-0.6499,1.1289,-0.1791,-0.9569,1.1145,-1.9415,-0.2455,0.7244,-0.6413,
14.288922,-0.6499,1.1289,-0.1791,-1.9565,2.3055,-1.7630,-0.2455,0.7244,-0.6413,
14.290738,-0.6499,1.1289,-0.1791,-1.9565,2.3055,-1.7630,-0.3318,0.6956,-0.2834,
14.307051,-0.6499,1.1289,-0.1791,-1.9565,2.3055,-1.7630,-0.1007,0.0011,0.0730,
14.326453,-0.8402,1.6750,0.0381,-1.9565,2.3055,-1.7630,-0.1007,0.0011,0.0730,
14.328869,-0.8402,1.6750,0.0381,-3.7848,7.6752,0.3517,-0.1007,0.0011,0.0730,
14.330520,-0.8402,1.6750,0.0381,-3.7848,7.6752,0.3517,-0.2120,-2.0576,0.1774,
14.346470,-0.8402,1.6750,0.0381,-3.7848,7.6752,0.3517,-0.9976,-3.7071,0.0863,
14.366244,-0.1991,1.0478,0.0171,-3.7848,7.6752,0.3517,-0.9976,-3.7071,0.0863,
14.369090,-0.1991,1.0478,0.0171,2.4098,1.5164,-0.5724,-0.9976,-3.7071,0.0863,
14.370851,-0.1991,1.0478,0.0171,2.4098,1.5164,-0.5724,-1.3326,-3.2293,0.2882,
14.385936,-0.1991,1.0478,0.0171,2.4098,1.5164,-0.5724,-1.4930,-2.8182,0.5481,
14.406706,-0.2201,0.6477,0.3137,2.4098,1.5164,-0.5724,-1.4930,-2.8182,0.5481,
14.408906,-0.2201,0.6477,0.3137,1.8894,-2.4176,1.3486,-1.4930,-2.8182,0.5481,
14.410527,-0.2201,0.6477,0.3137,1.8894,-2.4176,1.3486,-1.4040,-1.6293,0.5928,
14.426698,-0.2201,0.6477,0.3137,1.8894,-2.4176,1.3486,-1.2559,-0.8570,0.4543,
14.447496,-0.3721,0.9320,0.6318,1.8894,-2.4176,1.3486,-1.2559,-0.8570,0.4543,
14.451238,-0.3721,0.9320,0.6318,0.1109,0.3979,3.7965,-1.2559,-0.8570,0.4543,
14.452660,-0.3721,0.9320,0.6318,0.1109,0.3979,3.7965,-0.9465,-0.5337,0.4863,
14.467675,-0.3721,0.9320,0.6318,0.1109,0.3979,3.7965,-0.4261,0.5001,0.5454,
14.486670,-0.4026,1.1297,0.5749,0.1109,0.3979,3.7965,-0.4261,0.5001,0.5454,
14.488840,-0.4026,1.1297,0.5749,-0.3687,2.3290,2.9960,-0.4261,0.5001,0.5454,
14.490518,-0.4026,1.1297,0.5749,-0.3687,2.3290,2.9960,0.0991,2.0549,0.3233,
14.506201,-0.4026,1.1297,0.5749,-0.3687,2.3290,2.9960,0.4570,2.8384,0.0149,
14.526804,-0.3611,0.6572,0.2582,-0.3687,2.3290,2.9960,0.4570,2.8384,0.0149,
14.528786,-0.3611,0.6572,0.2582,0.2120,-2.3413,0.2979,0.4570,2.8384,0.0149,
14.530501,-0.3611,0.6572,0.2582,0.2120,-2.3413,0.2979,0.6168,2.6253,-0.1667,
14.546091,-0.3611,0.6572,0.2582,0.2120,-2.3413,0.2979,0.5918,2.0096,-0.3633,
14.566251,-0.3843,0.5944,0.0366,0.2120,-2.3413,0.2979,0.5918,2.0096,-0.3633,
14.568195,-0.3843,0.5944,0.0366,0.2583,-2.9620,-1.3028,0.5918,2.0096,-0.3633,
14.569937,-0.3843,0.5944,0.0366,0.2583,-2.9620,-1.3028,0.4495,1.3646,-0.4996,
14.585690,-0.3843,0.5944,0.0366,0.2583,-2.9620,-1.3028,0.1832,0.8996,-0.5028,
14.605527,-0.4095,0.5568,-0.1080,0.2583,-2.9620,-1.3028,0.1832,0.8996,-0.5028,
14.607801,-0.4095,0.5568,-0.1080,0.2553,-3.2668,-2.4224,0.1832,0.8996,-0.5028,
14.609569,-0.4095,0.5568,-0.1080,0.2553,-3.2668,-2.4224,-0.2605,0.4964,-0.3920,
14.625699,-0.4095,0.5568,-0.1080,0.2553,-3.2668,-2.4224,-0.6541,0.1044,-0.2562,
14.646180,-0.3149,0.5421,0.0530,0.2553,-3.2668,-2.4224,-0.6541,0.1044,-0.2562,
14.648466,-0.3149,0.5421,0.0530,1.3107,-3.3288,-0.9511,-0.6541,0.1044,-0.2562,
14.650242,-0.3149,0.5421,0.0530,1.3107,-3.3288,-0.9511,-0.7888,-0.1912,-0.1214,
14.665496,-0.3149,0.5421,0.0530,1.3107,-3.3288,-0.9511,-0.6450,-0.3148,-0.0170,
14.686567,-0.2866,0.6547,0.1661,1.3107,-3.3288,-0.9511,-0.6450,-0.3148,-0.0170,
14.689068,-0.2866,0.6547,0.1661,1.5957,-2.1667,-0.1337,-0.6450,-0.3148,-0.0170,
14.690935,-0.2866,0.6547,0.1661,1.5957,-2.1667,-0.1337,-0.3435,-0.2024,0.0208,
14.706111,-0.2866,0.6547,0.1661,1.5957,-2.1667,-0.1337,0.0091,-0.0996,0.0607,
14.726274,-0.4288,0.8480,0.1556,1.5957,-2.1667,-0.1337,0.0091,-0.0996,0.0607,
14.729221,-0.4288,0.8480,0.1556,0.1774,-0.2680,-0.3204,0.0091,-0.0996,0.0607,
14.730877,-0.4288,0.8480,0.1556,0.1774,-0.2680,-0.3204,0.2077,-0.1129,0.1795,
14.746366,-0.4288,0.8480,0.1556,0.1774,-0.2680,-0.3204,0.0383,0.1049,0.2722,
14.765597,-0.6469,1.0021,0.0193,0.1774,-0.2680,-0.3204,0.0383,0.1049,0.2722,
14.768276,-0.6469,1.0021,0.0193,-2.0188,1.1982,-1.5848,0.0383,0.1049,0.2722,
14.770113,-0.6469,1.0021,0.0193,-2.0188,1.1982,-1.5848,-0.4538,0.5438,0.3206,
14.786500,-0.6469,1.0021,0.0193,-2.0188,1.1982,-1.5848,-0.9007,0.8059,0.3510,
14.805626,-0.7129,1.1226,0.2194,-2.0188,1.1982,-1.5848,-0.9007,0.8059,0.3510,
14.808702,-0.7129,1.1226,0.2194,-2.7318,2.3706,0.2581,-0.9007,0.8059,0.3510,
14.810231,-0.7129,1.1226,0.2194,-2.7318,2.3706,0.2581,-0.9577,0.7659,0.4016,
14.825765,-0.7129,1.1226,0.2194,-2.7318,2.3706,0.2581,-0.4916,0.5246,0.4416,
14.845164,-0.7090,1.2533,0.4192,-2.7318,2.3706,0.2581,-0.4916,0.5246,0.4416,
14.847036,-0.7090,1.2533,0.4192,-2.7880,3.6375,2.0755,-0.4916,0.5246,0.4416,
14.848157,-0.7090,1.2533,0.4192,-2.7880,3.6375,2.0755,0.3915,0.2232,0.5044,
14.864860,-0.7090,1.2533,0.4192,-2.7880,3.6375,2.0755,1.1649,0.1161,0.4985,
14.885442,-0.6457,1.1714,0.1200,-2.7880,3.6375,2.0755,1.1649,0.1161,0.4985,
14.887817,-0.6457,1.1714,0.1200,-2.3292,2.6953,-0.5586,1.1649,0.1161,0.4985,
14.889549,-0.6457,1.1714,0.1200,-2.3292,2.6953,-0.5586,1.3593,0.0240,0.4192,
14.905557,-0.6457,1.1714,0.1200,-2.3292,2.6953,-0.5586,0.9603,-0.1630,0.3846,
14.926390,-0.4290,0.9494,0.2404,-2.3292,2.6953,-0.5586,0.9603,-0.1630,0.3846,
14.929332,-0.4290,0.9494,0.2404,-0.3516,0.3850,1.0210,0.9603,-0.1630,0.3846,
14.931054,-0.4290,0.9494,0.2404,-0.3516,0.3850,1.0210,0.4192,-0.5939,0.3643,
14.945555,-0.4290,0.9494,0.2404,-0.3516,0.3850,1.0210,0.0703,-1.2714,0.3553,
14.965670,-0.1737,0.8871,0.4581,-0.3516,0.3850,1.0210,0.0703,-1.2714,0.3553,
14.968552,-0.1737,0.8871,0.4581,1.9720,-0.2925,3.1020,0.0703,-1.2714,0.3553,
14.970364,-0.1737,0.8871,0.4581,1.9720,-0.2925,3.1020,-0.1364,-1.6112,0.3606,
14.985170,-0.1737,0.8871,0.4581,1.9720,-0.2925,3.1020,-0.1246,-1.6805,0.3883,
15.005691,-0.0235,0.9748,0.3523,1.9720,-0.2925,3.1020,-0.1246,-1.6805,0.3883,
15.008532,-0.0235,0.9748,0.3523,3.1883,0.5184,1.7597,-0.1246,-1.6805,0.3883,
15.010039,-0.0235,0.9748,0.3523,3.1883,0.5184,1.7597,0.0554,-1.2895,0.2706,
15.025723,-0.0235,0.9748,0.3523,3.1883,0.5184,1.7597,0.1987,-0.4810,0.1742,
15.045695,-0.2003,0.9613,0.0975,3.1883,0.5184,1.7597,0.1987,-0.4810,0.1742,
15.047732,-0.2003,0.9613,0.0975,1.2764,0.3380,-0.8254,0.1987,-0.4810,0.1742,
15.049338,-0.2003,0.9613,0.0975,1.2764,0.3380,-0.8254,0.2605,0.2274,0.1534,
15.067055,-0.2003,0.9613,0.0975,1.2764,0.3380,-0.8254,0.2732,0.6514,0.1806,
15.085537,-0.2748,0.8358,0.0012,1.2764,0.3380,-0.8254,0.2732,0.6514,0.1806,
15.088403,-0.2748,0.8358,0.0012,0.5002,-0.9385,-1.6099,0.2732,0.6514,0.1806,
15.090367,-0.2748,0.8358,0.0012,0.5002,-0.9385,-1.6099,0.3340,0.8693,0.1630,
15.105648,-0.2748,0.8358,0.0012,0.5002,-0.9385,-1.6099,0.5161,1.0722,0.1145,
15.125752,-0.3156,0.7832,0.0501,0.5002,-0.9385,-1.6099,0.5161,1.0722,0.1145,
15.129357,-0.3156,0.7832,0.0501,0.1069,-1.4963,-0.8514,0.5161,1.0722,0.1145,
15.130970,-0.3156,0.7832,0.0501,0.1069,-1.4963,-0.8514,0.8208,1.0690,0.0304,
15.145691,-0.3156,0.7832,0.0501,0.1069,-1.4963,-0.8514,1.2820,1.1420,-0.4155,
15.165085,-0.4830,0.8397,-0.0652,0.1069,-1.4963,-0.8514,1.2820,1.1420,-0.4155,
15.167427,-0.4830,0.8397,-0.0652,-1.4088,-0.9616,-1.4479,1.2820,1.1420,-0.4155,
15.169348,-0.4830,0.8397,-0.0652,-1.4088,-0.9616,-1.4479,1.3811,0.7611,-0.8320,
15.185080,-0.4830,0.8397,-0.0652,-1.4088,-0.9616,-1.4479,1.0386,0.0362,-0.8772,
15.205511,-0.2863,0.6538,-0.0699,-1.4088,-0.9616,-1.4479,1.0386,0.0362,-0.8772,
15.208654,-0.2863,0.6538,-0.0699,0.8411,-2.6910,-0.9966,1.0386,0.0362,-0.8772,
15.210481,-0.2863,0.6538,-0.0699,0.8411,-2.6910,-0.9966,0.6237,-0.4922,-0.6716,
15.225778,-0.2863,0.6538,-0.0699,0.8411,-2.6910,-0.9966,0.2903,-0.7169,-0.3601,
15.245726,-0.2296,0.6704,-0.0051,0.8411,-2.6910,-0.9966,0.2903,-0.7169,-0.3601,
15.249708,-0.2296,0.6704,-0.0051,1.5772,-2.4559,-0.2874,0.2903,-0.7169,-0.3601,
15.251898,-0.2296,0.6704,-0.0051,1.5772,-2.4559,-0.2874,0.2844,-0.3127,-0.1001,
15.264372,-0.2296,0.6704,-0.0051,1.5772,-2.4559,-0.2874,0.3015,-0.0895,0.0362,
15.286055,-0.2636,0.8385,-0.0322,1.5772,-2.4559,-0.2874,0.3015,-0.0895,0.0362,
15.288399,-0.2636,0.8385,-0.0322,1.2543,-0.8062,-0.4785,0.3015,-0.0895,0.0362,
15.290221,-0.2636,0.8385,-0.0322,1.2543,-0.8062,-0.4785,0.1625,-0.0533,-0.0671,
15.304838,-0.2636,0.8385,-0.0322,1.2543,-0.8062,-0.4785,-0.0027,0.1124,-0.2594,
15.325352,-0.3547,0.8536,-0.1141,1.2543,-0.8062,-0.4785,-0.0027,0.1124,-0.2594,
15.328873,-0.3547,0.8536,-0.1141,0.4201,-0.6331,-1.2471,-0.0027,0.1124,-0.2594,
15.330798,-0.3547,0.8536,-0.1141,0.4201,-0.6331,-1.2471,-0.1417,0.2860,-0.2642,
15.344915,-0.3547,0.8536,-0.1141,0.4201,-0.6331,-1.2471,-0.2679,0.4948,-0.0751,
15.365172,-0.5150,0.9103,-0.2709,0.4201,-0.6331,-1.2471,-0.2679,0.4948,-0.0751,
15.367405,-0.5150,0.9103,-0.2709,-1.0834,-0.0485,-2.7610,-0.2679,0.4948,-0.0751,
15.369263,-0.5150,0.9103,-0.2709,-1.0834,-0.0485,-2.7610,-0.2306,1.0839,-0.1832,
15.385297,-0.5150,0.9103,-0.2709,-1.0834,-0.0485,-2.7610,-0.0852,1.7918,-0.3579,
15.404677,-0.5385,0.7219,-0.4073,-1.0834,-0.0485,-2.7610,-0.0852,1.7918,-0.3579,
15.407745,-0.5385,0.7219,-0.4073,-1.1996,-1.8433,-3.8738,-0.0852,1.7918,-0.3579,
15.409917,-0.5385,0.7219,-0.4073,-1.1996,-1.8433,-3.8738,-0.1949,1.7279,-0.8437,
15.424742,-0.5385,0.7219,-0.4073,-1.1996,-1.8433,-3.8738,-0.5742,0.6131,-0.7361,
15.445480,-0.9582,1.6615,-0.0479,-1.1996,-1.8433,-3.8738,-0.5742,0.6131,-0.7361,
