
time,gFx,gFy,gFz,ax,ay,az,wx,wy,wz,
0.027764,0.1576,0.4295,0.8751,0.0000,0.0000,0.0000,0.0000,0.0000,0.0000,
0.030341,0.1576,0.4295,0.8751,0.0000,0.0000,0.0000,-0.1502,1.8035,0.3302,
0.048011,0.1576,0.4295,0.8751,0.0000,0.0000,0.0000,-0.1502,1.8035,0.3302,
0.068588,0.1681,0.4292,0.8573,0.0000,0.0000,0.0000,-0.1502,1.8035,0.3302,
0.070241,0.1681,0.4292,0.8573,-0.0462,-0.1181,-0.2358,-0.1502,1.8035,0.3302,
0.071929,0.1681,0.4292,0.8573,-0.0462,-0.1181,-0.2358,-0.1502,1.8035,0.3302,
0.087120,0.1681,0.4292,0.8573,-0.0462,-0.1181,-0.2358,-0.1502,1.8035,0.3302,
0.107885,0.1590,0.4446,0.8214,-0.0462,-0.1181,-0.2358,-0.1502,1.8035,0.3302,
0.110312,0.1590,0.4446,0.8214,-0.1151,-0.0852,-0.5316,-0.1502,1.8035,0.3302,
0.111942,0.1590,0.4446,0.8214,-0.1151,-0.0852,-0.5316,0.3057,0.4144,0.1870,
0.127839,0.1590,0.4446,0.8214,-0.1151,-0.0852,-0.5316,0.3297,0.3238,0.0767,
0.147280,0.1048,0.4195,0.8524,-0.1151,-0.0852,-0.5316,0.3297,0.3238,0.0767,
0.149683,0.1048,0.4195,0.8524,-0.3913,-0.2747,-0.3026,0.3297,0.3238,0.0767,
0.151646,0.1048,0.4195,0.8524,-0.3913,-0.2747,-0.3026,0.5140,0.5657,0.0666,
0.168280,0.1048,0.4195,0.8524,-0.3913,-0.2747,-0.3026,0.6088,0.5225,0.0730,
0.187815,0.1691,0.4256,0.8289,-0.3913,-0.2747,-0.3026,0.6088,0.5225,0.0730,
0.191570,0.1691,0.4256,0.8289,0.0965,-0.2247,-0.5030,0.6088,0.5225,0.0730,
0.194024,0.1691,0.4256,0.8289,0.0965,-0.2247,-0.5030,0.6376,0.3835,-0.0272,
0.207124,0.1691,0.4256,0.8289,0.0965,-0.2247,-0.5030,0.7228,0.6088,-0.1135,
0.227194,0.0694,0.4810,0.7439,0.0965,-0.2247,-0.5030,0.7228,0.6088,-0.1135,
0.231207,0.0694,0.4810,0.7439,-0.5553,-0.0677,-1.1819,0.7228,0.6088,-0.1135,
0.234283,0.0694,0.4810,0.7439,-0.5553,-0.0677,-1.1819,0.6349,0.8176,-0.0644,
0.246936,0.0694,0.4810,0.7439,-0.5553,-0.0677,-1.1819,0.3840,0.6546,-0.0320,
0.267392,0.0970,0.5060,0.7766,-0.5553,-0.0677,-1.1819,0.3840,0.6546,-0.0320,
0.269892,0.0970,0.5060,0.7766,-0.1926,-0.0602,-0.7361,0.3840,0.6546,-0.0320,
0.272005,0.0970,0.5060,0.7766,-0.1926,-0.0602,-0.7361,0.1683,0.4479,-0.0794,
0.286821,0.0970,0.5060,0.7766,-0.1926,-0.0602,-0.7361,0.0666,0.3334,-0.0730,
0.307304,0.0291,0.5091,0.8363,-0.1926,-0.0602,-0.7361,0.0666,0.3334,-0.0730,
0.310446,0.0291,0.5091,0.8363,-0.4814,-0.0688,-0.1710,0.0666,0.3334,-0.0730,
0.312586,0.0291,0.5091,0.8363,-0.4814,-0.0688,-0.1710,0.1012,0.3510,0.0048,
0.327114,0.0291,0.5091,0.8363,-0.4814,-0.0688,-0.1710,0.1907,0.4352,0.0128,
0.347124,0.0513,0.4937,0.8763,-0.4814,-0.0688,-0.1710,0.1907,0.4352,0.0128,
0.350023,0.0513,0.4937,0.8763,-0.1342,-0.2656,0.2387,0.1907,0.4352,0.0128,
0.352445,0.0513,0.4937,0.8763,-0.1342,-0.2656,0.2387,0.2871,0.5289,-0.0613,
0.366857,0.0513,0.4937,0.8763,-0.1342,-0.2656,0.2387,0.3904,0.4911,-0.0831,
0.387151,-0.0254,0.5179,0.8841,-0.1342,-0.2656,0.2387,0.3904,0.4911,-0.0831,
0.390208,-0.0254,0.5179,0.8841,-0.6943,-0.1330,0.3675,0.3904,0.4911,-0.0831,
0.392259,-0.0254,0.5179,0.8841,-0.6943,-0.1330,0.3675,0.4884,0.5795,-0.0698,
0.407637,-0.0254,0.5179,0.8841,-0.6943,-0.1330,0.3675,0.4517,0.4639,-0.0629,
0.427279,-0.0831,0.5876,0.8976,-0.6943,-0.1330,0.3675,0.4517,0.4639,-0.0629,
0.430351,-0.0831,0.5876,0.8976,-1.0599,0.3997,0.5867,0.4517,0.4639,-0.0629,
0.432334,-0.0831,0.5876,0.8976,-1.0599,0.3997,0.5867,0.3569,0.1182,0.0064,
0.447122,-0.0831,0.5876,0.8976,-1.0599,0.3997,0.5867,0.3526,-0.0405,0.1257,
0.467619,-0.0247,0.5617,0.8993,-1.0599,0.3997,0.5867,0.3526,-0.0405,0.1257,
0.471034,-0.0247,0.5617,0.8993,-0.4785,0.0378,0.6748,0.3526,-0.0405,0.1257,
0.473030,-0.0247,0.5617,0.8993,-0.4785,0.0378,0.6748,0.4900,-0.0629,0.1699,
0.487168,-0.0247,0.5617,0.8993,-0.4785,0.0378,0.6748,0.5928,0.0735,0.1774,
0.507668,-0.0029,0.5524,0.7930,-0.4785,0.0378,0.6748,0.5928,0.0735,0.1774,
0.509852,-0.0029,0.5524,0.7930,-0.2872,-0.2158,-0.2544,0.5928,0.0735,0.1774,
0.511860,-0.0029,0.5524,0.7930,-0.2872,-0.2158,-0.2544,0.6120,0.3169,0.1779,
0.527413,-0.0029,0.5524,0.7930,-0.2872,-0.2158,-0.2544,0.5587,0.4879,0.1204,
0.546351,0.0061,0.5836,0.4307,-0.2872,-0.2158,-0.2544,0.5587,0.4879,0.1204,
0.547552,0.0061,0.5836,0.4307,-0.1049,-0.0940,-3.6748,0.5587,0.4879,0.1204,
0.548436,0.0061,0.5836,0.4307,-0.1049,-0.0940,-3.6748,-0.2205,-0.3217,0.0852,
0.567092,0.0061,0.5836,0.4307,-0.1049,-0.0940,-3.6748,-0.8261,0.1625,-0.0043,
0.586385,-0.0029,0.5094,0.8348,-0.1049,-0.0940,-3.6748,-0.8261,0.1625,-0.0043,
0.589453,-0.0029,0.5094,0.8348,-0.2266,-0.6561,0.1666,-0.8261,0.1625,-0.0043,
0.590991,-0.0029,0.5094,0.8348,-0.2266,-0.6561,0.1666,-0.4490,0.6956,0.0634,
0.606095,-0.0029,0.5094,0.8348,-0.2266,-0.6561,0.1666,-0.0921,0.9428,-0.0368,
0.625763,-0.1766,0.5910,1.1255,-0.2266,-0.6561,0.1666,-0.0921,0.9428,-0.0368,
0.626609,-0.1766,0.5910,1.1255,-1.6597,0.2355,2.9495,-0.0921,0.9428,-0.0368,
0.627148,-0.1766,0.5910,1.1255,-1.6597,0.2355,2.9495,0.6301,1.0663,0.0123,
0.645744,-0.1766,0.5910,1.1255,-1.6597,0.2355,2.9495,0.8815,0.4629,0.1662,
0.667368,-0.0559,0.6298,0.6755,-1.6597,0.2355,2.9495,0.8815,0.4629,0.1662,
0.668247,-0.0559,0.6298,0.6755,-0.2378,0.3743,-1.2831,0.8815,0.4629,0.1662,
0.668901,-0.0559,0.6298,0.6755,-0.2378,0.3743,-1.2831,0.4708,-0.2402,0.1246,
0.686135,-0.0559,0.6298,0.6755,-0.2378,0.3743,-1.2831,0.0911,-0.2674,0.1028,
0.705822,-0.0916,0.5749,0.8717,-0.2378,0.3743,-1.2831,0.0911,-0.2674,0.1028,
0.707810,-0.0916,0.5749,0.8717,-0.6763,-0.2454,0.6965,0.0911,-0.2674,0.1028,
0.709674,-0.0916,0.5749,0.8717,-0.6763,-0.2454,0.6965,0.2940,0.4128,0.0735,
0.725849,-0.0916,0.5749,0.8717,-0.6763,-0.2454,0.6965,0.7249,0.5342,0.3238,
0.746472,-0.0403,0.6103,0.8133,-0.6763,-0.2454,0.6965,0.7249,0.5342,0.3238,
0.749971,-0.0403,0.6103,0.8133,-0.0645,-0.0491,0.2435,0.7249,0.5342,0.3238,
0.751852,-0.0403,0.6103,0.8133,-0.0645,-0.0491,0.2435,0.6179,0.1390,0.1710,
0.766813,-0.0403,0.6103,0.8133,-0.0645,-0.0491,0.2435,0.6882,-0.0059,0.1108,
0.786274,0.0169,0.6281,0.7486,-0.0645,-0.0491,0.2435,0.6882,-0.0059,0.1108,
0.788777,0.0169,0.6281,0.7486,0.4802,-0.0659,-0.2382,0.6882,-0.0059,0.1108,
0.790826,0.0169,0.6281,0.7486,0.4802,-0.0659,-0.2382,0.8772,0.1353,0.1177,
0.806253,0.0169,0.6281,0.7486,0.4802,-0.0659,-0.2382,0.9630,0.5241,-0.0629,
0.826308,-0.0359,0.6372,0.7537,0.4802,-0.0659,-0.2382,0.9630,0.5241,-0.0629,
0.829157,-0.0359,0.6372,0.7537,0.0505,-0.2381,0.0384,0.9630,0.5241,-0.0629,
0.830866,-0.0359,0.6372,0.7537,0.0505,-0.2381,0.0384,0.9896,0.9625,-0.1369,
0.846601,-0.0359,0.6372,0.7537,0.0505,-0.2381,0.0384,1.3502,1.3726,-0.1550,
0.868131,0.0227,0.6252,0.8666,0.0505,-0.2381,0.0384,1.3502,1.3726,-0.1550,
0.871080,0.0227,0.6252,0.8666,0.9779,-0.6637,1.4574,1.3502,1.3726,-0.1550,
0.872947,0.0227,0.6252,0.8666,0.9779,-0.6637,1.4574,1.8237,1.5350,-0.2487,
0.885946,0.0227,0.6252,0.8666,0.9779,-0.6637,1.4574,1.9612,1.6629,-0.3792,
0.906171,-0.1217,0.7762,0.5944,0.9779,-0.6637,1.4574,1.9612,1.6629,-0.3792,
0.908072,-0.1217,0.7762,0.5944,0.0544,0.3379,-0.6390,1.9612,1.6629,-0.3792,
0.909812,-0.1217,0.7762,0.5944,0.0544,0.3379,-0.6390,1.8861,2.1604,-0.3989,
0.926165,-0.1217,0.7762,0.5944,0.0544,0.3379,-0.6390,2.0778,2.6893,-0.3297,
0.946146,-0.2340,0.8221,0.5920,0.0544,0.3379,-0.6390,2.0778,2.6893,-0.3297,
0.948078,-0.2340,0.8221,0.5920,-0.3721,0.3438,0.0573,2.0778,2.6893,-0.3297,
0.949853,-0.2340,0.8221,0.5920,-0.3721,0.3438,0.0573,2.3670,2.6456,-0.1182,
0.966051,-0.2340,0.8221,0.5920,-0.3721,0.3438,0.0573,2.4395,2.1524,-0.1348,
0.985700,-0.2436,0.9340,0.4195,-0.3721,0.3438,0.0573,2.4395,2.1524,-0.1348,
0.988101,-0.2436,0.9340,0.4195,0.0568,0.9530,-0.6805,2.4395,2.1524,-0.1348,
0.990207,-0.2436,0.9340,0.4195,0.0568,0.9530,-0.6805,2.3521,1.3673,-0.3228,
1.005755,-0.2436,0.9340,0.4195,0.0568,0.9530,-0.6805,2.2850,0.4852,-0.2663,
1.026652,-0.1735,0.9286,0.3911,0.0568,0.9530,-0.6805,2.2850,0.4852,-0.2663,
1.028973,-0.1735,0.9286,0.3911,0.9733,0.5309,-0.1151,2.2850,0.4852,-0.2663,
1.030723,-0.1735,0.9286,0.3911,0.9733,0.5309,-0.1151,2.3228,0.5539,-0.1822,
1.046310,-0.1735,0.9286,0.3911,0.9733,0.5309,-0.1151,2.5731,0.8293,0.0309,
1.066021,-0.1300,0.9071,0.1893,0.9733,0.5309,-0.1151,2.5731,0.8293,0.0309,
1.068048,-0.1300,0.9071,0.1893,1.4886,-0.0169,-1.1799,2.5731,0.8293,0.0309,
1.069951,-0.1300,0.9071,0.1893,1.4886,-0.0169,-1.1799,2.5737,0.7478,0.2194,
1.085442,-0.1300,0.9071,0.1893,1.4886,-0.0169,-1.1799,2.4038,0.4650,0.4085,
1.106798,-0.1417,0.9096,0.2668,1.4886,-0.0169,-1.1799,2.4038,0.4650,0.4085,
1.110773,-0.1417,0.9096,0.2668,1.2940,-0.2824,0.5153,2.4038,0.4650,0.4085,
1.112618,-0.1417,0.9096,0.2668,1.2940,-0.2824,0.5153,2.3537,0.4485,0.5934,
1.125880,-0.1417,0.9096,0.2668,1.2940,-0.2824,0.5153,2.3990,0.3670,0.9220,
1.146192,-0.2358,0.8521,0.1068,1.2940,-0.2824,0.5153,2.3990,0.3670,0.9220,
1.148138,-0.2358,0.8521,0.1068,0.1130,-1.0772,-0.1400,2.3990,0.3670,0.9220,
1.150028,-0.2358,0.8521,0.1068,0.1130,-1.0772,-0.1400,2.1934,0.2285,1.2213,
1.166423,-0.2358,0.8521,0.1068,0.1130,-1.0772,-0.1400,1.7715,0.0208,1.2389,
1.186182,-0.2494,0.8575,0.0867,0.1130,-1.0772,-0.1400,1.7715,0.0208,1.2389,
1.188715,-0.2494,0.8575,0.0867,-0.4828,-1.1953,0.4234,1.7715,0.0208,1.2389,
1.191188,-0.2494,0.8575,0.0867,-0.4828,-1.1953,0.4234,1.3779,0.0831,1.1089,
1.205403,-0.2494,0.8575,0.0867,-0.4828,-1.1953,0.4234,0.9380,0.1752,1.0509,
1.225465,-0.3858,0.8915,-0.0215,-0.4828,-1.1953,0.4234,0.9380,0.1752,1.0509,
1.228065,-0.3858,0.8915,-0.0215,-2.2171,-0.9448,-0.1930,0.9380,0.1752,1.0509,
1.229869,-0.3858,0.8915,-0.0215,-2.2171,-0.9448,-0.1930,0.3190,-0.2839,1.0179,
1.245960,-0.3858,0.8915,-0.0215,-2.2171,-0.9448,-0.1930,-0.2908,-0.5704,0.8117,
1.266213,-0.3325,0.8490,0.0696,-2.2171,-0.9448,-0.1930,-0.2908,-0.5704,0.8117,
1.268505,-0.3325,0.8490,0.0696,-2.0310,-1.4097,0.6751,-0.2908,-0.5704,0.8117,
1.270499,-0.3325,0.8490,0.0696,-2.0310,-1.4097,0.6751,-0.6754,-0.4069,0.4831,
1.284899,-0.3325,0.8490,0.0696,-2.0310,-1.4097,0.6751,-0.9641,-0.4842,0.1545,
1.306619,-0.3428,0.8903,0.0227,-2.0310,-1.4097,0.6751,-0.9641,-0.4842,0.1545,
1.310374,-0.3428,0.8903,0.0227,-2.2263,-1.0103,-0.1272,-0.9641,-0.4842,0.1545,
1.312342,-0.3428,0.8903,0.0227,-2.2263,-1.0103,-0.1272,-1.2810,-0.8767,0.0005,
1.325263,-0.3428,0.8903,0.0227,-2.2263,-1.0103,-0.1272,-1.5654,-1.0099,-0.1976,
1.345625,-0.3078,0.8932,0.0733,-2.2263,-1.0103,-0.1272,-1.5654,-1.0099,-0.1976,
1.348272,-0.3078,0.8932,0.0733,-1.8349,-0.9364,-0.2224,-1.5654,-1.0099,-0.1976,
1.350156,-0.3078,0.8932,0.0733,-1.8349,-0.9364,-0.2224,-1.6948,-0.7100,-0.4085,
1.365765,-0.3078,0.8932,0.0733,-1.8349,-0.9364,-0.2224,-1.4978,-0.7553,-0.5087,
1.386146,-0.3318,0.9931,0.1356,-1.8349,-0.9364,-0.2224,-1.4978,-0.7553,-0.5087,
1.389655,-0.3318,0.9931,0.1356,-1.8624,0.1524,-0.2408,-1.4978,-0.7553,-0.5087,
1.392228,-0.3318,0.9931,0.1356,-1.8624,0.1524,-0.2408,-1.1771,-1.0365,-0.4772,
1.405602,-0.3318,0.9931,0.1356,-1.8624,0.1524,-0.2408,-1.0717,-1.0349,-0.5065,
1.426042,-0.3638,1.0403,0.0112,-1.8624,0.1524,-0.2408,-1.0717,-1.0349,-0.5065,
1.428206,-0.3638,1.0403,0.0112,-2.0189,0.7235,-1.9099,-1.0717,-1.0349,-0.5065,
1.430132,-0.3638,1.0403,0.0112,-2.0189,0.7235,-1.9099,-1.1404,-0.8618,-0.6248,
1.445454,-0.3638,1.0403,0.0112,-2.0189,0.7235,-1.9099,-1.2219,-0.6306,-0.7473,
1.465359,-0.4004,1.0977,0.1358,-2.0189,0.7235,-1.9099,-1.2219,-0.6306,-0.7473,
1.467612,-0.4004,1.0977,0.1358,-2.1847,1.4377,-1.1774,-1.2219,-0.6306,-0.7473,
1.469502,-0.4004,1.0977,0.1358,-2.1847,1.4377,-1.1774,-1.0589,-0.3766,-0.9758,
1.484884,-0.4004,1.0977,0.1358,-2.1847,1.4377,-1.1774,-0.5806,-0.2173,-1.3289,
1.504863,-0.4415,1.0065,0.1463,-2.1847,1.4377,-1.1774,-0.5806,-0.2173,-1.3289,
1.507711,-0.4415,1.0065,0.1463,-2.1941,0.7211,-1.3996,-0.5806,-0.2173,-1.3289,
1.509710,-0.4415,1.0065,0.1463,-2.1941,0.7211,-1.3996,-0.1582,-0.3755,-1.4333,
1.524961,-0.4415,1.0065,0.1463,-2.1941,0.7211,-1.3996,-0.0202,-0.6562,-1.4370,
1.545769,-0.4099,0.9511,0.1131,-2.1941,0.7211,-1.3996,-0.0202,-0.6562,-1.4370,
1.548659,-0.4099,0.9511,0.1131,-1.4132,0.3209,-1.7885,-0.0202,-0.6562,-1.4370,
1.550681,-0.4099,0.9511,0.1131,-1.4132,0.3209,-1.7885,0.0453,-0.4724,-1.5169,
1.565026,-0.4099,0.9511,0.1131,-1.4132,0.3209,-1.7885,0.0522,-0.1582,-1.5718,
1.585685,-0.4561,0.8878,0.0296,-1.4132,0.3209,-1.7885,0.0522,-0.1582,-1.5718,
1.588225,-0.4561,0.8878,0.0296,-1.3283,-0.1368,-2.5742,0.0522,-0.1582,-1.5718,
1.590615,-0.4561,0.8878,0.0296,-1.3283,-0.1368,-2.5742,-0.0602,-0.0378,-1.6570,
1.605523,-0.4561,0.8878,0.0296,-1.3283,-0.1368,-2.5742,0.0149,-0.1965,-1.9111,
1.626557,-0.4209,0.8653,0.1058,-1.3283,-0.1368,-2.5742,0.0149,-0.1965,-1.9111,
1.629802,-0.4209,0.8653,0.1058,-0.3599,-0.1255,-1.7799,0.0149,-0.1965,-1.9111,
1.631659,-0.4209,0.8653,0.1058,-0.3599,-0.1255,-1.7799,0.4772,-0.3915,-2.0144,
1.644919,-0.4209,0.8653,0.1058,-0.3599,-0.1255,-1.7799,1.0019,-0.9119,-1.8876,
1.665242,-0.2724,0.7986,0.0379,-0.3599,-0.1255,-1.7799,1.0019,-0.9119,-1.8876,
1.667495,-0.2724,0.7986,0.0379,1.6778,-0.5559,-2.2753,1.0019,-0.9119,-1.8876,
1.669344,-0.2724,0.7986,0.0379,1.6778,-0.5559,-2.2753,1.2069,-0.9971,-1.7177,
1.684069,-0.2724,0.7986,0.0379,1.6778,-0.5559,-2.2753,1.3332,-0.7111,-1.4807,
1.704581,-0.1915,0.6152,0.1146,1.6778,-0.5559,-2.2753,1.3332,-0.7111,-1.4807,
1.707493,-0.1915,0.6152,0.1146,2.9140,-2.1901,-1.2582,1.3332,-0.7111,-1.4807,
1.709612,-0.1915,0.6152,0.1146,2.9140,-2.1901,-1.2582,1.4280,-0.4027,-1.0280,
1.725050,-0.1915,0.6152,0.1146,2.9140,-2.1901,-1.2582,1.5798,0.0985,-0.7968,
1.744942,-0.2590,0.7322,0.2255,2.9140,-2.1901,-1.2582,1.5798,0.0985,-0.7968,
1.747926,-0.2590,0.7322,0.2255,2.5372,-0.9936,0.2911,1.5798,0.0985,-0.7968,
1.749763,-0.2590,0.7322,0.2255,2.5372,-0.9936,0.2911,1.4275,0.6940,-0.5870,
1.765375,-0.2590,0.7322,0.2255,2.5372,-0.9936,0.2911,1.0962,0.4330,-0.2541,
1.784653,-0.6039,0.7468,0.1637,2.5372,-0.9936,0.2911,1.0962,0.4330,-0.2541,
1.787434,-0.6039,0.7468,0.1637,-0.6688,-0.8465,0.2132,1.0962,0.4330,-0.2541,
1.789737,-0.6039,0.7468,0.1637,-0.6688,-0.8465,0.2132,1.0173,0.0772,0.1033,
1.805935,-0.6039,0.7468,0.1637,-0.6688,-0.8465,0.2132,0.9763,-0.1220,0.2482,
1.824391,-0.5849,0.8910,0.1407,-0.6688,-0.8465,0.2132,0.9763,-0.1220,0.2482,
1.826742,-0.5849,0.8910,0.1407,-0.5443,0.4795,0.3002,0.9763,-0.1220,0.2482,
1.828460,-0.5849,0.8910,0.1407,-0.5443,0.4795,0.3002,1.0397,-0.3084,0.0043,
1.843980,-0.5849,0.8910,0.1407,-0.5443,0.4795,0.3002,1.2059,-0.1827,0.1129,
1.864300,-0.5739,0.8656,-0.0388,-0.5443,0.4795,0.3002,1.2059,-0.1827,0.1129,
1.866481,-0.5739,0.8656,-0.0388,-0.4647,0.1773,-1.1382,1.2059,-0.1827,0.1129,
1.868377,-0.5739,0.8656,-0.0388,-0.4647,0.1773,-1.1382,1.0674,-0.7089,0.2237,
1.883741,-0.5739,0.8656,-0.0388,-0.4647,0.1773,-1.1382,0.8000,-1.1425,0.2338,
1.904335,-0.5641,0.8292,0.0259,-0.4647,0.1773,-1.1382,0.8000,-1.1425,0.2338,
1.906480,-0.5641,0.8292,0.0259,-0.4589,-0.2452,-0.3762,0.8000,-1.1425,0.2338,
1.908537,-0.5641,0.8292,0.0259,-0.4589,-0.2452,-0.3762,0.7649,-1.1191,0.2647,
1.924272,-0.5641,0.8292,0.0259,-0.4589,-0.2452,-0.3762,0.8543,-0.9023,0.3212,
1.943910,-0.4693,0.8429,0.0000,-0.4589,-0.2452,-0.3762,0.8543,-0.9023,0.3212,
1.945748,-0.4693,0.8429,0.0000,0.3523,-0.1867,-0.5520,0.8543,-0.9023,0.3212,
1.947215,-0.4693,0.8429,0.0000,0.3523,-0.1867,-0.5520,0.9550,-0.6956,0.3643,
1.963845,-0.4693,0.8429,0.0000,0.3523,-0.1867,-0.5520,1.0951,-0.5880,0.1465,
1.984507,-0.4945,0.9340,0.0794,0.3523,-0.1867,-0.5520,1.0951,-0.5880,0.1465,
1.987723,-0.4945,0.9340,0.0794,0.0079,0.6383,0.4456,1.0951,-0.5880,0.1465,
1.989652,-0.4945,0.9340,0.0794,0.0079,0.6383,0.4456,1.3108,-0.5348,-0.0149,
2.003757,-0.4945,0.9340,0.0794,0.0079,0.6383,0.4456,1.3545,-0.4107,-0.0740,
2.024009,-0.5367,0.8372,-0.1173,0.0079,0.6383,0.4456,1.3545,-0.4107,-0.0740,
2.025549,-0.5367,0.8372,-0.1173,-0.3882,-0.3059,-1.1142,1.3545,-0.4107,-0.0740,
2.026725,-0.5367,0.8372,-0.1173,-0.3882,-0.3059,-1.1142,1.1899,-0.4384,0.0405,
2.043999,-0.5367,0.8372,-0.1173,-0.3882,-0.3059,-1.1142,0.9108,-0.3957,0.2764,
2.064403,-0.5961,0.8727,-0.1136,-0.3882,-0.3059,-1.1142,0.9108,-0.3957,0.2764,
2.066941,-0.5961,0.8727,-0.1136,-1.0081,0.0255,-0.7940,0.9108,-0.3957,0.2764,
2.069022,-0.5961,0.8727,-0.1136,-1.0081,0.0255,-0.7940,0.7164,-0.2716,0.5294,
2.084599,-0.5961,0.8727,-0.1136,-1.0081,0.0255,-0.7940,0.8410,-0.3430,0.6216,
2.104253,-0.5568,0.9398,-0.1476,-1.0081,0.0255,-0.7940,0.8410,-0.3430,0.6216,
2.106433,-0.5568,0.9398,-0.1476,-0.8061,0.5930,-0.9120,0.8410,-0.3430,0.6216,
2.108234,-0.5568,0.9398,-0.1476,-0.8061,0.5930,-0.9120,0.8346,-0.4906,0.6440,
2.123848,-0.5568,0.9398,-0.1476,-0.8061,0.5930,-0.9120,0.7585,-0.6471,0.7238,
2.143364,-0.7058,0.9902,-0.0963,-0.8061,0.5930,-0.9120,0.7585,-0.6471,0.7238,
2.144110,-0.7058,0.9902,-0.0963,-2.4891,0.9821,-0.2365,0.7585,-0.6471,0.7238,
2.144681,-0.7058,0.9902,-0.0963,-2.4891,0.9821,-0.2365,0.7036,-0.7766,0.7718,
2.163378,-0.7058,0.9902,-0.0963,-2.4891,0.9821,-0.2365,1.0115,-0.4224,1.1883,
2.184029,-0.9789,0.7227,-0.0379,-2.4891,0.9821,-0.2365,1.0115,-0.4224,1.1883,
2.187137,-0.9789,0.7227,-0.0379,-5.4915,-1.7794,0.5336,1.0115,-0.4224,1.1883,
2.189063,-0.9789,0.7227,-0.0379,-5.4915,-1.7794,0.5336,1.4418,0.1609,2.1657,
2.204226,-0.9789,0.7227,-0.0379,-5.4915,-1.7794,0.5336,1.8189,0.4011,3.0078,
2.223392,-0.2502,0.4891,-0.0078,-5.4915,-1.7794,0.5336,1.8189,0.4011,3.0078,
2.225124,-0.2502,0.4891,-0.0078,0.7043,-4.3645,1.4553,1.8189,0.4011,3.0078,
2.226573,-0.2502,0.4891,-0.0078,0.7043,-4.3645,1.4553,2.4118,0.4245,2.9753,
2.243520,-0.2502,0.4891,-0.0078,0.7043,-4.3645,1.4553,2.6003,0.6322,2.5167,
2.263959,0.2502,0.6589,-0.8306,0.7043,-4.3645,1.4553,2.6003,0.6322,2.5167,
2.266960,0.2502,0.6589,-0.8306,4.5528,-2.7872,-5.6310,2.6003,0.6322,2.5167,
2.268839,0.2502,0.6589,-0.8306,4.5528,-2.7872,-5.6310,0.9950,-1.3092,1.7252,
2.283862,0.2502,0.6589,-0.8306,4.5528,-2.7872,-5.6310,0.2296,-1.3044,0.9545,
2.303840,0.2697,1.8169,-0.5255,4.5528,-2.7872,-5.6310,0.2296,-1.3044,0.9545,
2.306968,0.2697,1.8169,-0.5255,4.3850,8.5222,-2.5128,0.2296,-1.3044,0.9545,
2.308800,0.2697,1.8169,-0.5255,4.3850,8.5222,-2.5128,-0.1108,-0.1507,-0.1688,
2.323982,0.2697,1.8169,-0.5255,4.3850,8.5222,-2.5128,-0.5822,-0.0586,-0.8959,
2.343245,-0.5262,0.9122,0.0046,4.3850,8.5222,-2.5128,-0.5822,-0.0586,-0.8959,
2.344934,-0.5262,0.9122,0.0046,-3.2069,-0.3397,2.5466,-0.5822,-0.0586,-0.8959,
2.346571,-0.5262,0.9122,0.0046,-3.2069,-0.3397,2.5466,-0.2855,-0.0501,-0.4133,
2.363134,-0.5262,0.9122,0.0046,-3.2069,-0.3397,2.5466,-0.0538,0.8783,-0.1619,
2.384330,-0.3271,0.8898,-0.3538,-3.2069,-0.3397,2.5466,-0.0538,0.8783,-0.1619,
2.386390,-0.3271,0.8898,-0.3538,-1.1827,-0.5512,-0.9913,-0.0538,0.8783,-0.1619,
2.387982,-0.3271,0.8898,-0.3538,-1.1827,-0.5512,-0.9913,-0.1262,0.4623,-0.1672,
2.403168,-0.3271,0.8898,-0.3538,-1.1827,-0.5512,-0.9913,-0.0730,0.0623,-0.0937,
2.423227,-0.2961,0.9472,-0.2700,-1.1827,-0.5512,-0.9913,-0.0730,0.0623,-0.0937,
2.425316,-0.2961,0.9472,-0.2700,-0.8439,0.0161,-0.1814,-0.0730,0.0623,-0.0937,
2.426832,-0.2961,0.9472,-0.2700,-0.8439,0.0161,-0.1814,-0.0288,0.0538,-0.0224,
2.443535,-0.2961,0.9472,-0.2700,-0.8439,0.0161,-0.1814,-0.0692,0.1033,-0.0197,
2.463260,-0.1942,0.9376,-0.2619,-0.8439,0.0161,-0.1814,-0.0692,0.1033,-0.0197,
2.464810,-0.1942,0.9376,-0.2619,0.1631,-0.0770,-0.1085,-0.0692,0.1033,-0.0197,
2.466350,-0.1942,0.9376,-0.2619,0.1631,-0.0770,-0.1085,-0.0985,0.0719,-0.0069,
2.483626,-0.1942,0.9376,-0.2619,0.1631,-0.0770,-0.1085,-0.0794,0.0746,-0.0005,
2.503432,-0.1603,0.9142,-0.3117,0.1631,-0.0770,-0.1085,-0.0794,0.0746,-0.0005,
2.505984,-0.1603,0.9142,-0.3117,0.4613,-0.2048,-0.2152,-0.0794,0.0746,-0.0005,
2.507644,-0.1603,0.9142,-0.3117,0.4613,-0.2048,-0.2152,-0.0836,0.0772,0.0107,
2.523246,-0.1603,0.9142,-0.3117,0.4613,-0.2048,-0.2152,-0.2482,0.3105,0.0474,
2.543372,-0.1910,0.9281,-0.3274,0.4613,-0.2048,-0.2152,-0.2482,0.3105,0.0474,
2.545851,-0.1910,0.9281,-0.3274,0.0900,-0.0337,-0.2122,-0.2482,0.3105,0.0474,
2.547243,-0.1910,0.9281,-0.3274,0.0900,-0.0337,-0.2122,-0.1747,0.1923,0.0597,
2.563426,-0.1910,0.9281,-0.3274,0.0900,-0.0337,-0.2122,-0.0170,0.0549,0.0985,
2.583207,-0.2118,0.9398,-0.3132,0.0900,-0.0337,-0.2122,-0.0170,0.0549,0.0985,
2.586329,-0.2118,0.9398,-0.3132,-0.1142,0.0798,-0.0772,-0.0170,0.0549,0.0985,
2.589153,-0.2118,0.9398,-0.3132,-0.1142,0.0798,-0.0772,0.0522,0.0266,0.1044,
2.603073,-0.2118,0.9398,-0.3132,-0.1142,0.0798,-0.0772,0.0751,0.0730,0.1012,
2.623566,-0.2690,0.9010,-0.4114,-0.1142,0.0798,-0.0772,0.0751,0.0730,0.1012,
2.626178,-0.2690,0.9010,-0.4114,-0.7062,-0.2941,-0.9986,0.0751,0.0730,0.1012,
2.628190,-0.2690,0.9010,-0.4114,-0.7062,-0.2941,-0.9986,0.0410,0.1656,0.1087,
2.643534,-0.2690,0.9010,-0.4114,-0.7062,-0.2941,-0.9986,-0.0730,0.3302,0.0767,
2.662982,-0.2734,0.8331,-0.4295,-0.7062,-0.2941,-0.9986,-0.0730,0.3302,0.0767,
2.665894,-0.2734,0.8331,-0.4295,-0.7901,-0.9541,-1.1335,-0.0730,0.3302,0.0767,
2.667853,-0.2734,0.8331,-0.4295,-0.7901,-0.9541,-1.1335,-0.1928,0.4389,0.0405,
2.683544,-0.2734,0.8331,-0.4295,-0.7901,-0.9541,-1.1335,-0.2679,0.5369,0.0005,
2.702852,-0.3176,0.8165,-0.3083,-0.7901,-0.9541,-1.1335,-0.2679,0.5369,0.0005,
2.705493,-0.3176,0.8165,-0.3083,-1.2636,-1.1361,0.0212,-0.2679,0.5369,0.0005,
2.707564,-0.3176,0.8165,-0.3083,-1.2636,-1.1361,0.0212,-0.2834,0.6157,-0.0160,
2.723958,-0.3176,0.8165,-0.3083,-1.2636,-1.1361,0.0212,-0.2296,0.6104,0.0533,
2.743476,-0.2292,0.8216,-0.2768,-1.2636,-1.1361,0.0212,-0.2296,0.6104,0.0533,
2.746285,-0.2292,0.8216,-0.2768,-0.4644,-1.1138,0.2859,-0.2296,0.6104,0.0533,
2.748223,-0.2292,0.8216,-0.2768,-0.4644,-1.1138,0.2859,-0.1710,0.5507,0.0602,
2.763394,-0.2292,0.8216,-0.2768,-0.4644,-1.1138,0.2859,-0.1017,0.5119,0.0218,
2.784757,-0.1871,0.8265,-0.3403,-0.4644,-1.1138,0.2859,-0.1017,0.5119,0.0218,
2.788317,-0.1871,0.8265,-0.3403,0.2189,-0.9278,-0.1006,-0.1017,0.5119,0.0218,
2.791298,-0.1871,0.8265,-0.3403,0.2189,-0.9278,-0.1006,-0.0836,0.5204,-0.0362,
2.805989,-0.1871,0.8265,-0.3403,0.2189,-0.9278,-0.1006,-0.0740,0.5587,-0.1273,
2.823324,-0.2213,0.8209,-0.4117,0.2189,-0.9278,-0.1006,-0.0740,0.5587,-0.1273,
2.825442,-0.2213,0.8209,-0.4117,0.0695,-0.7886,-0.4099,-0.0740,0.5587,-0.1273,
2.827145,-0.2213,0.8209,-0.4117,0.0695,-0.7886,-0.4099,-0.1049,0.6067,-0.1870,
2.843601,-0.2213,0.8209,-0.4117,0.0695,-0.7886,-0.4099,-0.1859,0.6189,-0.2061,
2.862995,-0.2651,0.8421,-0.4283,0.0695,-0.7886,-0.4099,-0.1859,0.6189,-0.2061,
2.865447,-0.2651,0.8421,-0.4283,-0.3498,-0.5588,-0.5267,-0.1859,0.6189,-0.2061,
2.867590,-0.2651,0.8421,-0.4283,-0.3498,-0.5588,-0.5267,-0.2264,0.6599,-0.2013,
2.883788,-0.2651,0.8421,-0.4283,-0.3498,-0.5588,-0.5267,-0.2727,0.6834,-0.2333,
2.902866,-0.2885,0.8678,-0.4339,-0.3498,-0.5588,-0.5267,-0.2727,0.6834,-0.2333,
2.905905,-0.2885,0.8678,-0.4339,-0.5383,-0.2777,-0.5361,-0.2727,0.6834,-0.2333,
2.907993,-0.2885,0.8678,-0.4339,-0.5383,-0.2777,-0.5361,-0.2786,0.7100,-0.3233,
2.923018,-0.2885,0.8678,-0.4339,-0.5383,-0.2777,-0.5361,-0.2551,0.7968,-0.4091,
2.943337,-0.3484,0.8722,-0.4742,-0.5383,-0.2777,-0.5361,-0.2551,0.7968,-0.4091,
2.946546,-0.3484,0.8722,-0.4742,-0.9963,-0.1654,-0.8507,-0.2551,0.7968,-0.4091,
2.948446,-0.3484,0.8722,-0.4742,-0.9963,-0.1654,-0.8507,-0.2194,0.9231,-0.4511,
2.962672,-0.3484,0.8722,-0.4742,-0.9963,-0.1654,-0.8507,-0.1587,1.0440,-0.5049,
2.983388,-0.3467,0.9460,-0.4996,-0.9963,-0.1654,-0.8507,-0.1587,1.0440,-0.5049,
2.985648,-0.3467,0.9460,-0.4996,-0.9540,0.5813,-1.0620,-0.1587,1.0440,-0.5049,
2.987505,-0.3467,0.9460,-0.4996,-0.9540,0.5813,-1.0620,-0.1097,1.0663,-0.5736,
3.003612,-0.3467,0.9460,-0.4996,-0.9540,0.5813,-1.0620,-0.0895,1.0461,-0.6583,
3.022639,-0.3418,0.9973,-0.5204,-0.9540,0.5813,-1.0620,-0.0895,1.0461,-0.6583,
3.025388,-0.3418,0.9973,-0.5204,-0.8560,1.1294,-1.1960,-0.0895,1.0461,-0.6583,
3.027062,-0.3418,0.9973,-0.5204,-0.8560,1.1294,-1.1960,-0.0570,0.9870,-0.7297,
3.043223,-0.3418,0.9973,-0.5204,-0.8560,1.1294,-1.1960,-0.0336,0.9497,-0.7207,
3.062709,-0.2514,1.1157,-0.4075,-0.8560,1.1294,-1.1960,-0.0336,0.9497,-0.7207,
3.065797,-0.2514,1.1157,-0.4075,0.1267,2.3571,-0.0071,-0.0336,0.9497,-0.7207,
3.067885,-0.2514,1.1157,-0.4075,0.1267,2.3571,-0.0071,0.0224,0.8740,-0.6120,
3.083652,-0.2514,1.1157,-0.4075,0.1267,2.3571,-0.0071,-0.1907,0.2045,-0.6195,
3.102899,-0.1634,1.1431,-0.1200,0.1267,2.3571,-0.0071,-0.1907,0.2045,-0.6195,
3.105055,-0.1634,1.1431,-0.1200,1.1124,2.6766,2.8386,-0.1907,0.2045,-0.6195,
3.106858,-0.1634,1.1431,-0.1200,1.1124,2.6766,2.8386,-0.6386,-0.6860,-0.5678,
3.123027,-0.1634,1.1431,-0.1200,1.1124,2.6766,2.8386,-1.0812,-1.1377,-0.2748,
3.143420,-0.0469,1.3085,0.0310,1.1124,2.6766,2.8386,-1.0812,-1.1377,-0.2748,
3.145367,-0.0469,1.3085,0.0310,2.5373,4.2142,3.9194,-1.0812,-1.1377,-0.2748,
3.146961,-0.0469,1.3085,0.0310,2.5373,4.2142,3.9194,-0.8895,-0.4277,0.0804,
3.163221,-0.0469,1.3085,0.0310,2.5373,4.2142,3.9194,-0.1571,-0.0724,-0.1625,
3.182752,-0.2055,0.9479,0.0562,2.5373,4.2142,3.9194,-0.1571,-0.0724,-0.1625,
3.184215,-0.2055,0.9479,0.0562,1.0298,0.6085,3.9490,-0.1571,-0.0724,-0.1625,
3.185555,-0.2055,0.9479,0.0562,1.0298,0.6085,3.9490,-0.1800,-1.0312,-0.5044,
3.203230,-0.2055,0.9479,0.0562,1.0298,0.6085,3.9490,-0.6434,-1.4227,-0.6946,
3.223303,-0.5387,1.0366,0.0147,1.0298,0.6085,3.9490,-0.6434,-1.4227,-0.6946,
3.225138,-0.5387,1.0366,0.0147,-1.8685,1.5017,3.2414,-0.6434,-1.4227,-0.6946,
3.226939,-0.5387,1.0366,0.0147,-1.8685,1.5017,3.2414,-0.9060,-0.8996,-0.6258,
3.243040,-0.5387,1.0366,0.0147,-1.8685,1.5017,3.2414,-0.8666,-0.1784,-0.4282,
3.262543,-0.4837,0.9408,0.0914,-1.8685,1.5017,3.2414,-0.8666,-0.1784,-0.4282,
3.264651,-0.4837,0.9408,0.0914,-1.0831,0.5308,3.5953,-0.8666,-0.1784,-0.4282,
3.266360,-0.4837,0.9408,0.0914,-1.0831,0.5308,3.5953,-0.5800,0.2221,-0.3760,
3.283513,-0.4837,0.9408,0.0914,-1.0831,0.5308,3.5953,-0.2477,0.4107,-0.3409,
3.302335,-0.3276,0.7903,-0.0559,-1.0831,0.5308,3.5953,-0.2477,0.4107,-0.3409,
3.304131,-0.3276,0.7903,-0.0559,0.5390,-0.9574,1.9765,-0.2477,0.4107,-0.3409,
3.306008,-0.3276,0.7903,-0.0559,0.5390,-0.9574,1.9765,-0.0415,0.3771,-0.3430,
3.322706,-0.3276,0.7903,-0.0559,0.5390,-0.9574,1.9765,0.0575,0.2439,-0.3201,
3.342042,-0.2634,0.7933,-0.1715,0.5390,-0.9574,1.9765,0.0575,0.2439,-0.3201,
3.343864,-0.2634,0.7933,-0.1715,1.2488,-0.8838,0.8778,0.0575,0.2439,-0.3201,
3.345590,-0.2634,0.7933,-0.1715,1.2488,-0.8838,0.8778,0.0937,0.0804,-0.3073,
3.362720,-0.2634,0.7933,-0.1715,1.2488,-0.8838,0.8778,0.0463,0.0490,-0.2264,
3.382353,-0.3071,0.8028,-0.1893,1.2488,-0.8838,0.8778,0.0463,0.0490,-0.2264,
3.384257,-0.3071,0.8028,-0.1893,0.9051,-0.7427,0.7357,0.0463,0.0490,-0.2264,
3.386131,-0.3071,0.8028,-0.1893,0.9051,-0.7427,0.7357,-0.0469,-0.0208,-0.1566,
3.404896,-0.3071,0.8028,-0.1893,0.9051,-0.7427,0.7357,-0.1353,-0.1310,-0.1220,
3.422361,-0.4217,0.7798,-0.1363,0.9051,-0.7427,0.7357,-0.1353,-0.1310,-0.1220,
3.424956,-0.4217,0.7798,-0.1363,-0.1622,-0.9551,1.2120,-0.1353,-0.1310,-0.1220,
3.427208,-0.4217,0.7798,-0.1363,-0.1622,-0.9551,1.2120,-0.1593,-0.1044,-0.1300,
3.443053,-0.4217,0.7798,-0.1363,-0.1622,-0.9551,1.2120,-0.0618,0.0426,-0.0863,
3.462274,-0.4676,0.7715,-0.1625,-0.1622,-0.9551,1.2120,-0.0618,0.0426,-0.0863,
3.465031,-0.4676,0.7715,-0.1625,-0.5383,-1.0359,0.8390,-0.0618,0.0426,-0.0863,
3.467052,-0.4676,0.7715,-0.1625,-0.5383,-1.0359,0.8390,0.0618,0.0740,-0.0138,
3.482434,-0.4676,0.7715,-0.1625,-0.5383,-1.0359,0.8390,0.1481,0.1763,0.0453,
3.502506,-0.4786,0.7400,-0.2651,-0.5383,-1.0359,0.8390,0.1481,0.1763,0.0453,
3.504649,-0.4786,0.7400,-0.2651,-0.6615,-1.3362,-0.1115,0.1481,0.1763,0.0453,
3.506703,-0.4786,0.7400,-0.2651,-0.6615,-1.3362,-0.1115,0.2104,0.2237,0.0724,
3.522271,-0.4786,0.7400,-0.2651,-0.6615,-1.3362,-0.1115,0.2083,0.1587,0.0879,
3.542179,-0.4429,0.8299,-0.1488,-0.6615,-1.3362,-0.1115,0.2083,0.1587,0.0879,
3.544470,-0.4429,0.8299,-0.1488,-0.3516,-0.4456,1.1231,0.2083,0.1587,0.0879,
3.546413,-0.4429,0.8299,-0.1488,-0.3516,-0.4456,1.1231,0.1310,0.0495,0.0937,
3.562505,-0.4429,0.8299,-0.1488,-0.3516,-0.4456,1.1231,0.0533,-0.1140,0.0692,
3.582062,-0.4275,0.9838,-0.0327,-0.3516,-0.4456,1.1231,0.0533,-0.1140,0.0692,
3.584353,-0.4275,0.9838,-0.0327,-0.2115,1.0510,2.2379,0.0533,-0.1140,0.0692,
3.586124,-0.4275,0.9838,-0.0327,-0.2115,1.0510,2.2379,0.0341,-0.2983,0.0591,
3.602193,-0.4275,0.9838,-0.0327,-0.2115,1.0510,2.2379,0.0852,-0.2903,0.0234,
3.621547,-0.4977,1.0752,-0.1190,-0.2115,1.0510,2.2379,0.0852,-0.2903,0.0234,
3.623257,-0.4977,1.0752,-0.1190,-0.8799,1.9427,1.3507,0.0852,-0.2903,0.0234,
3.624224,-0.4977,1.0752,-0.1190,-0.8799,1.9427,1.3507,0.1923,-0.1971,0.0421,
3.641814,-0.4977,1.0752,-0.1190,-0.8799,1.9427,1.3507,0.3558,-0.2216,0.1049,
3.662091,-0.5424,1.2477,-0.1901,-0.8799,1.9427,1.3507,0.3558,-0.2216,0.1049,
3.664237,-0.5424,1.2477,-0.1901,-1.3220,3.6491,0.7145,0.3558,-0.2216,0.1049,
3.666003,-0.5424,1.2477,-0.1901,-1.3220,3.6491,0.7145,0.4554,-0.3569,0.1273,
3.681449,-0.5424,1.2477,-0.1901,-1.3220,3.6491,0.7145,0.3238,-0.4064,0.1651,
3.701696,-0.5736,1.3452,-0.0428,-1.3220,3.6491,0.7145,0.3238,-0.4064,0.1651,
3.703730,-0.5736,1.3452,-0.0428,-1.6385,4.6218,2.2308,0.3238,-0.4064,0.1651,
3.705425,-0.5736,1.3452,-0.0428,-1.6385,4.6218,2.2308,0.1587,-0.4980,0.2722,
3.722333,-0.5736,1.3452,-0.0428,-1.6385,4.6218,2.2308,-0.0016,-0.4059,0.3574,
3.741758,-0.2883,0.9017,0.0838,-1.6385,4.6218,2.2308,-0.0016,-0.4059,0.3574,
3.744353,-0.2883,0.9017,0.0838,1.0976,0.2349,3.4264,-0.0016,-0.4059,0.3574,
3.746134,-0.2883,0.9017,0.0838,1.0976,0.2349,3.4264,-0.1630,-0.4815,0.4272,
3.762525,-0.2883,0.9017,0.0838,1.0976,0.2349,3.4264,-0.2839,-0.6514,0.4016,
3.782265,-0.0496,0.8162,0.0855,1.0976,0.2349,3.4264,-0.2839,-0.6514,0.4016,
3.784338,-0.0496,0.8162,0.0855,3.3183,-0.7256,3.1999,-0.2839,-0.6514,0.4016,
3.786218,-0.0496,0.8162,0.0855,3.3183,-0.7256,3.1999,-0.3553,-0.6535,0.4144,
3.802906,-0.0496,0.8162,0.0855,3.3183,-0.7256,3.1999,-0.1854,-0.3302,0.3462,
3.821581,-0.0342,1.1956,0.0288,3.3183,-0.7256,3.1999,-0.1854,-0.3302,0.3462,
3.824653,-0.0342,1.1956,0.0288,3.3661,2.9005,2.4587,-0.1854,-0.3302,0.3462,
3.826510,-0.0342,1.1956,0.0288,3.3661,2.9005,2.4587,0.2924,0.2088,0.1694,
3.841974,-0.0342,1.1956,0.0288,3.3661,2.9005,2.4587,0.8671,0.6445,0.1470,
3.862742,-0.2221,0.9968,-0.1371,3.3661,2.9005,2.4587,0.8671,0.6445,0.1470,
3.866686,-0.2221,0.9968,-0.1371,1.4022,0.9619,1.0673,0.8671,0.6445,0.1470,
3.868381,-0.2221,0.9968,-0.1371,1.4022,0.9619,1.0673,1.1675,0.8069,0.1875,
3.881946,-0.2221,0.9968,-0.1371,1.4022,0.9619,1.0673,1.2277,0.6003,0.1917,
3.902310,-0.2265,0.7791,-0.2018,1.4022,0.9619,1.0673,1.2277,0.6003,0.1917,
3.904372,-0.2265,0.7791,-0.2018,1.1921,-1.0924,0.9144,1.2277,0.6003,0.1917,
3.906252,-0.2265,0.7791,-0.2018,1.1921,-1.0924,0.9144,1.0706,0.1971,0.1736,
3.921827,-0.2265,0.7791,-0.2018,1.1921,-1.0924,0.9144,0.7681,-0.1289,0.1257,
3.941294,-0.2416,0.7256,-0.2099,1.1921,-1.0924,0.9144,0.7681,-0.1289,0.1257,
3.943505,-0.2416,0.7256,-0.2099,0.9881,-1.5246,1.1588,0.7681,-0.1289,0.1257,
3.945097,-0.2416,0.7256,-0.2099,0.9881,-1.5246,1.1588,0.4922,-0.2407,0.0666,
3.961880,-0.2416,0.7256,-0.2099,0.9881,-1.5246,1.1588,0.2807,-0.3095,0.0043,
3.981814,-0.1886,0.7095,-0.1681,0.9881,-1.5246,1.1588,0.2807,-0.3095,0.0043,
3.983969,-0.1886,0.7095,-0.1681,1.5314,-1.6369,1.6642,0.2807,-0.3095,0.0043,
3.985782,-0.1886,0.7095,-0.1681,1.5314,-1.6369,1.6642,0.1342,-0.3286,-0.0506,
4.001682,-0.1886,0.7095,-0.1681,1.5314,-1.6369,1.6642,0.0570,-0.2993,-0.1023,
4.022076,-0.1940,0.6782,-0.2103,1.5314,-1.6369,1.6642,0.0570,-0.2993,-0.1023,
4.024421,-0.1940,0.6782,-0.2103,1.5465,-1.9203,1.2400,0.0570,-0.2993,-0.1023,
4.026272,-0.1940,0.6782,-0.2103,1.5465,-1.9203,1.2400,0.0543,-0.3201,-0.1326,
4.041727,-0.1940,0.6782,-0.2103,1.5465,-1.9203,1.2400,0.0197,-0.4123,-0.1784,
4.061486,-0.2504,0.6237,-0.3381,1.5465,-1.9203,1.2400,0.0197,-0.4123,-0.1784,
4.064422,-0.2504,0.6237,-0.3381,1.0945,-2.4276,-0.0507,0.0197,-0.4123,-0.1784,
4.066561,-0.2504,0.6237,-0.3381,1.0945,-2.4276,-0.0507,-0.0863,-0.4112,-0.2594,
4.081488,-0.2504,0.6237,-0.3381,1.0945,-2.4276,-0.0507,-0.1997,-0.4384,-0.3617,
4.101342,-0.3374,0.6726,-0.3110,1.0945,-2.4276,-0.0507,-0.1997,-0.4384,-0.3617,
4.104519,-0.3374,0.6726,-0.3110,0.4024,-1.9220,0.1049,-0.1997,-0.4384,-0.3617,
4.106383,-0.3374,0.6726,-0.3110,0.4024,-1.9220,0.1049,-0.2344,-0.4368,-0.5204,
4.121060,-0.3374,0.6726,-0.3110,0.4024,-1.9220,0.1049,-0.1411,-0.2919,-0.6200,
4.140918,-0.3657,0.7366,-0.1676,0.4024,-1.9220,0.1049,-0.1411,-0.2919,-0.6200,
4.143147,-0.3657,0.7366,-0.1676,0.3629,-1.2307,1.3911,-0.1411,-0.2919,-0.6200,
4.144882,-0.3657,0.7366,-0.1676,0.3629,-1.2307,1.3911,0.0053,-0.1348,-0.5726,
4.161729,-0.3657,0.7366,-0.1676,0.3629,-1.2307,1.3911,0.0682,0.0410,-0.5167,
4.181294,-0.2453,0.6797,-0.1727,0.3629,-1.2307,1.3911,0.0682,0.0410,-0.5167,
4.183416,-0.2453,0.6797,-0.1727,1.7318,-1.6961,1.3457,0.0682,0.0410,-0.5167,
4.185102,-0.2453,0.6797,-0.1727,1.7318,-1.6961,1.3457,0.0618,0.1017,-0.5017,
4.200841,-0.2453,0.6797,-0.1727,1.7318,-1.6961,1.3457,-0.0032,0.0463,-0.5028,
4.221663,-0.2863,0.7639,-0.2428,1.7318,-1.6961,1.3457,-0.0032,0.0463,-0.5028,
4.223758,-0.2863,0.7639,-0.2428,1.4873,-0.7820,0.6807,-0.0032,0.0463,-0.5028,
4.225542,-0.2863,0.7639,-0.2428,1.4873,-0.7820,0.6807,-0.0895,0.0629,-0.4996,
4.241897,-0.2863,0.7639,-0.2428,1.4873,-0.7820,0.6807,-0.0666,0.1875,-0.4597,
4.260956,-0.2678,0.6865,-0.2299,1.4873,-0.7820,0.6807,-0.0666,0.1875,-0.4597,
4.263459,-0.2678,0.6865,-0.2299,1.8117,-1.4668,0.8039,-0.0666,0.1875,-0.4597,
4.264933,-0.2678,0.6865,-0.2299,1.8117,-1.4668,0.8039,0.0517,0.2109,-0.4075,
4.281380,-0.2678,0.6865,-0.2299,1.8117,-1.4668,0.8039,0.0613,0.0778,-0.3723,
4.302041,-0.3132,0.9474,-0.1092,1.8117,-1.4668,0.8039,0.0613,0.0778,-0.3723,
4.304732,-0.3132,0.9474,-0.1092,1.4757,1.1671,2.0308,0.0613,0.0778,-0.3723,
4.306541,-0.3132,0.9474,-0.1092,1.4757,1.1671,2.0308,-0.0991,-0.0660,-0.3531,
4.321247,-0.3132,0.9474,-0.1092,1.4757,1.1671,2.0308,-0.3622,-0.4133,-0.2679,
4.341344,-0.5016,1.4062,0.0061,1.4757,1.1671,2.0308,-0.3622,-0.4133,-0.2679,
4.343700,-0.5016,1.4062,0.0061,-0.2408,5.6924,3.0421,-0.3622,-0.4133,-0.2679,
4.345116,-0.5016,1.4062,0.0061,-0.2408,5.6924,3.0421,-0.6450,-0.7318,-0.1529,
4.361110,-0.5016,1.4062,0.0061,-0.2408,5.6924,3.0421,-0.9364,-0.6306,0.1188,
4.380652,-0.7114,1.6948,0.0061,-0.2408,5.6924,3.0421,-0.9364,-0.6306,0.1188,
4.383106,-0.7114,1.6948,0.0061,-2.2156,8.4352,2.6568,-0.9364,-0.6306,0.1188,
4.384691,-0.7114,1.6948,0.0061,-2.2156,8.4352,2.6568,-1.0184,0.3361,0.4208,
4.400875,-0.7114,1.6948,0.0061,-2.2156,8.4352,2.6568,-0.6253,1.7939,0.4394,
4.420797,-0.7740,1.3437,-0.0972,-2.2156,8.4352,2.6568,-0.6253,1.7939,0.4394,
4.423460,-0.7740,1.3437,-0.0972,-3.0766,4.8323,1.5691,-0.6253,1.7939,0.4394,
4.424896,-0.7740,1.3437,-0.0972,-3.0766,4.8323,1.5691,-0.1097,2.3047,0.2791,
4.440710,-0.7740,1.3437,-0.0972,-3.0766,4.8323,1.5691,0.3324,1.4605,-0.0559,
4.460735,-0.6843,1.0688,-0.5680,-3.0766,4.8323,1.5691,0.3324,1.4605,-0.0559,
4.463163,-0.6843,1.0688,-0.5680,-2.4372,2.1318,-2.6781,0.3324,1.4605,-0.0559,
4.464711,-0.6843,1.0688,-0.5680,-2.4372,2.1318,-2.6781,0.5049,0.2045,-0.0405,
4.480681,-0.6843,1.0688,-0.5680,-2.4372,2.1318,-2.6781,0.2093,-0.1001,0.0916,
4.501350,-0.3376,0.9289,-0.1524,-2.4372,2.1318,-2.6781,0.2093,-0.1001,0.0916,
4.504417,-0.3376,0.9289,-0.1524,0.9457,0.7977,1.5220,0.2093,-0.1001,0.0916,
4.506196,-0.3376,0.9289,-0.1524,0.9457,0.7977,1.5220,-0.1273,-0.3404,0.1055,
4.520950,-0.3376,0.9289,-0.1524,0.9457,0.7977,1.5220,-0.2328,-0.4762,0.0937,
4.540742,-0.2580,0.7578,0.0120,0.9457,0.7977,1.5220,-0.2328,-0.4762,0.0937,
4.543768,-0.2580,0.7578,0.0120,1.7326,-0.9342,2.9648,-0.2328,-0.4762,0.0937,
4.545967,-0.2580,0.7578,0.0120,1.7326,-0.9342,2.9648,-0.2274,-0.3473,0.0985,
4.560993,-0.2580,0.7578,0.0120,1.7326,-0.9342,2.9648,-0.1172,-0.1939,0.1012,
4.580387,-0.2548,0.6332,-0.0127,1.7326,-0.9342,2.9648,-0.1172,-0.1939,0.1012,
4.582301,-0.2548,0.6332,-0.0127,1.7605,-2.1915,2.6194,-0.1172,-0.1939,0.1012,
4.583679,-0.2548,0.6332,-0.0127,1.7605,-2.1915,2.6194,0.0921,-0.0842,0.1513,
4.601404,-0.2548,0.6332,-0.0127,1.7605,-2.1915,2.6194,0.2349,-0.0858,0.2120,
4.620571,-0.3098,0.5678,-0.2152,1.7605,-2.1915,2.6194,0.2349,-0.0858,0.2120,
4.623129,-0.3098,0.5678,-0.2152,1.1701,-2.8458,0.6751,0.2349,-0.0858,0.2120,
4.624210,-0.3098,0.5678,-0.2152,1.1701,-2.8458,0.6751,0.2253,-0.2189,0.2274,
4.640382,-0.3098,0.5678,-0.2152,1.1701,-2.8458,0.6751,0.2093,-0.2903,0.2477,
4.660644,-0.3310,0.5648,-0.2118,1.1701,-2.8458,0.6751,0.2093,-0.2903,0.2477,
4.663562,-0.3310,0.5648,-0.2118,0.9105,-2.8899,0.7392,0.2093,-0.2903,0.2477,
4.665510,-0.3310,0.5648,-0.2118,0.9105,-2.8899,0.7392,0.3446,-0.3910,0.2535,
4.680352,-0.3310,0.5648,-0.2118,0.9105,-2.8899,0.7392,0.4794,-0.5300,0.2003,
4.701162,-0.3149,0.5184,-0.1036,0.9105,-2.8899,0.7392,0.4794,-0.5300,0.2003,
4.704270,-0.3149,0.5184,-0.1036,1.0445,-3.3354,1.8624,0.4794,-0.5300,0.2003,
4.706789,-0.3149,0.5184,-0.1036,1.0445,-3.3354,1.8624,0.5049,-0.4330,0.1300,
4.719946,-0.3149,0.5184,-0.1036,1.0445,-3.3354,1.8624,0.4724,-0.2919,0.0985,
4.741258,-0.2819,0.4891,-0.0596,1.0445,-3.3354,1.8624,0.4724,-0.2919,0.0985,
4.743987,-0.2819,0.4891,-0.0596,1.3717,-3.5845,2.3974,0.4724,-0.2919,0.0985,
4.746078,-0.2819,0.4891,-0.0596,1.3717,-3.5845,2.3974,0.3894,-0.2035,0.0953,
4.760392,-0.2819,0.4891,-0.0596,1.3717,-3.5845,2.3974,0.2530,-0.1603,0.1087,
4.780489,-0.2924,0.5768,0.0533,1.3717,-3.5845,2.3974,0.2530,-0.1603,0.1087,
4.783538,-0.2924,0.5768,0.0533,1.2567,-2.7030,3.5808,0.2530,-0.1603,0.1087,
4.785791,-0.2924,0.5768,0.0533,1.2567,-2.7030,3.5808,0.1124,-0.0826,0.1028,
4.800655,-0.2924,0.5768,0.0533,1.2567,-2.7030,3.5808,0.1268,-0.0240,0.0842,
4.821579,-0.3757,1.0498,0.0740,1.2567,-2.7030,3.5808,0.1268,-0.0240,0.0842,
4.824749,-0.3757,1.0498,0.0740,0.4156,1.9315,3.8155,0.1268,-0.0240,0.0842,
4.826763,-0.3757,1.0498,0.0740,0.4156,1.9315,3.8155,0.2131,-0.0288,0.0799,
4.840154,-0.3757,1.0498,0.0740,0.4156,1.9315,3.8155,0.3467,0.2445,0.2162,
4.860108,-0.5331,1.8548,-0.3552,0.4156,1.9315,3.8155,0.3467,0.2445,0.2162,
4.862805,-0.5331,1.8548,-0.3552,-1.1893,9.8314,-0.2803,0.3467,0.2445,0.2162,
4.864441,-0.5331,1.8548,-0.3552,-1.1893,9.8314,-0.2803,0.4330,0.9662,0.5071,
4.880672,-0.5331,1.8548,-0.3552,-1.1893,9.8314,-0.2803,0.3398,1.6070,0.6594,
4.901165,-0.1930,1.8164,-0.8468,-1.1893,9.8314,-0.2803,0.3398,1.6070,0.6594,
4.904150,-0.1930,1.8164,-0.8468,1.7749,9.4173,-4.7707,0.3398,1.6070,0.6594,
4.906339,-0.1930,1.8164,-0.8468,1.7749,9.4173,-4.7707,-0.0362,1.1531,0.2605,
4.921788,-0.1930,1.8164,-0.8468,1.7749,9.4173,-4.7707,-0.4075,0.1156,-0.1603,
4.940078,-0.3855,0.9017,-0.5035,1.7749,9.4173,-4.7707,-0.4075,0.1156,-0.1603,
4.942486,-0.3855,0.9017,-0.5035,-0.2187,0.4144,-1.3902,-0.4075,0.1156,-0.1603,
4.944244,-0.3855,0.9017,-0.5035,-0.2187,0.4144,-1.3902,-0.6253,-0.3894,-0.3174,
4.960392,-0.3855,0.9017,-0.5035,-0.2187,0.4144,-1.3902,-0.6727,-0.4314,-0.3334,
4.980319,-0.4124,0.7334,-0.3169,-0.2187,0.4144,-1.3902,-0.6727,-0.4314,-0.3334,
4.983131,-0.4124,0.7334,-0.3169,-0.3165,-1.2761,0.1603,-0.6727,-0.4314,-0.3334,
4.985107,-0.4124,0.7334,-0.3169,-0.3165,-1.2761,0.1603,-0.7105,-0.2594,-0.2983,
5.002373,-0.4124,0.7334,-0.3169,-0.3165,-1.2761,0.1603,-0.6301,0.0682,-0.3760,
5.020316,-0.2966,0.6530,-0.2675,-0.3165,-1.2761,0.1603,-0.6301,0.0682,-0.3760,
5.023385,-0.2966,0.6530,-0.2675,0.9287,-2.0989,0.4172,-0.6301,0.0682,-0.3760,
5.025529,-0.2966,0.6530,-0.2675,0.9287,-2.0989,0.4172,-0.4911,0.3153,-0.4927,
5.039855,-0.2966,0.6530,-0.2675,0.9287,-2.0989,0.4172,-0.3478,0.2732,-0.5316,
5.059964,-0.2350,0.5932,-0.2482,0.9287,-2.0989,0.4172,-0.3478,0.2732,-0.5316,
5.062337,-0.2350,0.5932,-0.2482,1.6705,-2.6558,0.5100,-0.3478,0.2732,-0.5316,
5.063805,-0.2350,0.5932,-0.2482,1.6705,-2.6558,0.5100,-0.1928,0.2354,-0.5284,
5.080185,-0.2350,0.5932,-0.2482,1.6705,-2.6558,0.5100,-0.0831,0.3063,-0.5113,
5.099964,-0.1261,0.4881,-0.1791,1.6705,-2.6558,0.5100,-0.0831,0.3063,-0.5113,
5.102063,-0.1261,0.4881,-0.1791,2.8821,-3.6172,1.1848,-0.0831,0.3063,-0.5113,
5.103782,-0.1261,0.4881,-0.1791,2.8821,-3.6172,1.1848,-0.0570,0.2514,-0.5257,
5.120688,-0.1261,0.4881,-0.1791,2.8821,-3.6172,1.1848,-0.0655,0.1646,-0.4884,
5.139748,-0.0992,0.4757,-0.0552,2.8821,-3.6172,1.1848,-0.0655,0.1646,-0.4884,
5.142596,-0.0992,0.4757,-0.0552,3.2903,-3.6617,2.4130,-0.0655,0.1646,-0.4884,
5.144211,-0.0992,0.4757,-0.0552,3.2903,-3.6617,2.4130,-0.0618,0.1385,-0.4352,
5.160544,-0.0992,0.4757,-0.0552,3.2903,-3.6617,2.4130,-0.0133,0.0474,-0.4027,
5.180550,-0.1471,0.6987,0.0161,3.2903,-3.6617,2.4130,-0.0133,0.0474,-0.4027,
5.183554,-0.1471,0.6987,0.0161,2.9488,-1.4079,3.1156,-0.0133,0.0474,-0.4027,
5.185872,-0.1471,0.6987,0.0161,2.9488,-1.4079,3.1156,0.0671,-0.2328,-0.3883,
5.200116,-0.1471,0.6987,0.0161,2.9488,-1.4079,3.1156,0.1177,-0.7782,-0.3425,
5.219789,-0.4376,1.3232,0.0772,2.9488,-1.4079,3.1156,0.1177,-0.7782,-0.3425,
5.221877,-0.4376,1.3232,0.0772,0.2546,4.7567,3.6071,0.1177,-0.7782,-0.3425,
5.223472,-0.4376,1.3232,0.0772,0.2546,4.7567,3.6071,0.0490,-1.6538,-0.1385,
5.240453,-0.4376,1.3232,0.0772,0.2546,4.7567,3.6071,-0.1944,-2.5263,0.1651,
5.259624,-0.9313,2.2806,-0.0379,0.2546,4.7567,3.6071,-0.1944,-2.5263,0.1651,
5.262123,-0.9313,2.2806,-0.0379,-4.3669,14.1295,2.0662,-0.1944,-2.5263,0.1651,
5.263931,-0.9313,2.2806,-0.0379,-4.3669,14.1295,2.0662,-0.5348,-2.0197,0.6285,
5.279959,-0.9313,2.2806,-0.0379,-4.3669,14.1295,2.0662,-0.6487,0.9731,0.8096,
5.300497,-0.7385,1.3400,0.0581,-4.3669,14.1295,2.0662,-0.6487,0.9731,0.8096,
5.302684,-0.7385,1.3400,0.0581,-2.6657,4.7244,2.7092,-0.6487,0.9731,0.8096,
5.304414,-0.7385,1.3400,0.0581,-2.6657,4.7244,2.7092,-0.5459,3.1542,0.3563,
5.319721,-0.7385,1.3400,0.0581,-2.6657,4.7244,2.7092,-0.5321,2.8016,-0.0250,
5.339591,-0.6821,0.9384,-0.2954,-2.6657,4.7244,2.7092,-0.5321,2.8016,-0.0250,
5.342306,-0.6821,0.9384,-0.2954,-2.4438,0.7087,-0.4146,-0.5321,2.8016,-0.0250,
5.344112,-0.6821,0.9384,-0.2954,-2.4438,0.7087,-0.4146,-0.6328,1.1867,-0.1731,
5.360181,-0.6821,0.9384,-0.2954,-2.4438,0.7087,-0.4146,-0.3473,-0.2402,-0.0655,
5.380458,-0.5844,0.9015,-0.4349,-2.4438,0.7087,-0.4146,-0.3473,-0.2402,-0.0655,
5.383975,-0.5844,0.9015,-0.4349,-1.4927,0.3192,-1.8681,-0.3473,-0.2402,-0.0655,
5.385992,-0.5844,0.9015,-0.4349,-1.4927,0.3192,-1.8681,0.1987,-0.3292,0.1145,
5.400658,-0.5844,0.9015,-0.4349,-1.4927,0.3192,-1.8681,0.4836,-0.0783,0.2024,
5.419243,-0.3261,0.7134,-0.2272,-1.4927,0.3192,-1.8681,0.4836,-0.0783,0.2024,
5.421896,-0.3261,0.7134,-0.2272,1.0066,-1.5173,0.2461,0.4836,-0.0783,0.2024,
5.423681,-0.3261,0.7134,-0.2272,1.0066,-1.5173,0.2461,0.3936,-0.2045,0.1550,
5.439816,-0.3261,0.7134,-0.2272,1.0066,-1.5173,0.2461,0.1917,-0.3851,0.1380,
5.459275,-0.2731,0.6281,-0.0423,1.0066,-1.5173,0.2461,0.1917,-0.3851,0.1380,
5.462045,-0.2731,0.6281,-0.0423,1.5064,-2.3484,2.1069,0.1917,-0.3851,0.1380,
5.463877,-0.2731,0.6281,-0.0423,1.5064,-2.3484,2.1069,0.0490,-0.3696,0.1507,
5.479362,-0.2731,0.6281,-0.0423,1.5064,-2.3484,2.1069,0.0213,-0.1507,0.1886,
5.499739,-0.2883,0.6694,-0.0198,1.5064,-2.3484,2.1069,0.0213,-0.1507,0.1886,
5.502365,-0.2883,0.6694,-0.0198,1.3263,-1.9685,2.2957,0.0213,-0.1507,0.1886,
5.504538,-0.2883,0.6694,-0.0198,1.3263,-1.9685,2.2957,0.1198,0.1513,0.2306,
5.519256,-0.2883,0.6694,-0.0198,1.3263,-1.9685,2.2957,0.2993,0.2839,0.2637,
5.538663,-0.3613,0.6870,-0.2023,1.3263,-1.9685,2.2957,0.2993,0.2839,0.2637,
5.539810,-0.3613,0.6870,-0.2023,0.5041,-1.8153,0.6143,0.2993,0.2839,0.2637,
5.540636,-0.3613,0.6870,-0.2023,0.5041,-1.8153,0.6143,0.4724,0.2898,0.2977,
5.559690,-0.3613,0.6870,-0.2023,0.5041,-1.8153,0.6143,0.5710,0.2759,0.2898,
5.579411,-0.3982,0.6975,-0.2641,0.5041,-1.8153,0.6143,0.5710,0.2759,0.2898,
5.580569,-0.3982,0.6975,-0.2641,0.0117,-1.7026,0.2316,0.5710,0.2759,0.2898,
5.581454,-0.3982,0.6975,-0.2641,0.0117,-1.7026,0.2316,0.5475,0.1949,0.2349,
5.599444,-0.3982,0.6975,-0.2641,0.0117,-1.7026,0.2316,0.4202,0.0724,0.1774,
5.619130,-0.3845,0.7153,-0.1046,0.0117,-1.7026,0.2316,0.4202,0.0724,0.1774,
5.620297,-0.3845,0.7153,-0.1046,0.0601,-1.5033,1.9805,0.4202,0.0724,0.1774,
5.621154,-0.3845,0.7153,-0.1046,0.0601,-1.5033,1.9805,0.2898,0.0341,0.1348,
5.638988,-0.3845,0.7153,-0.1046,0.0601,-1.5033,1.9805,0.2317,0.1513,0.1012,
5.659060,-0.3604,0.5751,-0.0804,0.0601,-1.5033,1.9805,0.2317,0.1513,0.1012,
5.660284,-0.3604,0.5751,-0.0804,0.2457,-2.8637,2.3202,0.2317,0.1513,0.1012,
5.661161,-0.3604,0.5751,-0.0804,0.2457,-2.8637,2.3202,0.2226,0.3862,0.1108,
5.679047,-0.3604,0.5751,-0.0804,0.2457,-2.8637,2.3202,0.2189,0.5587,0.1704,
5.699062,-0.3423,0.5746,-0.0523,0.2457,-2.8637,2.3202,0.2189,0.5587,0.1704,
5.700298,-0.3423,0.5746,-0.0523,0.3150,-2.8614,2.7407,0.2189,0.5587,0.1704,
5.701151,-0.3423,0.5746,-0.0523,0.3150,-2.8614,2.7407,0.2312,0.5097,0.2354,
5.721021,-0.3423,0.5746,-0.0523,0.3150,-2.8614,2.7407,0.2471,0.2423,0.2365,
5.738786,-0.1845,0.6841,0.0635,0.3150,-2.8614,2.7407,0.2471,0.2423,0.2365,
5.739982,-0.1845,0.6841,0.0635,1.7318,-1.7910,4.0110,0.2471,0.2423,0.2365,
5.740801,-0.1845,0.6841,0.0635,1.7318,-1.7910,4.0110,0.1539,0.0410,0.2115,
5.758518,-0.1845,0.6841,0.0635,1.7318,-1.7910,4.0110,0.0996,0.0229,0.1667,
5.778723,-0.2211,1.1043,0.0056,1.7318,-1.7910,4.0110,0.0996,0.0229,0.1667,
5.779966,-0.2211,1.1043,0.0056,1.3042,2.3179,3.4911,0.0996,0.0229,0.1667,
5.780762,-0.2211,1.1043,0.0056,1.3042,2.3179,3.4911,0.2977,0.4724,0.1262,
5.798861,-0.2211,1.1043,0.0056,1.3042,2.3179,3.4911,0.7350,1.1079,0.1614,
5.818693,-0.5277,2.1487,-0.7297,1.3042,2.3179,3.4911,0.7350,1.1079,0.1614,
5.819812,-0.5277,2.1487,-0.7297,-1.8621,12.6073,-3.4337,0.7350,1.1079,0.1614,
5.820767,-0.5277,2.1487,-0.7297,-1.8621,12.6073,-3.4337,1.1057,1.5196,0.1854,
5.838848,-0.5277,2.1487,-0.7297,-1.8621,12.6073,-3.4337,0.6168,0.7233,0.3015,
5.858674,-0.2013,1.2802,-0.6288,-1.8621,12.6073,-3.4337,0.6168,0.7233,0.3015,
5.859949,-0.2013,1.2802,-0.6288,1.0789,4.2008,-2.0129,0.6168,0.7233,0.3015,
5.860804,-0.2013,1.2802,-0.6288,1.0789,4.2008,-2.0129,0.2722,0.3931,0.2487,
5.878620,-0.2013,1.2802,-0.6288,1.0789,4.2008,-2.0129,0.0229,-0.1545,-0.0069,
5.899301,-0.5150,0.8297,-0.4490,1.0789,4.2008,-2.0129,0.0229,-0.1545,-0.0069,
5.900493,-0.5150,0.8297,-0.4490,-2.0554,-0.2040,-0.1871,0.0229,-0.1545,-0.0069,
5.901574,-0.5150,0.8297,-0.4490,-2.0554,-0.2040,-0.1871,-0.2370,-0.6061,-0.2296,
5.918739,-0.5150,0.8297,-0.4490,-2.0554,-0.2040,-0.1871,-0.4277,-0.7899,-0.2882,
5.938669,-0.4046,0.8619,-0.3183,-2.0554,-0.2040,-0.1871,-0.4277,-0.7899,-0.2882,
5.939907,-0.4046,0.8619,-0.3183,-0.7720,0.0894,0.8967,-0.4277,-0.7899,-0.2882,
5.940777,-0.4046,0.8619,-0.3183,-0.7720,0.0894,0.8967,-0.5619,-0.8538,-0.2839,
5.958617,-0.4046,0.8619,-0.3183,-0.7720,0.0894,0.8967,-0.5752,-0.8096,-0.3159,
5.979228,-0.1361,0.7129,-0.2365,-0.7720,0.0894,0.8967,-0.5752,-0.8096,-0.3159,
5.981288,-0.1361,0.7129,-0.2365,2.0690,-1.4337,1.3833,-0.5752,-0.8096,-0.3159,
5.983032,-0.1361,0.7129,-0.2365,2.0690,-1.4337,1.3833,-0.4101,-0.7302,-0.3313,
5.999740,-0.1361,0.7129,-0.2365,2.0690,-1.4337,1.3833,-0.1108,-0.5364,-0.2882,
6.019315,-0.1136,0.5592,-0.4327,2.0690,-1.4337,1.3833,-0.1108,-0.5364,-0.2882,
6.021688,-0.1136,0.5592,-0.4327,2.4846,-2.9340,-0.7153,-0.1108,-0.5364,-0.2882,
6.023529,-0.1136,0.5592,-0.4327,2.4846,-2.9340,-0.7153,-0.0138,-0.4666,-0.2557,
6.038751,-0.1136,0.5592,-0.4327,2.4846,-2.9340,-0.7153,-0.1364,-0.5087,-0.2903,
6.059419,-0.2748,0.5883,-0.2888,2.4846,-2.9340,-0.7153,-0.1364,-0.5087,-0.2903,
6.061594,-0.2748,0.5883,-0.2888,1.0638,-2.6194,0.5981,-0.1364,-0.5087,-0.2903,
6.063424,-0.2748,0.5883,-0.2888,1.0638,-2.6194,0.5981,-0.1955,-0.5156,-0.3409,
6.078972,-0.2748,0.5883,-0.2888,1.0638,-2.6194,0.5981,-0.1156,-0.4591,-0.3260,
6.099046,-0.2682,0.6330,-0.1568,1.0638,-2.6194,0.5981,-0.1156,-0.4591,-0.3260,
6.101290,-0.2682,0.6330,-0.1568,1.3054,-2.1509,1.7641,-0.1156,-0.4591,-0.3260,
6.103602,-0.2682,0.6330,-0.1568,1.3054,-2.1509,1.7641,0.0330,-0.4373,-0.2594,
6.118731,-0.2682,0.6330,-0.1568,1.3054,-2.1509,1.7641,0.1220,-0.4879,-0.1987,
6.138972,-0.2035,0.6022,-0.1720,1.3054,-2.1509,1.7641,0.1220,-0.4879,-0.1987,
6.140597,-0.2035,0.6022,-0.1720,2.0766,-2.4059,1.5674,0.1220,-0.4879,-0.1987,
6.142031,-0.2035,0.6022,-0.1720,2.0766,-2.4059,1.5674,0.0948,-0.5507,-0.1646,
6.159057,-0.2035,0.6022,-0.1720,2.0766,-2.4059,1.5674,0.0586,-0.4607,-0.1465,
6.178880,-0.2086,0.6481,-0.1642,2.0766,-2.4059,1.5674,0.0586,-0.4607,-0.1465,
6.180976,-0.2086,0.6481,-0.1642,2.1430,-1.9202,1.5860,0.0586,-0.4607,-0.1465,
6.182491,-0.2086,0.6481,-0.1642,2.1430,-1.9202,1.5860,0.0394,-0.3579,-0.1523,
6.199427,-0.2086,0.6481,-0.1642,2.1430,-1.9202,1.5860,-0.0144,-0.4256,-0.1417,
6.218975,-0.2800,0.8917,-0.1300,2.1430,-1.9202,1.5860,-0.0144,-0.4256,-0.1417,
6.221168,-0.2800,0.8917,-0.1300,1.5419,0.4933,1.8590,-0.0144,-0.4256,-0.1417,
6.222906,-0.2800,0.8917,-0.1300,1.5419,0.4933,1.8590,-0.1433,-0.5726,-0.1241,
6.239335,-0.2800,0.8917,-0.1300,1.5419,0.4933,1.8590,-0.3254,-0.6860,-0.0405,
6.258182,-0.4977,1.4414,-0.0760,1.5419,0.4933,1.8590,-0.3254,-0.6860,-0.0405,
6.260274,-0.4977,1.4414,-0.0760,-0.4877,5.8661,2.2019,-0.3254,-0.6860,-0.0405,
6.262123,-0.4977,1.4414,-0.0760,-0.4877,5.8661,2.2019,-0.5433,-0.8304,0.0975,
6.278446,-0.4977,1.4414,-0.0760,-0.4877,5.8661,2.2019,-0.8005,-0.4783,0.4543,
6.298702,-1.1575,2.1584,-0.2502,-0.4877,5.8661,2.2019,-0.8005,-0.4783,0.4543,
6.300942,-1.1575,2.1584,-0.2502,-6.9729,12.7704,0.1565,-0.8005,-0.4783,0.4543,
6.303044,-1.1575,2.1584,-0.2502,-6.9729,12.7704,0.1565,-0.7659,1.7492,0.8085,
6.319406,-1.1575,2.1584,-0.2502,-6.9729,12.7704,0.1565,-0.4900,2.5609,0.5635,
6.338326,-0.8878,1.0075,-0.1918,-6.9729,12.7704,0.1565,-0.4900,2.5609,0.5635,
6.340706,-0.8878,1.0075,-0.1918,-4.7910,1.3109,0.8708,-0.4900,2.5609,0.5635,
6.342298,-0.8878,1.0075,-0.1918,-4.7910,1.3109,0.8708,-0.3888,1.3358,0.2072,
6.358284,-0.8878,1.0075,-0.1918,-4.7910,1.3109,0.8708,-0.4027,0.4879,-0.0298,
6.378017,-0.5629,0.7490,-0.4522,-4.7910,1.3109,0.8708,-0.4027,0.4879,-0.0298,
6.380566,-0.5629,0.7490,-0.4522,-1.7380,-1.2797,-1.6775,-0.4027,0.4879,-0.0298,
6.382366,-0.5629,0.7490,-0.4522,-1.7380,-1.2797,-1.6775,-0.0581,0.0959,-0.0032,
6.398600,-0.5629,0.7490,-0.4522,-1.7380,-1.2797,-1.6775,0.2562,-0.0708,0.2338,
6.418821,-0.1976,0.8988,-0.2856,-1.7380,-1.2797,-1.6775,0.2562,-0.0708,0.2338,
6.421308,-0.1976,0.8988,-0.2856,1.8003,0.1817,-0.0086,0.2562,-0.0708,0.2338,
6.423082,-0.1976,0.8988,-0.2856,1.8003,0.1817,-0.0086,0.0826,-0.1529,0.1635,
6.439272,-0.1976,0.8988,-0.2856,1.8003,0.1817,-0.0086,-0.1763,-0.1987,0.0373,
6.458362,-0.4226,0.7178,-0.0222,1.8003,0.1817,-0.0086,-0.1763,-0.1987,0.0373,
6.461936,-0.4226,0.7178,-0.0222,-0.3901,-1.6121,2.4906,-0.1763,-0.1987,0.0373,
6.464089,-0.4226,0.7178,-0.0222,-0.3901,-1.6121,2.4906,-0.3095,0.0703,0.0112,
6.478702,-0.4226,0.7178,-0.0222,-0.3901,-1.6121,2.4906,-0.1710,0.2722,0.0352,
6.498838,-0.3200,0.6259,-0.0296,-0.3901,-1.6121,2.4906,-0.1710,0.2722,0.0352,
6.501354,-0.3200,0.6259,-0.0296,0.5892,-2.5415,2.3612,-0.1710,0.2722,0.0352,
6.503192,-0.3200,0.6259,-0.0296,0.5892,-2.5415,2.3612,0.1545,0.1294,0.1358,
6.521666,-0.3200,0.6259,-0.0296,0.5892,-2.5415,2.3612,0.3377,-0.0202,0.1907,
6.538400,-0.2257,0.5949,-0.2409,0.5892,-2.5415,2.3612,0.3377,-0.0202,0.1907,
6.540674,-0.2257,0.5949,-0.2409,1.4510,-2.8431,0.3836,0.3377,-0.0202,0.1907,
6.542558,-0.2257,0.5949,-0.2409,1.4510,-2.8431,0.3836,0.3792,-0.0469,0.1694,
6.558417,-0.2257,0.5949,-0.2409,1.4510,-2.8431,0.3836,0.4293,-0.1635,0.1119,
6.578562,-0.2790,0.5512,-0.1329,1.4510,-2.8431,0.3836,0.4293,-0.1635,0.1119,
6.580851,-0.2790,0.5512,-0.1329,0.8923,-3.2467,1.5664,0.4293,-0.1635,0.1119,
6.582690,-0.2790,0.5512,-0.1329,0.8923,-3.2467,1.5664,0.4634,-0.2684,0.0634,
6.598490,-0.2790,0.5512,-0.1329,0.8923,-3.2467,1.5664,0.3771,-0.3318,0.0543,
6.618446,-0.1735,0.4725,-0.0100,0.8923,-3.2467,1.5664,0.3771,-0.3318,0.0543,
6.621523,-0.1735,0.4725,-0.0100,1.9414,-3.9772,2.8720,0.3771,-0.3318,0.0543,
6.623743,-0.1735,0.4725,-0.0100,1.9414,-3.9772,2.8720,0.2738,-0.2860,0.0447,
6.637925,-0.1735,0.4725,-0.0100,1.9414,-3.9772,2.8720,0.2732,-0.1108,0.0511,
6.658365,-0.1930,0.4613,0.0445,1.9414,-3.9772,2.8720,0.2732,-0.1108,0.0511,
6.660490,-0.1930,0.4613,0.0445,1.7571,-4.0615,3.4709,0.2732,-0.1108,0.0511,
6.662333,-0.1930,0.4613,0.0445,1.7571,-4.0615,3.4709,0.3318,-0.0927,0.1337,
6.678359,-0.1930,0.4613,0.0445,1.7571,-4.0615,3.4709,0.3206,-0.2434,0.1300,
6.698011,-0.2463,0.8663,0.1141,1.7571,-4.0615,3.4709,0.3206,-0.2434,0.1300,
6.700657,-0.2463,0.8663,0.1141,1.2108,-0.0709,4.2406,0.3206,-0.2434,0.1300,
6.702617,-0.2463,0.8663,0.1141,1.2108,-0.0709,4.2406,0.3329,-0.4304,0.1641,
6.717635,-0.2463,0.8663,0.1141,1.2108,-0.0709,4.2406,0.3968,-0.4543,0.1625,
6.737605,-0.3464,1.5120,-0.1300,1.2108,-0.0709,4.2406,0.3968,-0.4543,0.1625,
6.739778,-0.3464,1.5120,-0.1300,0.2209,6.2663,1.8837,0.3968,-0.4543,0.1625,
6.741409,-0.3464,1.5120,-0.1300,0.2209,6.2663,1.8837,0.4778,-0.0426,0.1715,
6.757450,-0.3464,1.5120,-0.1300,0.2209,6.2663,1.8837,0.6621,0.7942,0.1582,
6.777971,-0.4273,2.1191,-0.9433,0.2209,6.2663,1.8837,0.6621,0.7942,0.1582,
6.780962,-0.4273,2.1191,-0.9433,-0.6778,12.2668,-5.8390,0.6621,0.7942,0.1582,
6.783295,-0.4273,2.1191,-0.9433,-0.6778,12.2668,-5.8390,0.6317,1.1478,0.0597,
6.797881,-0.4273,2.1191,-0.9433,-0.6778,12.2668,-5.8390,0.2344,0.6317,-0.0117,
6.818033,-0.3240,1.0762,-0.6244,-0.6778,12.2668,-5.8390,0.2344,0.6317,-0.0117,
6.820551,-0.3240,1.0762,-0.6244,0.2008,2.1037,-2.4458,0.2344,0.6317,-0.0117,
6.822138,-0.3240,1.0762,-0.6244,0.2008,2.1037,-2.4458,0.1806,-0.2812,-0.0820,
6.837773,-0.3240,1.0762,-0.6244,0.2008,2.1037,-2.4458,0.0431,-1.0812,-0.1108,
6.857518,-0.4292,0.9066,-0.3428,0.2008,2.1037,-2.4458,0.0431,-1.0812,-0.1108,
6.860064,-0.4292,0.9066,-0.3428,-0.6992,0.4718,0.2587,0.0431,-1.0812,-0.1108,
6.861720,-0.4292,0.9066,-0.3428,-0.6992,0.4718,0.2587,-0.3020,-1.3353,-0.1401,
6.877910,-0.4292,0.9066,-0.3428,-0.6992,0.4718,0.2587,-0.5071,-1.0466,-0.2194,
6.898092,-0.2966,0.9042,-0.1737,-0.6992,0.4718,0.2587,-0.5071,-1.0466,-0.2194,
6.901548,-0.2966,0.9042,-0.1737,0.8268,0.4182,1.6072,-0.5071,-1.0466,-0.2194,
6.903690,-0.2966,0.9042,-0.1737,0.8268,0.4182,1.6072,-0.5449,-0.8192,-0.2690,
6.921473,-0.2966,0.9042,-0.1737,0.8268,0.4182,1.6072,-0.3835,-0.7377,-0.3345,
6.937780,-0.1427,0.6953,-0.2685,0.8268,0.4182,1.6072,-0.3835,-0.7377,-0.3345,
6.940553,-0.1427,0.6953,-0.2685,2.4964,-1.6594,0.4030,-0.3835,-0.7377,-0.3345,
6.942717,-0.1427,0.6953,-0.2685,2.4964,-1.6594,0.4030,-0.1065,-0.7654,-0.3105,
6.957676,-0.1427,0.6953,-0.2685,2.4964,-1.6594,0.4030,0.0650,-0.8932,-0.2019,
6.977621,-0.1280,0.5184,-0.4312,2.4964,-1.6594,0.4030,0.0650,-0.8932,-0.2019,
6.980702,-0.1280,0.5184,-0.4312,2.8246,-3.3546,-1.3309,0.0650,-0.8932,-0.2019,
6.982434,-0.1280,0.5184,-0.4312,2.8246,-3.3546,-1.3309,0.1401,-0.8666,-0.1395,
6.998363,-0.1280,0.5184,-0.4312,2.8246,-3.3546,-1.3309,0.1976,-0.6743,-0.1380,
7.018378,-0.2123,0.5910,-0.2404,2.8246,-3.3546,-1.3309,0.1976,-0.6743,-0.1380,
7.022023,-0.2123,0.5910,-0.2404,2.1331,-2.6013,0.4681,0.1976,-0.6743,-0.1380,
7.024474,-0.2123,0.5910,-0.2404,2.1331,-2.6013,0.4681,0.2104,-0.6701,-0.1491,
7.037598,-0.2123,0.5910,-0.2404,2.1331,-2.6013,0.4681,0.1987,-0.7867,-0.1481,
7.058400,-0.1564,0.5898,-0.0972,2.1331,-2.6013,0.4681,0.1987,-0.7867,-0.1481,
7.061859,-0.1564,0.5898,-0.0972,2.8125,-2.5650,1.8150,0.1987,-0.7867,-0.1481,
7.063679,-0.1564,0.5898,-0.0972,2.8125,-2.5650,1.8150,0.3190,-0.8320,-0.0916,
7.078128,-0.1564,0.5898,-0.0972,2.8125,-2.5650,1.8150,0.4623,-0.7824,-0.0394,
7.097591,-0.1715,0.6929,-0.1441,2.8125,-2.5650,1.8150,0.4623,-0.7824,-0.0394,
7.100102,-0.1715,0.6929,-0.1441,2.7747,-1.5002,1.3431,0.4623,-0.7824,-0.0394,
7.101780,-0.1715,0.6929,-0.1441,2.7747,-1.5002,1.3431,0.5172,-0.8442,-0.0112,
7.117302,-0.1715,0.6929,-0.1441,2.7747,-1.5002,1.3431,0.4927,-0.9737,-0.0176,
7.137660,-0.3591,1.1414,-0.1407,2.7747,-1.5002,1.3431,0.4927,-0.9737,-0.0176,
7.139925,-0.3591,1.1414,-0.1407,1.0281,2.9445,1.3728,0.4927,-0.9737,-0.0176,
7.141642,-0.3591,1.1414,-0.1407,1.0281,2.9445,1.3728,0.4139,-0.9923,0.0197,
7.158087,-0.3591,1.1414,-0.1407,1.0281,2.9445,1.3728,0.3622,-0.8096,0.1140,
7.177155,-0.6897,1.5296,-0.1515,1.0281,2.9445,1.3728,0.3622,-0.8096,0.1140,
7.180050,-0.6897,1.5296,-0.1515,-2.1349,6.7789,1.2297,0.3622,-0.8096,0.1140,
7.182092,-0.6897,1.5296,-0.1515,-2.1349,6.7789,1.2297,0.3153,-0.4602,0.2748,
7.197597,-0.6897,1.5296,-0.1515,-2.1349,6.7789,1.2297,0.2514,0.3835,0.4618,
7.216935,-0.9496,1.5191,-0.3149,-2.1349,6.7789,1.2297,0.2514,0.3835,0.4618,
7.219250,-0.9496,1.5191,-0.3149,-4.7994,6.6397,-0.2865,0.2514,0.3835,0.4618,
7.221040,-0.9496,1.5191,-0.3149,-4.7994,6.6397,-0.2865,0.2104,1.0823,0.5326,
7.236830,-0.9496,1.5191,-0.3149,-4.7994,6.6397,-0.2865,0.1768,0.9763,0.4064,
7.256978,-0.6100,1.0236,-0.4630,-4.7994,6.6397,-0.2865,0.1768,0.9763,0.4064,
7.260087,-0.6100,1.0236,-0.4630,-1.7469,1.7248,-1.4938,0.1768,0.9763,0.4064,
7.261654,-0.6100,1.0236,-0.4630,-1.7469,1.7248,-1.4938,0.3169,0.1832,0.0724,
7.276674,-0.6100,1.0236,-0.4630,-1.7469,1.7248,-1.4938,0.4565,-0.4373,0.0314,
7.297454,-0.3369,1.0251,-0.2875,-1.7469,1.7248,-1.4938,0.4565,-0.4373,0.0314,
7.299889,-0.3369,1.0251,-0.2875,0.9287,1.7784,0.3319,0.4565,-0.4373,0.0314,
7.301444,-0.3369,1.0251,-0.2875,0.9287,1.7784,0.3319,0.3665,-0.6152,0.0724,
7.319296,-0.3369,1.0251,-0.2875,0.9287,1.7784,0.3319,0.1960,-0.5369,0.1587,
7.337033,-0.2810,0.8284,-0.0948,0.9287,1.7784,0.3319,0.1960,-0.5369,0.1587,
7.339940,-0.2810,0.8284,-0.0948,1.5105,-0.1343,2.2140,0.1960,-0.5369,0.1587,
7.341983,-0.2810,0.8284,-0.0948,1.5105,-0.1343,2.2140,0.1555,-0.4256,0.2131,
7.357074,-0.2810,0.8284,-0.0948,1.5105,-0.1343,2.2140,0.1907,-0.4144,0.2674,
7.376751,-0.2722,0.6929,-0.1549,1.5105,-0.1343,2.2140,0.1907,-0.4144,0.2674,
7.379442,-0.2722,0.6929,-0.1549,1.5581,-1.4970,1.5875,0.1907,-0.4144,0.2674,
7.380997,-0.2722,0.6929,-0.1549,1.5581,-1.4970,1.5875,0.2381,-0.4831,0.2621,
7.396804,-0.2722,0.6929,-0.1549,1.5581,-1.4970,1.5875,0.2381,-0.6541,0.2716,
7.417588,-0.3049,0.5653,-0.2629,1.5581,-1.4970,1.5875,0.2381,-0.6541,0.2716,
7.419830,-0.3049,0.5653,-0.2629,1.2193,-2.7622,0.5124,0.2381,-0.6541,0.2716,
7.421620,-0.3049,0.5653,-0.2629,1.2193,-2.7622,0.5124,0.1747,-0.7691,0.2546,
7.436751,-0.3049,0.5653,-0.2629,1.2193,-2.7622,0.5124,0.1161,-0.7819,0.2354,
7.457012,-0.3061,0.5314,-0.2668,1.2193,-2.7622,0.5124,0.1161,-0.7819,0.2354,
7.460143,-0.3061,0.5314,-0.2668,1.2205,-3.1185,0.3918,0.1161,-0.7819,0.2354,
7.462330,-0.3061,0.5314,-0.2668,1.2205,-3.1185,0.3918,0.1417,-0.7270,0.2349,
7.476725,-0.3061,0.5314,-0.2668,1.2205,-3.1185,0.3918,0.2189,-0.6280,0.3084,
7.497147,-0.2824,0.6560,-0.3249,1.2205,-3.1185,0.3918,0.2189,-0.6280,0.3084,
7.499925,-0.2824,0.6560,-0.3249,1.4427,-1.9219,-0.2321,0.2189,-0.6280,0.3084,
7.501774,-0.2824,0.6560,-0.3249,1.4427,-1.9219,-0.2321,0.2754,-0.5689,0.3260,
7.520684,-0.2824,0.6560,-0.3249,1.4427,-1.9219,-0.2321,0.2887,-0.5550,0.2855,
7.537382,-0.3987,0.7082,-0.2995,1.4427,-1.9219,-0.2321,0.2887,-0.5550,0.2855,
7.540854,-0.3987,0.7082,-0.2995,0.2672,-1.4274,0.0170,0.2887,-0.5550,0.2855,
7.542930,-0.3987,0.7082,-0.2995,0.2672,-1.4274,0.0170,0.2615,-0.5060,0.2535,
7.557140,-0.3987,0.7082,-0.2995,0.2672,-1.4274,0.0170,0.1939,-0.3803,0.2461,
7.577423,-0.4297,0.6755,-0.3115,0.2672,-1.4274,0.0170,0.1939,-0.3803,0.2461,
7.579665,-0.4297,0.6755,-0.3115,-0.0681,-1.7629,-0.0978,0.1939,-0.3803,0.2461,
7.581685,-0.4297,0.6755,-0.3115,-0.0681,-1.7629,-0.0978,0.1593,-0.2642,0.2360,
7.596903,-0.4297,0.6755,-0.3115,-0.0681,-1.7629,-0.0978,0.1928,-0.2663,0.2072,
7.616899,-0.4175,0.5846,-0.1964,-0.0681,-1.7629,-0.0978,0.1928,-0.2663,0.2072,
7.619561,-0.4175,0.5846,-0.1964,0.0087,-2.6692,1.0452,0.1928,-0.2663,0.2072,
7.621294,-0.4175,0.5846,-0.1964,0.0087,-2.6692,1.0452,0.2796,-0.3164,0.1917,
7.636962,-0.4175,0.5846,-0.1964,0.0087,-2.6692,1.0452,0.4282,-0.4181,0.2013,
7.656651,-0.1989,0.6330,0.0872,0.0087,-2.6692,1.0452,0.4282,-0.4181,0.2013,
7.660013,-0.1989,0.6330,0.0872,2.1296,-2.1849,3.8836,0.4282,-0.4181,0.2013,
7.661707,-0.1989,0.6330,0.0872,2.1296,-2.1849,3.8836,0.4650,-0.8112,0.1997,
7.676650,-0.1989,0.6330,0.0872,2.1296,-2.1849,3.8836,0.2887,-1.2240,0.1571,
7.696326,-0.1275,1.2995,0.0638,2.1296,-2.1849,3.8836,0.2887,-1.2240,0.1571,
7.699646,-0.1275,1.2995,0.0638,2.8704,4.3398,3.5778,0.2887,-1.2240,0.1571,
7.701803,-0.1275,1.2995,0.0638,2.8704,4.3398,3.5778,0.0980,-1.5393,0.1694,
7.718180,-0.1275,1.2995,0.0638,2.8704,4.3398,3.5778,0.0341,-1.3220,0.2461,
7.736594,-0.3064,2.5552,-0.3486,2.8704,4.3398,3.5778,0.0341,-1.3220,0.2461,
7.738703,-0.3064,2.5552,-0.3486,1.2108,16.6189,-0.6799,0.0341,-1.3220,0.2461,
7.740437,-0.3064,2.5552,-0.3486,1.2108,16.6189,-0.6799,0.0261,-0.3079,0.3505,
7.756487,-0.3064,2.5552,-0.3486,1.2108,16.6189,-0.6799,-0.2732,0.2551,0.4969,
7.776373,-0.1937,1.7219,-0.4867,1.2108,16.6189,-0.6799,-0.2732,0.2551,0.4969,
7.779929,-0.1937,1.7219,-0.4867,2.1743,8.3687,-2.0793,-0.2732,0.2551,0.4969,
7.781441,-0.1937,1.7219,-0.4867,2.1743,8.3687,-2.0793,0.3329,-0.3457,0.6429,
7.797501,-0.1937,1.7219,-0.4867,2.1743,8.3687,-2.0793,1.3619,-1.5255,0.5742,
7.816467,-0.3911,1.1570,-0.4715,2.1743,8.3687,-2.0793,1.3619,-1.5255,0.5742,
7.818414,-0.3911,1.1570,-0.4715,0.1358,2.8294,-1.7913,1.3619,-1.5255,0.5742,
7.819443,-0.3911,1.1570,-0.4715,0.1358,2.8294,-1.7913,1.2192,-2.3963,0.5768,
7.835973,-0.3911,1.1570,-0.4715,0.1358,2.8294,-1.7913,0.6770,-2.4512,0.5433,
7.856411,-0.2321,0.8658,-0.1854,0.1358,2.8294,-1.7913,0.6770,-2.4512,0.5433,
7.857915,-0.2321,0.8658,-0.1854,1.7775,-0.0071,0.9459,0.6770,-2.4512,0.5433,
7.858972,-0.2321,0.8658,-0.1854,1.7775,-0.0071,0.9459,0.3633,-2.0043,0.4645,
7.876363,-0.2321,0.8658,-0.1854,1.7775,-0.0071,0.9459,0.2738,-1.6533,0.4336,
7.896623,-0.1366,0.5094,-0.0933,1.7775,-0.0071,0.9459,0.2738,-1.6533,0.4336,
7.898887,-0.1366,0.5094,-0.0933,2.7204,-3.5586,1.6517,0.2738,-1.6533,0.4336,
7.900586,-0.1366,0.5094,-0.0933,2.7204,-3.5586,1.6517,0.2653,-1.4813,0.3830,
7.916852,-0.1366,0.5094,-0.0933,2.7204,-3.5586,1.6517,0.2423,-1.4376,0.3190,
7.936386,-0.1385,0.3943,-0.1786,2.7204,-3.5586,1.6517,0.2423,-1.4376,0.3190,
7.938512,-0.1385,0.3943,-0.1786,2.7264,-4.7180,0.6659,0.2423,-1.4376,0.3190,
7.940311,-0.1385,0.3943,-0.1786,2.7264,-4.7180,0.6659,0.1587,-1.3492,0.2711,
7.956131,-0.1385,0.3943,-0.1786,2.7264,-4.7180,0.6659,0.0687,-1.1963,0.2402,
7.976319,-0.1932,0.5480,-0.2103,2.7264,-4.7180,0.6659,0.0687,-1.1963,0.2402,
7.979289,-0.1932,0.5480,-0.2103,2.2210,-3.2433,0.1852,0.0687,-1.1963,0.2402,
7.981133,-0.1932,0.5480,-0.2103,2.2210,-3.2433,0.1852,0.0314,-1.0567,0.1513,
7.996519,-0.1932,0.5480,-0.2103,2.2210,-3.2433,0.1852,0.0495,-0.9081,0.0820,
8.016494,-0.2985,0.7214,-0.3525,2.2210,-3.2433,0.1852,0.0495,-0.9081,0.0820,
8.018986,-0.2985,0.7214,-0.3525,1.2341,-1.5591,-1.3565,0.0495,-0.9081,0.0820,
8.020807,-0.2985,0.7214,-0.3525,1.2341,-1.5591,-1.3565,0.0794,-0.7601,-0.0245,
8.036713,-0.2985,0.7214,-0.3525,1.2341,-1.5591,-1.3565,0.0202,-0.7643,-0.1209,
8.056698,-0.4441,0.8793,-0.5626,1.2341,-1.5591,-1.3565,0.0202,-0.7643,-0.1209,
8.059119,-0.4441,0.8793,-0.5626,-0.1088,0.0050,-3.5142,0.0202,-0.7643,-0.1209,
8.060987,-0.4441,0.8793,-0.5626,-0.1088,0.0050,-3.5142,-0.0756,-0.9518,-0.2407,
8.075906,-0.4441,0.8793,-0.5626,-0.1088,0.0050,-3.5142,-0.0021,-0.9055,-0.3899,
8.095862,-0.5106,1.0784,-0.5458,-0.1088,0.0050,-3.5142,-0.0021,-0.9055,-0.3899,
8.098260,-0.5106,1.0784,-0.5458,-0.5849,2.0091,-3.5080,-0.0021,-0.9055,-0.3899,
8.100000,-0.5106,1.0784,-0.5458,-0.5849,2.0091,-3.5080,0.2099,-0.6807,-0.4197,
8.116249,-0.5106,1.0784,-0.5458,-0.5849,2.0091,-3.5080,0.3276,-0.5412,-0.3808,
8.136331,-0.3020,1.0302,-0.5866,-0.5849,2.0091,-3.5080,0.3276,-0.5412,-0.3808,
8.138688,-0.3020,1.0302,-0.5866,1.6404,1.6291,-3.9265,0.3276,-0.5412,-0.3808,
8.140380,-0.3020,1.0302,-0.5866,1.6404,1.6291,-3.9265,0.2583,-0.5444,-0.4027,
8.155873,-0.3020,1.0302,-0.5866,1.6404,1.6291,-3.9265,0.1497,-0.7526,-0.4506,
8.175908,-0.3271,1.2486,-0.2201,1.6404,1.6291,-3.9265,0.1497,-0.7526,-0.4506,
8.179093,-0.3271,1.2486,-0.2201,1.5840,3.8643,-0.3882,0.1497,-0.7526,-0.4506,
8.180474,-0.3271,1.2486,-0.2201,1.5840,3.8643,-0.3882,0.2413,-1.1958,-0.3878,
8.196109,-0.3271,1.2486,-0.2201,1.5840,3.8643,-0.3882,0.3654,-1.9888,-0.1119,
8.216295,-0.2270,1.6620,0.0838,1.5840,3.8643,-0.3882,0.3654,-1.9888,-0.1119,
8.219073,-0.2270,1.6620,0.0838,2.7548,7.9840,2.3793,0.3654,-1.9888,-0.1119,
8.220870,-0.2270,1.6620,0.0838,2.7548,7.9840,2.3793,0.4128,-2.5098,0.1209,
8.236341,-0.2270,1.6620,0.0838,2.7548,7.9840,2.3793,0.4559,-2.4522,0.2780,
8.256629,0.2086,0.8744,0.0814,2.7548,7.9840,2.3793,0.4559,-2.4522,0.2780,
8.260039,0.2086,0.8744,0.0814,7.0942,0.2489,2.0017,0.4559,-2.4522,0.2780,
8.261555,0.2086,0.8744,0.0814,7.0942,0.2489,2.0017,0.4064,-1.9361,0.3941,
8.275687,0.2086,0.8744,0.0814,7.0942,0.2489,2.0017,0.3830,-2.0464,0.2663,
8.296112,-0.1972,1.1094,0.1832,7.0942,0.2489,2.0017,0.3830,-2.0464,0.2663,
8.298525,-0.1972,1.1094,0.1832,3.0926,2.5026,2.7314,0.3830,-2.0464,0.2663,
8.299996,-0.1972,1.1094,0.1832,3.0926,2.5026,2.7314,0.5257,-1.7635,0.1326,
8.316294,-0.1972,1.1094,0.1832,3.0926,2.5026,2.7314,0.8442,-1.3976,0.0559,
8.336032,-0.5946,1.1414,0.1754,3.0926,2.5026,2.7314,0.8442,-1.3976,0.0559,
8.338191,-0.5946,1.1414,0.1754,-0.7793,2.8209,2.5658,0.8442,-1.3976,0.0559,
8.339960,-0.5946,1.1414,0.1754,-0.7793,2.8209,2.5658,1.1675,-1.2810,0.0346,
8.355605,-0.5946,1.1414,0.1754,-0.7793,2.8209,2.5658,1.3694,-1.3295,0.0810,
8.375625,-0.3853,0.8692,-0.0801,-0.7793,2.8209,2.5658,1.3694,-1.3295,0.0810,
8.379221,-0.3853,0.8692,-0.0801,1.2859,0.1783,0.2100,1.3694,-1.3295,0.0810,
8.380900,-0.3853,0.8692,-0.0801,1.2859,0.1783,0.2100,1.3524,-1.6687,0.1422,
8.395390,-0.3853,0.8692,-0.0801,1.2859,0.1783,0.2100,1.0418,-2.2759,0.1214,
8.415329,-0.2475,0.7964,-0.0213,1.2859,0.1783,0.2100,1.0418,-2.2759,0.1214,
8.417950,-0.2475,0.7964,-0.0213,2.6204,-0.5483,0.7569,1.0418,-2.2759,0.1214,
8.419557,-0.2475,0.7964,-0.0213,2.6204,-0.5483,0.7569,0.9641,-2.4166,0.1028,
8.436704,-0.2475,0.7964,-0.0213,2.6204,-0.5483,0.7569,1.1073,-2.6221,0.1305,
8.456210,-0.2089,0.8609,0.0252,2.6204,-0.5483,0.7569,1.1073,-2.6221,0.1305,
8.458570,-0.2089,0.8609,0.0252,3.0224,0.0796,1.0356,1.1073,-2.6221,0.1305,
8.460151,-0.2089,0.8609,0.0252,3.0224,0.0796,1.0356,1.1654,-2.8661,0.1630,
8.476329,-0.2089,0.8609,0.0252,3.0224,0.0796,1.0356,1.1606,-2.6626,0.2109,
8.495759,-0.2946,0.8592,0.0164,3.0224,0.0796,1.0356,1.1606,-2.6626,0.2109,
8.498767,-0.2946,0.8592,0.0164,2.1793,0.0462,0.7699,1.1606,-2.6626,0.2109,
8.500529,-0.2946,0.8592,0.0164,2.1793,0.0462,0.7699,1.1313,-2.4741,0.2951,
8.516535,-0.2946,0.8592,0.0164,2.1793,0.0462,0.7699,1.0914,-2.4624,0.3707,
8.535921,-0.4104,0.8358,-0.0051,2.1793,0.0462,0.7699,1.0914,-2.4624,0.3707,
8.538240,-0.4104,0.8358,-0.0051,0.9738,-0.2343,0.4296,1.0914,-2.4624,0.3707,
8.540005,-0.4104,0.8358,-0.0051,0.9738,-0.2343,0.4296,1.0557,-2.4703,0.3808,
8.556564,-0.4104,0.8358,-0.0051,0.9738,-0.2343,0.4296,1.0679,-2.3654,0.3808,
8.575065,-0.5592,0.7974,-0.1087,0.9738,-0.2343,0.4296,1.0679,-2.3654,0.3808,
8.577785,-0.5592,0.7974,-0.1087,-0.8902,-0.8406,-0.6331,1.0679,-2.3654,0.3808,
8.579677,-0.5592,0.7974,-0.1087,-0.8902,-0.8406,-0.6331,1.0440,-2.0725,0.4186,
8.595361,-0.5592,0.7974,-0.1087,-0.8902,-0.8406,-0.6331,0.9486,-1.7390,0.4463,
8.615754,-0.5822,0.6953,-0.2636,-0.8902,-0.8406,-0.6331,0.9486,-1.7390,0.4463,
8.619718,-0.5822,0.6953,-0.2636,-1.2233,-1.8972,-2.1387,0.9486,-1.7390,0.4463,
8.621908,-0.5822,0.6953,-0.2636,-1.2233,-1.8972,-2.1387,0.7707,-1.4956,0.4186,
8.635534,-0.5822,0.6953,-0.2636,-1.2233,-1.8972,-2.1387,0.6077,-1.2996,0.3675,
8.656213,-0.6105,0.6772,-0.3303,-1.2233,-1.8972,-2.1387,0.6077,-1.2996,0.3675,
8.658863,-0.6105,0.6772,-0.3303,-1.5918,-2.1194,-2.7711,0.6077,-1.2996,0.3675,
8.660795,-0.6105,0.6772,-0.3303,-1.5918,-2.1194,-2.7711,0.5193,-1.1281,0.3212,
8.675879,-0.6105,0.6772,-0.3303,-1.5918,-2.1194,-2.7711,0.5358,-1.0333,0.3052,
8.695240,-0.4727,0.7683,-0.3840,-1.5918,-2.1194,-2.7711,0.5358,-1.0333,0.3052,
8.697856,-0.4727,0.7683,-0.3840,-0.3110,-1.2586,-3.2564,0.5358,-1.0333,0.3052,
8.699737,-0.4727,0.7683,-0.3840,-0.3110,-1.2586,-3.2564,0.5907,-1.0504,0.3372,
8.715356,-0.4727,0.7683,-0.3840,-0.3110,-1.2586,-3.2564,0.5454,-1.1324,0.3393,
8.735395,-0.3777,0.9235,-0.1720,-0.3110,-1.2586,-3.2564,0.5454,-1.1324,0.3393,
8.737925,-0.3777,0.9235,-0.1720,0.8988,0.7348,0.7359,0.5454,-1.1324,0.3393,
8.739514,-0.3777,0.9235,-0.1720,0.8988,0.7348,0.7359,0.4991,-1.3816,0.3249,
8.754804,-0.3777,0.9235,-0.1720,0.8988,0.7348,0.7359,0.5028,-1.4440,0.3521,
8.775197,-0.2839,1.1204,-0.1986,0.8988,0.7348,0.7359,0.5028,-1.4440,0.3521,
8.778842,-0.2839,1.1204,-0.1986,1.8185,2.6366,0.3764,0.5028,-1.4440,0.3521,
8.780309,-0.2839,1.1204,-0.1986,1.8185,2.6366,0.3764,0.5827,-1.3145,0.4234,
8.795072,-0.2839,1.1204,-0.1986,1.8185,2.6366,0.3764,0.6855,-1.1702,0.4890,
8.816024,-0.3428,1.0791,-0.4161,1.8185,2.6366,0.3764,0.6855,-1.1702,0.4890,
8.819801,-0.3428,1.0791,-0.4161,1.2037,2.2068,-1.7704,0.6855,-1.1702,0.4890,
8.822083,-0.3428,1.0791,-0.4161,1.2037,2.2068,-1.7704,0.7942,-1.2538,0.5214,
8.837858,-0.3428,1.0791,-0.4161,1.2037,2.2068,-1.7704,0.9555,-1.6442,0.5646,
8.855053,-0.5321,0.9455,-0.3953,1.2037,2.2068,-1.7704,0.9555,-1.6442,0.5646,
8.858812,-0.5321,0.9455,-0.3953,-0.6989,0.8800,-1.5366,0.9555,-1.6442,0.5646,
8.861097,-0.5321,0.9455,-0.3953,-0.6989,0.8800,-1.5366,1.1073,-2.0682,0.6083,
8.875006,-0.5321,0.9455,-0.3953,-0.6989,0.8800,-1.5366,1.2139,-2.2445,0.6232,
8.895419,-0.5675,1.1062,-0.2240,-0.6989,0.8800,-1.5366,1.2139,-2.2445,0.6232,
8.897873,-0.5675,1.1062,-0.2240,-1.0511,2.4528,0.1420,1.2139,-2.2445,0.6232,
8.899529,-0.5675,1.1062,-0.2240,-1.0511,2.4528,0.1420,1.2725,-2.2237,0.5630,
8.916090,-0.5675,1.1062,-0.2240,-1.0511,2.4528,0.1420,1.2906,-2.0506,0.6067,
8.935648,-0.3435,0.9631,-0.0337,-1.0511,2.4528,0.1420,1.2906,-2.0506,0.6067,
8.937838,-0.3435,0.9631,-0.0337,1.1496,1.0648,2.0504,1.2906,-2.0506,0.6067,
8.939445,-0.3435,0.9631,-0.0337,1.1496,1.0648,2.0504,1.2996,-2.0687,0.6988,
8.955648,-0.3435,0.9631,-0.0337,1.1496,1.0648,2.0504,1.0775,-2.4384,0.7015,
8.975262,-0.1586,0.9611,0.0423,1.1496,1.0648,2.0504,1.0775,-2.4384,0.7015,
8.978060,-0.1586,0.9611,0.0423,2.9072,1.0034,2.7491,1.0775,-2.4384,0.7015,
8.979648,-0.1586,0.9611,0.0423,2.9072,1.0034,2.7491,0.4634,-2.8485,0.5710,
8.995749,-0.1586,0.9611,0.0423,2.9072,1.0034,2.7491,-0.4788,-2.9305,0.4554,
9.016147,0.0127,1.3109,0.1937,2.9072,1.0034,2.7491,-0.4788,-2.9305,0.4554,
9.018294,0.0127,1.3109,0.1937,4.6563,4.3416,3.7115,-0.4788,-2.9305,0.4554,
9.019948,0.0127,1.3109,0.1937,4.6563,4.3416,3.7115,-1.1553,-2.5401,0.3553,
9.035277,0.0127,1.3109,0.1937,4.6563,4.3416,3.7115,-0.9055,-1.8546,0.2887,
9.055501,-0.1678,1.1729,0.1849,4.6563,4.3416,3.7115,-0.9055,-1.8546,0.2887,
9.057754,-0.1678,1.1729,0.1849,2.9033,2.8714,2.8738,-0.9055,-1.8546,0.2887,
9.059406,-0.1678,1.1729,0.1849,2.9033,2.8714,2.8738,0.2120,-0.2162,0.3718,
9.074875,-0.1678,1.1729,0.1849,2.9033,2.8714,2.8738,1.7497,1.7124,0.4964,
9.094634,-0.2922,0.9208,-0.4412,2.9033,2.8714,2.8738,1.7497,1.7124,0.4964,
9.096406,-0.2922,0.9208,-0.4412,1.4778,0.3645,-2.7936,1.7497,1.7124,0.4964,
9.097887,-0.2922,0.9208,-0.4412,1.4778,0.3645,-2.7936,2.8267,2.3175,0.6855,
9.114643,-0.2922,0.9208,-0.4412,1.4778,0.3645,-2.7936,1.6746,-0.1848,0.8405,
9.134613,-0.2245,0.5597,-0.5299,1.4778,0.3645,-2.7936,1.6746,-0.1848,0.8405,
9.136874,-0.2245,0.5597,-0.5299,1.7885,-3.1199,-2.7004,1.6746,-0.1848,0.8405,
9.138870,-0.2245,0.5597,-0.5299,1.7885,-3.1199,-2.7004,0.5033,-1.1899,0.6189,
9.155664,-0.2245,0.5597,-0.5299,1.7885,-3.1199,-2.7004,0.1630,-0.9689,0.4362,
9.175012,-0.2919,0.6496,-0.1400,1.7885,-3.1199,-2.7004,0.1630,-0.9689,0.4362,
9.177392,-0.2919,0.6496,-0.1400,1.0526,-2.2891,1.0653,0.1630,-0.9689,0.4362,
9.179207,-0.2919,0.6496,-0.1400,1.0526,-2.2891,1.0653,0.2019,-0.8432,0.3462,
9.194433,-0.2919,0.6496,-0.1400,1.0526,-2.2891,1.0653,0.2812,-0.9310,0.2855,
9.215196,-0.1263,0.7591,-0.2074,1.0526,-2.2891,1.0653,0.2812,-0.9310,0.2855,
9.219143,-0.1263,0.7591,-0.2074,2.6518,-1.2425,0.3500,0.2812,-0.9310,0.2855,
9.220919,-0.1263,0.7591,-0.2074,2.6518,-1.2425,0.3500,0.3121,-0.9065,0.2088,
9.234926,-0.1263,0.7591,-0.2074,2.6518,-1.2425,0.3500,0.3015,-0.7851,0.1060,
9.254072,-0.1397,0.7578,-0.3535,2.6518,-1.2425,0.3500,0.3015,-0.7851,0.1060,
9.256612,-0.1397,0.7578,-0.3535,2.5456,-1.2499,-1.1071,0.3015,-0.7851,0.1060,
9.258493,-0.1397,0.7578,-0.3535,2.5456,-1.2499,-1.1071,0.1960,-0.8501,-0.0059,
9.274030,-0.1397,0.7578,-0.3535,2.5456,-1.2499,-1.1071,0.1140,-0.9513,-0.0623,
9.294170,-0.2314,0.6953,-0.3323,2.5456,-1.2499,-1.1071,0.1140,-0.9513,-0.0623,
9.296671,-0.2314,0.6953,-0.3323,1.7430,-1.8430,-0.9876,0.1140,-0.9513,-0.0623,
9.298247,-0.2314,0.6953,-0.3323,1.7430,-1.8430,-0.9876,0.0975,-1.0743,-0.1241,
9.314673,-0.2314,0.6953,-0.3323,1.7430,-1.8430,-0.9876,0.0399,-1.1691,-0.2471,
9.334735,-0.2976,0.6481,-0.2426,1.7430,-1.8430,-0.9876,0.0399,-1.1691,-0.2471,
9.336934,-0.2976,0.6481,-0.2426,1.2564,-2.2686,-0.2684,0.0399,-1.1691,-0.2471,
9.338715,-0.2976,0.6481,-0.2426,1.2564,-2.2686,-0.2684,0.0096,-1.1175,-0.4378,
9.355421,-0.2976,0.6481,-0.2426,1.2564,-2.2686,-0.2684,0.1156,-0.9145,-0.5518,
9.374695,-0.3166,0.7060,-0.3264,1.2564,-2.2686,-0.2684,0.1156,-0.9145,-0.5518,
9.377824,-0.3166,0.7060,-0.3264,1.3215,-1.6111,-1.2423,0.1156,-0.9145,-0.5518,
9.379593,-0.3166,0.7060,-0.3264,1.3215,-1.6111,-1.2423,0.2035,-0.8378,-0.5886,
9.394485,-0.3166,0.7060,-0.3264,1.3215,-1.6111,-1.2423,0.2349,-0.8245,-0.5731,
9.415050,-0.2717,0.7781,-0.3025,1.3215,-1.6111,-1.2423,0.2349,-0.8245,-0.5731,
9.419082,-0.2717,0.7781,-0.3025,2.0222,-0.7824,-1.0847,0.2349,-0.8245,-0.5731,
9.421373,-0.2717,0.7781,-0.3025,2.0222,-0.7824,-1.0847,0.2040,-0.8021,-0.5507,
9.435050,-0.2717,0.7781,-0.3025,2.0222,-0.7824,-1.0847,0.1246,-0.7537,-0.4932,
9.455087,-0.3112,0.7317,-0.2499,2.0222,-0.7824,-1.0847,0.1246,-0.7537,-0.4932,
9.457621,-0.3112,0.7317,-0.2499,1.8655,-1.1251,-0.6644,0.1246,-0.7537,-0.4932,
9.459454,-0.3112,0.7317,-0.2499,1.8655,-1.1251,-0.6644,0.0810,-0.5577,-0.4378,
9.475008,-0.3112,0.7317,-0.2499,1.8655,-1.1251,-0.6644,0.0916,-0.2637,-0.3947,
9.494706,-0.3396,0.7124,-0.3454,1.8655,-1.1251,-0.6644,0.0916,-0.2637,-0.3947,
9.498275,-0.3396,0.7124,-0.3454,1.7538,-1.2251,-1.6539,0.0916,-0.2637,-0.3947,
9.500295,-0.3396,0.7124,-0.3454,1.7538,-1.2251,-1.6539,0.1023,-0.0186,-0.3638,
9.514141,-0.3396,0.7124,-0.3454,1.7538,-1.2251,-1.6539,0.0900,0.0911,-0.3451,
9.533826,-0.2954,0.5910,-0.2929,1.7538,-1.2251,-1.6539,0.0900,0.0911,-0.3451,
9.536455,-0.2954,0.5910,-0.2929,2.3002,-2.3355,-1.1002,0.0900,0.0911,-0.3451,
9.539003,-0.2954,0.5910,-0.2929,2.3002,-2.3355,-1.1002,0.0538,0.1635,-0.3451,
9.554253,-0.2954,0.5910,-0.2929,2.3002,-2.3355,-1.1002,0.0336,0.2626,-0.3515,
9.574021,-0.2551,0.7346,-0.1070,2.3002,-2.3355,-1.1002,0.0336,0.2626,-0.3515,
9.576425,-0.2551,0.7346,-0.1070,2.7925,-0.8516,0.7806,0.0336,0.2626,-0.3515,
9.578281,-0.2551,0.7346,-0.1070,2.7925,-0.8516,0.7806,0.0575,0.1699,-0.3079,
9.594424,-0.2551,0.7346,-0.1070,2.7925,-0.8516,0.7806,0.0005,-0.2120,-0.1678,
9.613792,-0.2849,1.2259,0.0599,2.7925,-0.8516,0.7806,0.0005,-0.2120,-0.1678,
9.616095,-0.2849,1.2259,0.0599,2.5258,3.9769,2.4029,0.0005,-0.2120,-0.1678,
9.617829,-0.2849,1.2259,0.0599,2.5258,3.9769,2.4029,-0.2061,-0.8746,0.1065,
9.635063,-0.2849,1.2259,0.0599,2.5258,3.9769,2.4029,-0.4922,-1.1569,0.3851,
9.654694,-0.4483,1.7842,0.0010,2.5258,3.9769,2.4029,-0.4922,-1.1569,0.3851,
9.657393,-0.4483,1.7842,0.0010,0.9121,9.3726,1.4974,-0.4922,-1.1569,0.3851,
9.658933,-0.4483,1.7842,0.0010,0.9121,9.3726,1.4974,-0.8559,-0.8384,0.6807,
9.673997,-0.4483,1.7842,0.0010,0.9121,9.3726,1.4974,-0.8501,0.8575,0.9523,
9.693984,-0.7459,1.6456,0.1500,0.9121,9.3726,1.4974,-0.8501,0.8575,0.9523,
9.696731,-0.7459,1.6456,0.1500,-2.2704,7.8015,2.6778,-0.8501,0.8575,0.9523,
9.698675,-0.7459,1.6456,0.1500,-2.2704,7.8015,2.6778,-0.3467,2.2456,0.6445,
9.715778,-0.7459,1.6456,0.1500,-2.2704,7.8015,2.6778,0.1241,2.1790,0.1651,
9.733418,-0.6904,1.0857,-0.3887,-2.2704,7.8015,2.6778,0.1241,2.1790,0.1651,
9.735695,-0.6904,1.0857,-0.3887,-1.9848,2.2291,-2.2060,0.1241,2.1790,0.1651,
9.737611,-0.6904,1.0857,-0.3887,-1.9848,2.2291,-2.2060,-0.0064,1.0855,-0.1289,
9.753543,-0.6904,1.0857,-0.3887,-1.9848,2.2291,-2.2060,-0.2035,0.1928,-0.0703,
9.773789,-0.3924,1.1907,-0.3574,-1.9848,2.2291,-2.2060,-0.2035,0.1928,-0.0703,
9.776170,-0.3924,1.1907,-0.3574,0.9271,3.2705,-1.8130,-0.2035,0.1928,-0.0703,
9.777978,-0.3924,1.1907,-0.3574,0.9271,3.2705,-1.8130,-0.1001,-0.0852,0.0996,
9.794164,-0.3924,1.1907,-0.3574,0.9271,3.2705,-1.8130,0.2168,-0.5976,0.1758,
9.813885,-0.2118,0.9071,-0.1200,0.9271,3.2705,-1.8130,0.2168,-0.5976,0.1758,
9.815924,-0.2118,0.9071,-0.1200,2.6728,0.4684,0.4690,0.2168,-0.5976,0.1758,
9.817783,-0.2118,0.9071,-0.1200,2.6728,0.4684,0.4690,0.3499,-0.9023,0.1395,
9.835068,-0.2118,0.9071,-0.1200,2.6728,0.4684,0.4690,0.2306,-0.8250,0.0953,
9.853628,-0.3088,0.7043,-0.0880,2.6728,0.4684,0.4690,0.2306,-0.8250,0.0953,
9.856347,-0.3088,0.7043,-0.0880,1.6887,-1.5513,0.7105,0.2306,-0.8250,0.0953,
9.858323,-0.3088,0.7043,-0.0880,1.6887,-1.5513,0.7105,0.0037,-0.5486,0.0788,
9.873667,-0.3088,0.7043,-0.0880,1.6887,-1.5513,0.7105,-0.1049,-0.2647,0.0985,
9.893767,-0.3484,0.6433,-0.0953,1.6887,-1.5513,0.7105,-0.1049,-0.2647,0.0985,
9.896628,-0.3484,0.6433,-0.0953,1.2957,-2.1696,0.5450,-0.1049,-0.2647,0.0985,
9.898584,-0.3484,0.6433,-0.0953,1.2957,-2.1696,0.5450,0.0826,-0.1630,0.1795,
9.913908,-0.3484,0.6433,-0.0953,1.2957,-2.1696,0.5450,0.3515,-0.1593,0.2567,
9.933420,-0.3296,0.6374,-0.2519,1.2957,-2.1696,0.5450,0.3515,-0.1593,0.2567,
9.936174,-0.3296,0.6374,-0.2519,1.4157,-2.2549,-0.9462,0.3515,-0.1593,0.2567,
9.938285,-0.3296,0.6374,-0.2519,1.4157,-2.2549,-0.9462,0.5071,-0.2562,0.3228,
9.953391,-0.3296,0.6374,-0.2519,1.4157,-2.2549,-0.9462,0.5481,-0.3766,0.3196,
9.974212,-0.2973,0.5570,-0.1654,1.4157,-2.2549,-0.9462,0.5481,-0.3766,0.3196,
9.977796,-0.2973,0.5570,-0.1654,1.6425,-3.0682,0.0228,0.5481,-0.3766,0.3196,
9.979473,-0.2973,0.5570,-0.1654,1.6425,-3.0682,0.0228,0.5364,-0.4517,0.2434,
9.993473,-0.2973,0.5570,-0.1654,1.6425,-3.0682,0.0228,0.4980,-0.4613,0.1390,
10.013689,-0.2929,0.5365,-0.0809,1.6425,-3.0682,0.0228,0.4980,-0.4613,0.1390,
10.016437,-0.2929,0.5365,-0.0809,1.6514,-3.2690,0.9447,0.4980,-0.4613,0.1390,
10.018197,-0.2929,0.5365,-0.0809,1.6514,-3.2690,0.9447,0.4639,-0.3867,0.0767,
10.034172,-0.2929,0.5365,-0.0809,1.6514,-3.2690,0.9447,0.4373,-0.1859,0.0756,
10.054406,-0.2875,0.5228,-0.1121,1.6514,-3.2690,0.9447,0.4373,-0.1859,0.0756,
10.056583,-0.2875,0.5228,-0.1121,1.6984,-3.3847,0.7398,0.4373,-0.1859,0.0756,
10.058394,-0.2875,0.5228,-0.1121,1.6984,-3.3847,0.7398,0.3782,-0.0202,0.0794,
10.073392,-0.2875,0.5228,-0.1121,1.6984,-3.3847,0.7398,0.2913,0.0080,0.0826,
10.093400,-0.3051,0.5492,0.0110,1.6984,-3.3847,0.7398,0.2913,0.0080,0.0826,
10.096727,-0.3051,0.5492,0.0110,1.4990,-3.1154,2.0591,0.2913,0.0080,0.0826,
10.098717,-0.3051,0.5492,0.0110,1.4990,-3.1154,2.0591,0.2253,0.0277,0.1012,
10.114058,-0.3051,0.5492,0.0110,1.4990,-3.1154,2.0591,0.1806,0.1971,0.1140,
10.133932,-0.3039,0.8675,0.0567,1.4990,-3.1154,2.0591,0.1806,0.1971,0.1140,
10.136241,-0.3039,0.8675,0.0567,1.4654,0.0012,2.5957,0.1806,0.1971,0.1140,
10.137995,-0.3039,0.8675,0.0567,1.4654,0.0012,2.5957,0.1651,0.3361,0.1747,
10.153358,-0.3039,0.8675,0.0567,1.4654,0.0012,2.5957,0.2429,0.4772,0.2072,
10.173375,-0.3310,1.4805,-0.1981,1.4654,0.0012,2.5957,0.2429,0.4772,0.2072,
10.176005,-0.3310,1.4805,-0.1981,1.0901,5.9842,0.2296,0.2429,0.4772,0.2072,
10.177483,-0.3310,1.4805,-0.1981,1.0901,5.9842,0.2296,0.4645,0.9300,0.1880,
10.193040,-0.3310,1.4805,-0.1981,1.0901,5.9842,0.2296,0.8884,1.6075,0.0921,
10.213162,-0.4168,2.2972,-0.9736,1.0901,5.9842,0.2296,0.8884,1.6075,0.0921,
10.215831,-0.4168,2.2972,-0.9736,0.0809,14.0289,-6.9247,0.8884,1.6075,0.0921,
10.217753,-0.4168,2.2972,-0.9736,0.0809,14.0289,-6.9247,0.5694,0.7180,0.1619,
10.234315,-0.4168,2.2972,-0.9736,0.0809,14.0289,-6.9247,-0.1039,0.1667,0.2067,
10.253464,-0.1407,1.0107,-0.5421,0.0809,14.0289,-6.9247,-0.1039,0.1667,0.2067,
10.255781,-0.1407,1.0107,-0.5421,2.6761,1.4157,-2.5447,-0.1039,0.1667,0.2067,
10.257504,-0.1407,1.0107,-0.5421,2.6761,1.4157,-2.5447,-0.4714,0.2226,0.1284,
10.273429,-0.1407,1.0107,-0.5421,2.6761,1.4157,-2.5447,-0.7723,-0.2727,-0.2360,
10.293248,-0.4928,0.8912,-0.2998,2.6761,1.4157,-2.5447,-0.7723,-0.2727,-0.2360,
10.295451,-0.4928,0.8912,-0.2998,-0.7533,0.1874,-0.3856,-0.7723,-0.2727,-0.2360,
10.297302,-0.4928,0.8912,-0.2998,-0.7533,0.1874,-0.3856,-0.7984,-0.6200,-0.5161,
10.313117,-0.4928,0.8912,-0.2998,-0.7533,0.1874,-0.3856,-0.8011,-0.7063,-0.5566,
10.333501,-0.3049,0.6948,-0.1664,-0.7533,0.1874,-0.3856,-0.8011,-0.7063,-0.5566,
10.335767,-0.3049,0.6948,-0.1664,1.3123,-1.7302,0.5507,-0.8011,-0.7063,-0.5566,
10.337455,-0.3049,0.6948,-0.1664,1.3123,-1.7302,0.5507,-0.6567,-0.6157,-0.6120,
10.353150,-0.3049,0.6948,-0.1664,1.3123,-1.7302,0.5507,-0.3776,-0.4591,-0.6764,
10.373665,-0.1349,0.5472,-0.2389,1.3123,-1.7302,0.5507,-0.3776,-0.4591,-0.6764,
10.376385,-0.1349,0.5472,-0.2389,3.2414,-3.1045,-0.4311,-0.3776,-0.4591,-0.6764,
10.378285,-0.1349,0.5472,-0.2389,3.2414,-3.1045,-0.4311,-0.1870,-0.4543,-0.6045,
10.392667,-0.1349,0.5472,-0.2389,3.2414,-3.1045,-0.4311,-0.0431,-0.5161,-0.4618,
10.412786,-0.0515,0.4901,-0.2878,3.2414,-3.1045,-0.4311,-0.0431,-0.5161,-0.4618,
10.415635,-0.0515,0.4901,-0.2878,4.2729,-3.5739,-1.0394,-0.0431,-0.5161,-0.4618,
10.417445,-0.0515,0.4901,-0.2878,4.2729,-3.5739,-1.0394,0.0245,-0.1939,-0.3659,
10.432425,-0.0515,0.4901,-0.2878,4.2729,-3.5739,-1.0394,-0.0714,0.1182,-0.3329,
10.453370,-0.1224,0.5465,-0.1349,4.2729,-3.5739,-1.0394,-0.0714,0.1182,-0.3329,
10.455689,-0.1224,0.5465,-0.1349,3.6977,-2.9549,0.4444,-0.0714,0.1182,-0.3329,
10.457484,-0.1224,0.5465,-0.1349,3.6977,-2.9549,0.4444,-0.1529,0.1475,-0.2834,
10.473028,-0.1224,0.5465,-0.1349,3.6977,-2.9549,0.4444,-0.1688,0.0964,-0.2413,
10.493503,-0.1612,0.5565,-0.0164,3.6977,-2.9549,0.4444,-0.1688,0.0964,-0.2413,
10.495872,-0.1612,0.5565,-0.0164,3.3954,-2.8163,1.5764,-0.1688,0.0964,-0.2413,
10.497624,-0.1612,0.5565,-0.0164,3.3954,-2.8163,1.5764,-0.1135,0.0549,-0.2088,
10.513029,-0.1612,0.5565,-0.0164,3.3954,-2.8163,1.5764,0.0091,-0.1001,-0.2184,
10.533091,-0.2370,0.8131,-0.0237,3.3954,-2.8163,1.5764,0.0091,-0.1001,-0.2184,
10.536409,-0.2370,0.8131,-0.0237,2.7251,-0.2633,1.4828,0.0091,-0.1001,-0.2184,
10.538625,-0.2370,0.8131,-0.0237,2.7251,-0.2633,1.4828,0.0943,-0.3798,-0.2344,
10.552608,-0.2370,0.8131,-0.0237,2.7251,-0.2633,1.4828,0.1076,-0.6631,-0.1976,
10.572618,-0.5331,1.4954,0.0134,2.7251,-0.2633,1.4828,0.1076,-0.6631,-0.1976,
10.574831,-0.5331,1.4954,0.0134,-0.0805,6.4672,1.7673,0.1076,-0.6631,-0.1976,
10.576538,-0.5331,1.4954,0.0134,-0.0805,6.4672,1.7673,0.0394,-1.0631,-0.0581,
10.592548,-0.5331,1.4954,0.0134,-0.0805,6.4672,1.7673,-0.1422,-1.5420,0.2663,
10.613324,-0.8844,2.0492,-0.0110,-0.0805,6.4672,1.7673,-0.1422,-1.5420,0.2663,
10.615689,-0.8844,2.0492,-0.0110,-3.4795,11.8704,1.2416,-0.1422,-1.5420,0.2663,
10.617575,-0.8844,2.0492,-0.0110,-3.4795,11.8704,1.2416,-0.3143,-0.8527,0.6429,
10.634470,-0.8844,2.0492,-0.0110,-3.4795,11.8704,1.2416,-0.3121,1.5089,0.6290,
10.652573,-0.7275,1.2557,-0.1512,-3.4795,11.8704,1.2416,-0.3121,1.5089,0.6290,
10.654961,-0.7275,1.2557,-0.1512,-2.1692,3.9489,-0.1721,-0.3121,1.5089,0.6290,
10.656723,-0.7275,1.2557,-0.1512,-2.1692,3.9489,-0.1721,-0.4208,2.4059,0.3254,
10.672453,-0.7275,1.2557,-0.1512,-2.1692,3.9489,-0.1721,-0.8693,1.4882,0.0336,
10.692395,-0.7432,0.9821,-0.2792,-2.1692,3.9489,-0.1721,-0.8693,1.4882,0.0336,
10.695240,-0.7432,0.9821,-0.2792,-2.4931,1.1950,-1.2648,-0.8693,1.4882,0.0336,
10.696560,-0.7432,0.9821,-0.2792,-2.4931,1.1950,-1.2648,-0.9875,0.4980,-0.0889,
10.712545,-0.7432,0.9821,-0.2792,-2.4931,1.1950,-1.2648,-0.2610,0.2040,-0.0975,
10.732419,-0.5541,0.9337,-0.3464,-2.4931,1.1950,-1.2648,-0.2610,0.2040,-0.0975,
10.735271,-0.5541,0.9337,-0.3464,-0.6281,0.7040,-2.0664,-0.2610,0.2040,-0.0975,
10.736938,-0.5541,0.9337,-0.3464,-0.6281,0.7040,-2.0664,0.3563,-0.1907,0.1641,
10.753711,-0.5541,0.9337,-0.3464,-0.6281,0.7040,-2.0664,0.4932,-0.3430,0.2184,
10.772296,-0.3127,0.7925,-0.1659,-0.6281,0.7040,-2.0664,0.4932,-0.3430,0.2184,
10.774037,-0.3127,0.7925,-0.1659,1.6875,-0.6930,-0.2045,0.4932,-0.3430,0.2184,
10.775144,-0.3127,0.7925,-0.1659,1.6875,-0.6930,-0.2045,0.3840,-0.4655,0.1507,
10.792298,-0.3127,0.7925,-0.1659,1.6875,-0.6930,-0.2045,0.2131,-0.4501,0.1081,
10.812416,-0.2981,0.6836,-0.0674,1.6875,-0.6930,-0.2045,0.2131,-0.4501,0.1081,
10.814925,-0.2981,0.6836,-0.0674,1.8042,-1.7732,0.7766,0.2131,-0.4501,0.1081,
10.816600,-0.2981,0.6836,-0.0674,1.8042,-1.7732,0.7766,0.0815,-0.2370,0.1401,
10.833850,-0.2981,0.6836,-0.0674,1.8042,-1.7732,0.7766,0.0410,0.0463,0.2088,
10.852327,-0.2499,0.6406,-0.0806,1.8042,-1.7732,0.7766,0.0410,0.0463,0.2088,
10.854900,-0.2499,0.6406,-0.0806,2.2222,-2.2238,0.6500,0.0410,0.0463,0.2088,
10.856459,-0.2499,0.6406,-0.0806,2.2222,-2.2238,0.6500,0.1390,0.1736,0.2834,
10.872153,-0.2499,0.6406,-0.0806,2.2222,-2.2238,0.6500,0.3244,0.2344,0.2839,
10.892465,-0.3584,0.6342,-0.2624,2.2222,-2.2238,0.6500,0.3244,0.2344,0.2839,
10.895466,-0.3584,0.6342,-0.2624,1.0505,-2.3245,-1.0148,0.3244,0.2344,0.2839,
10.897427,-0.3584,0.6342,-0.2624,1.0505,-2.3245,-1.0148,0.4666,0.2759,0.2818,
10.912227,-0.3584,0.6342,-0.2624,1.0505,-2.3245,-1.0148,0.5049,0.3148,0.2530,
10.932536,-0.3933,0.6662,-0.2167,1.0505,-2.3245,-1.0148,0.5049,0.3148,0.2530,
10.935920,-0.3933,0.6662,-0.2167,0.5971,-2.0267,-0.3480,0.5049,0.3148,0.2530,
10.938050,-0.3933,0.6662,-0.2167,0.5971,-2.0267,-0.3480,0.4160,0.3031,0.2115,
10.952123,-0.3933,0.6662,-0.2167,0.5971,-2.0267,-0.3480,0.2631,0.2407,0.1800,
10.972521,-0.3562,0.6623,-0.1129,0.5971,-2.0267,-0.3480,0.2631,0.2407,0.1800,
10.975035,-0.3562,0.6623,-0.1129,0.8739,-2.0743,0.8335,0.2631,0.2407,0.1800,
10.976812,-0.3562,0.6623,-0.1129,0.8739,-2.0743,0.8335,0.1827,0.3643,0.1417,
10.992001,-0.3562,0.6623,-0.1129,0.8739,-2.0743,0.8335,0.1395,0.5412,0.1252,
11.012199,-0.3310,0.5927,-0.0997,0.8739,-2.0743,0.8335,0.1395,0.5412,0.1252,
11.014967,-0.3310,0.5927,-0.0997,1.0384,-2.7668,1.0961,0.1395,0.5412,0.1252,
11.016745,-0.3310,0.5927,-0.0997,1.0384,-2.7668,1.0961,0.1103,0.5763,0.1497,
11.032621,-0.3310,0.5927,-0.0997,1.0384,-2.7668,1.0961,0.1071,0.4820,0.1875,
11.052570,-0.2927,0.6012,0.0064,1.0384,-2.7668,1.0961,0.1071,0.4820,0.1875,
11.054860,-0.2927,0.6012,0.0064,1.3114,-2.7022,2.2620,0.1071,0.4820,0.1875,
11.056629,-0.2927,0.6012,0.0064,1.3114,-2.7022,2.2620,0.1566,0.4671,0.2147,
11.072330,-0.2927,0.6012,0.0064,1.3114,-2.7022,2.2620,0.2258,0.3792,0.1758,
11.092597,-0.2917,0.9435,0.0662,1.3114,-2.7022,2.2620,0.2258,0.3792,0.1758,
11.095692,-0.2917,0.9435,0.0662,1.2156,0.6373,2.9840,0.2258,0.3792,0.1758,
11.097425,-0.2917,0.9435,0.0662,1.2156,0.6373,2.9840,0.2647,0.2296,0.1284,
11.112473,-0.2917,0.9435,0.0662,1.2156,0.6373,2.9840,0.2791,0.2040,0.0538,
11.132676,-0.3078,1.2601,-0.1610,1.2156,0.6373,2.9840,0.2791,0.2040,0.0538,
11.134723,-0.3078,1.2601,-0.1610,0.9764,3.7237,0.8358,0.2791,0.2040,0.0538,
11.136190,-0.3078,1.2601,-0.1610,0.9764,3.7237,0.8358,0.1529,0.4799,-0.0202,
11.152296,-0.3078,1.2601,-0.1610,0.9764,3.7237,0.8358,0.2546,1.1196,-0.0352,
11.172410,-0.4009,2.2408,-0.7139,0.9764,3.7237,0.8358,0.2546,1.1196,-0.0352,
11.174853,-0.4009,2.2408,-0.7139,-0.0066,13.3589,-4.3856,0.2546,1.1196,-0.0352,
11.176793,-0.4009,2.2408,-0.7139,-0.0066,13.3589,-4.3856,0.5811,1.4818,0.0176,
11.192251,-0.4009,2.2408,-0.7139,-0.0066,13.3589,-4.3856,0.5017,1.1500,0.2583,
11.211722,-0.1305,1.1590,-0.7803,-0.0066,13.3589,-4.3856,0.5017,1.1500,0.2583,
11.214761,-0.1305,1.1590,-0.7803,2.4492,2.7972,-4.6496,0.5017,1.1500,0.2583,
11.216375,-0.1305,1.1590,-0.7803,2.4492,2.7972,-4.6496,0.0991,0.2844,0.0352,
11.233964,-0.1305,1.1590,-0.7803,2.4492,2.7972,-4.6496,-0.3435,-0.5997,-0.2290,
11.251638,-0.5336,0.8453,-0.3545,2.4492,2.7972,-4.6496,-0.3435,-0.5997,-0.2290,
11.254585,-0.5336,0.8453,-0.3545,-1.4494,-0.2770,-0.5422,-0.3435,-0.5997,-0.2290,
11.256422,-0.5336,0.8453,-0.3545,-1.4494,-0.2770,-0.5422,-0.5934,-0.7936,-0.3707,
11.271774,-0.5336,0.8453,-0.3545,-1.4494,-0.2770,-0.5422,-0.7143,-0.6669,-0.3228,
11.291880,-0.2954,0.7603,-0.0928,-1.4494,-0.2770,-0.5422,-0.7143,-0.6669,-0.3228,
11.295186,-0.2954,0.7603,-0.0928,1.0768,-1.1317,1.6865,-0.7143,-0.6669,-0.3228,
11.296804,-0.2954,0.7603,-0.0928,1.0768,-1.1317,1.6865,-0.6093,-0.4282,-0.3446,
11.311316,-0.2954,0.7603,-0.0928,1.0768,-1.1317,1.6865,-0.3798,-0.2567,-0.4357,
11.331747,-0.1165,0.6379,-0.1578,1.0768,-1.1317,1.6865,-0.3798,-0.2567,-0.4357,
11.334929,-0.1165,0.6379,-0.1578,2.9969,-2.3170,0.8249,-0.3798,-0.2567,-0.4357,
11.336278,-0.1165,0.6379,-0.1578,2.9969,-2.3170,0.8249,-0.1497,-0.2237,-0.4527,
11.351669,-0.1165,0.6379,-0.1578,2.9969,-2.3170,0.8249,-0.0559,-0.2738,-0.3830,
11.371868,-0.0374,0.5641,-0.3232,2.9969,-2.3170,0.8249,-0.0559,-0.2738,-0.3830,
11.375146,-0.0374,0.5641,-0.3232,3.9384,-2.9792,-0.8731,-0.0559,-0.2738,-0.3830,
11.376983,-0.0374,0.5641,-0.3232,3.9384,-2.9792,-0.8731,-0.1065,-0.1891,-0.3116,
11.391958,-0.0374,0.5641,-0.3232,3.9384,-2.9792,-0.8731,-0.1784,-0.0085,-0.2855,
11.411867,-0.1881,0.5951,-0.2333,3.9384,-2.9792,-0.8731,-0.1784,-0.0085,-0.2855,
11.414833,-0.1881,0.5951,-0.2333,2.5714,-2.6359,-0.0575,-0.1784,-0.0085,-0.2855,
11.416847,-0.1881,0.5951,-0.2333,2.5714,-2.6359,-0.0575,-0.2056,-0.0831,-0.2695,
11.431844,-0.1881,0.5951,-0.2333,2.5714,-2.6359,-0.0575,-0.1715,-0.2503,-0.2328,
11.451182,-0.2287,0.6863,-0.0970,2.5714,-2.6359,-0.0575,-0.1715,-0.2503,-0.2328,
11.453721,-0.2287,0.6863,-0.0970,2.2732,-1.7146,1.1850,-0.1715,-0.2503,-0.2328,
11.455422,-0.2287,0.6863,-0.0970,2.2732,-1.7146,1.1850,-0.0767,-0.2221,-0.1832,
11.472779,-0.2287,0.6863,-0.0970,2.2732,-1.7146,1.1850,-0.0021,-0.3057,-0.1886,
11.491940,-0.1666,0.5961,-0.1041,2.2732,-1.7146,1.1850,-0.0021,-0.3057,-0.1886,
11.494308,-0.1666,0.5961,-0.1041,2.9661,-2.5676,1.0542,-0.0021,-0.3057,-0.1886,
11.496089,-0.1666,0.5961,-0.1041,2.9661,-2.5676,1.0542,0.0027,-0.5630,-0.2029,
11.511963,-0.1666,0.5961,-0.1041,2.9661,-2.5676,1.0542,0.0165,-0.6935,-0.2029,
11.532423,-0.1720,0.6555,-0.1036,2.9661,-2.5676,1.0542,0.0165,-0.6935,-0.2029,
11.535046,-0.1720,0.6555,-0.1036,3.0320,-1.9472,0.9453,0.0165,-0.6935,-0.2029,
11.536762,-0.1720,0.6555,-0.1036,3.0320,-1.9472,0.9453,0.0346,-0.7835,-0.1976,
11.552328,-0.1720,0.6555,-0.1036,3.0320,-1.9472,0.9453,0.0293,-0.8703,-0.2216,
11.571753,-0.3117,1.0503,-0.0970,3.0320,-1.9472,0.9453,0.0293,-0.8703,-0.2216,
11.574490,-0.3117,1.0503,-0.0970,1.7948,1.9643,0.8626,0.0293,-0.8703,-0.2216,
11.576029,-0.3117,1.0503,-0.0970,1.7948,1.9643,0.8626,-0.0463,-1.0109,-0.2141,
11.591664,-0.3117,1.0503,-0.0970,1.7948,1.9643,0.8626,-0.1454,-1.0914,-0.1156,
11.611404,-0.6755,1.5482,-0.0752,1.7948,1.9643,0.8626,-0.1454,-1.0914,-0.1156,
11.614527,-0.6755,1.5482,-0.0752,-1.6441,6.8696,0.8373,-0.1454,-1.0914,-0.1156,
11.616809,-0.6755,1.5482,-0.0752,-1.6441,6.8696,0.8373,-0.2242,-0.8016,0.0170,
11.636333,-0.6755,1.5482,-0.0752,-1.6441,6.8696,0.8373,-0.3286,-0.1060,0.1971,
11.652103,-1.1189,1.9330,-0.1104,-1.6441,6.8696,0.8373,-0.3286,-0.1060,0.1971,
11.654421,-1.1189,1.9330,-0.1104,-5.9979,10.6030,0.3104,-0.3286,-0.1060,0.1971,
11.656224,-1.1189,1.9330,-0.1104,-5.9979,10.6030,0.3104,-0.5007,1.2298,0.4421,
11.670881,-1.1189,1.9330,-0.1104,-5.9979,10.6030,0.3104,-0.5193,2.0458,0.4256,
11.691255,-0.7122,1.0354,-0.1014,-5.9979,10.6030,0.3104,-0.5193,2.0458,0.4256,
11.693671,-0.7122,1.0354,-0.1014,-2.2523,1.6931,0.5444,-0.5193,2.0458,0.4256,
11.695407,-0.7122,1.0354,-0.1014,-2.2523,1.6931,0.5444,-0.3435,1.4014,0.0128,
11.711837,-0.7122,1.0354,-0.1014,-2.2523,1.6931,0.5444,0.0980,-0.1816,-0.0272,
11.731733,-0.5038,1.0742,-0.4813,-2.2523,1.6931,0.5444,0.0980,-0.1816,-0.0272,
11.734162,-0.5038,1.0742,-0.4813,-0.2458,2.0674,-3.1055,0.0980,-0.1816,-0.0272,
11.736053,-0.5038,1.0742,-0.4813,-0.2458,2.0674,-3.1055,0.7862,-0.8831,0.1182,
11.751560,-0.5038,1.0742,-0.4813,-0.2458,2.0674,-3.1055,0.8208,-0.7675,0.2120,
11.771217,-0.2719,0.8148,-0.3108,-0.2458,2.0674,-3.1055,0.8208,-0.7675,0.2120,
11.774668,-0.2719,0.8148,-0.3108,2.0254,-0.4527,-1.3180,0.8208,-0.7675,0.2120,
11.776494,-0.2719,0.8148,-0.3108,2.0254,-0.4527,-1.3180,0.4964,-0.7105,0.1502,
11.791644,-0.2719,0.8148,-0.3108,2.0254,-0.4527,-1.3180,0.2780,-0.6701,0.1177,
11.811635,-0.2446,0.6977,-0.0210,2.0254,-0.4527,-1.3180,0.2780,-0.6701,0.1177,
11.814619,-0.2446,0.6977,-0.0210,2.2675,-1.6137,1.5226,0.2780,-0.6701,0.1177,
11.816352,-0.2446,0.6977,-0.0210,2.2675,-1.6137,1.5226,0.2115,-0.6993,0.1337,
11.835214,-0.2446,0.6977,-0.0210,2.2675,-1.6137,1.5226,0.2573,-0.7121,0.1374,
11.851203,-0.2573,0.6608,0.0059,2.2675,-1.6137,1.5226,0.2573,-0.7121,0.1374,
11.853541,-0.2573,0.6608,0.0059,2.1452,-1.9846,1.7336,0.2573,-0.7121,0.1374,
11.855338,-0.2573,0.6608,0.0059,2.1452,-1.9846,1.7336,0.3350,-0.6498,0.1976,
11.871526,-0.2573,0.6608,0.0059,2.1452,-1.9846,1.7336,0.3611,-0.5848,0.2647,
11.891244,-0.2853,0.5734,-0.1630,2.1452,-1.9846,1.7336,0.3611,-0.5848,0.2647,
11.894708,-0.2853,0.5734,-0.1630,1.8330,-2.8613,0.0823,0.3611,-0.5848,0.2647,
11.896253,-0.2853,0.5734,-0.1630,1.8330,-2.8613,0.0823,0.3531,-0.4969,0.2945,
11.910760,-0.2853,0.5734,-0.1630,1.8330,-2.8613,0.0823,0.3851,-0.4767,0.2929,
11.931507,-0.3154,0.5631,-0.2284,1.8330,-2.8613,0.0823,0.3851,-0.4767,0.2929,
11.934502,-0.3154,0.5631,-0.2284,1.4717,-2.9908,-0.5235,0.3851,-0.4767,0.2929,
11.936390,-0.3154,0.5631,-0.2284,1.4717,-2.9908,-0.5235,0.4511,-0.4906,0.2780,
11.951715,-0.3154,0.5631,-0.2284,1.4717,-2.9908,-0.5235,0.5305,-0.4996,0.2631,
11.971410,-0.3076,0.6332,-0.1715,1.4717,-2.9908,-0.5235,0.5305,-0.4996,0.2631,
11.974791,-0.3076,0.6332,-0.1715,1.4909,-2.3183,0.1117,0.5305,-0.4996,0.2631,
11.977001,-0.3076,0.6332,-0.1715,1.4909,-2.3183,0.1117,0.5609,-0.5108,0.2482,
11.991432,-0.3076,0.6332,-0.1715,1.4909,-2.3183,0.1117,0.5337,-0.5081,0.1997,
12.010974,-0.3279,0.5590,-0.0845,1.4909,-2.3183,0.1117,0.5337,-0.5081,0.1997,
12.013897,-0.3279,0.5590,-0.0845,1.2534,-3.0461,1.0592,0.5337,-0.5081,0.1997,
12.015639,-0.3279,0.5590,-0.0845,1.2534,-3.0461,1.0592,0.4719,-0.4437,0.1688,
12.032397,-0.3279,0.5590,-0.0845,1.2534,-3.0461,1.0592,0.4176,-0.2029,0.1715,
12.051696,-0.3757,0.5895,-0.0105,1.2534,-3.0461,1.0592,0.4176,-0.2029,0.1715,
12.056202,-0.3757,0.5895,-0.0105,0.7510,-2.7428,1.8785,0.4176,-0.2029,0.1715,
12.058663,-0.3757,0.5895,-0.0105,0.7510,-2.7428,1.8785,0.4144,-0.0762,0.1736,
12.071174,-0.3757,0.5895,-0.0105,0.7510,-2.7428,1.8785,0.4064,-0.2514,0.2093,
12.090706,-0.4016,0.9574,0.0730,0.7510,-2.7428,1.8785,0.4064,-0.2514,0.2093,
12.093713,-0.4016,0.9574,0.0730,0.4455,0.8626,2.8082,0.4064,-0.2514,0.2093,
12.095383,-0.4016,0.9574,0.0730,0.4455,0.8626,2.8082,0.4202,-0.4842,0.2019,
12.111257,-0.4016,0.9574,0.0730,0.4455,0.8626,2.8082,0.4820,-0.5124,0.0820,
12.131301,-0.3911,1.5733,-0.0860,0.4455,0.8626,2.8082,0.4820,-0.5124,0.0820,
12.134349,-0.3911,1.5733,-0.0860,0.5424,6.9119,1.3160,0.4820,-0.5124,0.0820,
12.136008,-0.3911,1.5733,-0.0860,0.5424,6.9119,1.3160,0.7792,0.1539,0.0442,
12.151076,-0.3911,1.5733,-0.0860,0.5424,6.9119,1.3160,1.7385,2.1497,0.2221,
12.170781,-0.1859,1.9163,-1.0136,0.5424,6.9119,1.3160,1.7385,2.1497,0.2221,
12.172835,-0.1859,1.9163,-1.0136,2.3927,10.3735,-7.1522,1.7385,2.1497,0.2221,
12.174795,-0.1859,1.9163,-1.0136,2.3927,10.3735,-7.1522,1.5484,1.6837,0.3803,
12.190746,-0.1859,1.9163,-1.0136,2.3927,10.3735,-7.1522,0.8480,0.2328,0.1278,
12.210215,-0.3762,0.8038,-0.5494,2.3927,10.3735,-7.1522,0.8480,0.2328,0.1278,
12.213012,-0.3762,0.8038,-0.5494,0.3272,-0.4240,-2.0453,0.8480,0.2328,0.1278,
12.216740,-0.3762,0.8038,-0.5494,0.3272,-0.4240,-2.0453,0.5119,-0.6285,-0.1433,
12.230222,-0.3762,0.8038,-0.5494,0.3272,-0.4240,-2.0453,0.2200,-1.0844,-0.1742,
12.250319,-0.5893,0.7170,-0.4295,0.3272,-0.4240,-2.0453,0.2200,-1.0844,-0.1742,
12.254094,-0.5893,0.7170,-0.4295,-1.5936,-1.1990,-0.8892,0.2200,-1.0844,-0.1742,
12.255926,-0.5893,0.7170,-0.4295,-1.5936,-1.1990,-0.8892,-0.0021,-1.2144,0.0053,
12.271000,-0.5893,0.7170,-0.4295,-1.5936,-1.1990,-0.8892,-0.2205,-1.1649,0.0644,
12.291530,-0.2631,0.7080,-0.4732,-1.5936,-1.1990,-0.8892,-0.2205,-1.1649,0.0644,
12.294967,-0.2631,0.7080,-0.4732,1.7257,-1.3061,-1.5275,-0.2205,-1.1649,0.0644,
12.296711,-0.2631,0.7080,-0.4732,1.7257,-1.3061,-1.5275,-0.5428,-0.9859,-0.0634,
12.311466,-0.2631,0.7080,-0.4732,1.7257,-1.3061,-1.5275,-0.7750,-0.6764,-0.2392,
12.330445,-0.2213,0.6025,-0.4314,1.7257,-1.3061,-1.5275,-0.7750,-0.6764,-0.2392,
12.332790,-0.2213,0.6025,-0.4314,2.2709,-2.3893,-1.4577,-0.7750,-0.6764,-0.2392,
12.334781,-0.2213,0.6025,-0.4314,2.2709,-2.3893,-1.4577,-0.8597,-0.3830,-0.3537,
12.351215,-0.2213,0.6025,-0.4314,2.2709,-2.3893,-1.4577,-0.7958,-0.4400,-0.4043,
12.370934,-0.1972,0.5609,-0.3071,2.2709,-2.3893,-1.4577,-0.7958,-0.4400,-0.4043,
12.373058,-0.1972,0.5609,-0.3071,2.6762,-2.8137,-0.5880,-0.7958,-0.4400,-0.4043,
12.374947,-0.1972,0.5609,-0.3071,2.6762,-2.8137,-0.5880,-0.6131,-0.6876,-0.4629,
12.390433,-0.1972,0.5609,-0.3071,2.6762,-2.8137,-0.5880,-0.4218,-0.8986,-0.5097,
12.410435,-0.2734,0.6977,-0.2441,2.6762,-2.8137,-0.5880,-0.4218,-0.8986,-0.5097,
12.413981,-0.2734,0.6977,-0.2441,2.1615,-1.4282,-0.2915,-0.4218,-0.8986,-0.5097,
12.416011,-0.2734,0.6977,-0.2441,2.1615,-1.4282,-0.2915,-0.3675,-0.9481,-0.4474,
12.430093,-0.2734,0.6977,-0.2441,2.1615,-1.4282,-0.2915,-0.3435,-0.7036,-0.3553,
12.452028,-0.2812,0.6340,-0.1520,2.1615,-1.4282,-0.2915,-0.3435,-0.7036,-0.3553,
12.452886,-0.2812,0.6340,-0.1520,2.2818,-2.0017,0.3311,-0.3435,-0.7036,-0.3553,
12.453495,-0.2812,0.6340,-0.1520,2.2818,-2.0017,0.3311,-0.2253,-0.4005,-0.3052,
12.470062,-0.2812,0.6340,-0.1520,2.2818,-2.0017,0.3311,-0.1124,-0.2977,-0.2519,
12.490149,-0.2421,0.7539,-0.2431,2.2818,-2.0017,0.3311,-0.1124,-0.2977,-0.2519,
12.493254,-0.2421,0.7539,-0.2431,2.7805,-0.7813,-0.6883,-0.1124,-0.2977,-0.2519,
12.494999,-0.2421,0.7539,-0.2431,2.7805,-0.7813,-0.6883,-0.0575,-0.1545,-0.1774,
12.509968,-0.2421,0.7539,-0.2431,2.7805,-0.7813,-0.6883,0.0261,-0.0469,-0.1188,
12.530479,-0.3665,1.1331,-0.1129,2.7805,-0.7813,-0.6883,0.0261,-0.0469,-0.1188,
12.532853,-0.3665,1.1331,-0.1129,1.5731,2.9377,0.5692,0.0261,-0.0469,-0.1188,
12.534609,-0.3665,1.1331,-0.1129,1.5731,2.9377,0.5692,-0.0650,-0.4016,0.0565,
12.552178,-0.3665,1.1331,-0.1129,1.5731,2.9377,0.5692,-0.3340,-0.6061,0.3979,
12.570014,-0.3894,1.4976,-0.1090,1.5731,2.9377,0.5692,-0.3340,-0.6061,0.3979,
12.573005,-0.3894,1.4976,-0.1090,1.3058,6.4506,0.4386,-0.3340,-0.6061,0.3979,
12.574899,-0.3894,1.4976,-0.1090,1.3058,6.4506,0.4386,-0.4799,0.1135,0.6248,
12.590063,-0.3894,1.4976,-0.1090,1.3058,6.4506,0.4386,-0.2280,1.1478,0.7670,
12.610194,-1.0556,1.6613,-0.2968,1.3058,6.4506,0.4386,-0.2280,1.1478,0.7670,
12.613700,-1.0556,1.6613,-0.2968,-5.4913,7.8950,-1.3953,-0.2280,1.1478,0.7670,
12.615835,-1.0556,1.6613,-0.2968,-5.4913,7.8950,-1.3953,0.6711,1.8903,0.9832,
12.629684,-1.0556,1.6613,-0.2968,-5.4913,7.8950,-1.3953,0.5459,0.1214,0.9316,
12.649996,-0.7383,0.9916,-0.2919,-5.4913,7.8950,-1.3953,0.5459,0.1214,0.9316,
12.652233,-0.7383,0.9916,-0.2919,-2.7717,1.1974,-0.9518,0.5459,0.1214,0.9316,
12.654043,-0.7383,0.9916,-0.2919,-2.7717,1.1974,-0.9518,-0.1406,-0.1992,0.2152,
12.669477,-0.7383,0.9916,-0.2919,-2.7717,1.1974,-0.9518,-0.3968,0.1561,0.0266,
12.689893,-0.4063,0.9447,-0.2460,-2.7717,1.1974,-0.9518,-0.3968,0.1561,0.0266,
12.692594,-0.4063,0.9447,-0.2460,0.4425,0.6963,-0.5974,-0.3968,0.1561,0.0266,
12.694301,-0.4063,0.9447,-0.2460,0.4425,0.6963,-0.5974,-0.4623,0.3691,-0.0266,
12.710167,-0.4063,0.9447,-0.2460,0.4425,0.6963,-0.5974,-0.4059,0.1816,-0.0320,
12.730322,-0.2841,0.8773,-0.0904,0.4425,0.6963,-0.5974,-0.4059,0.1816,-0.0320,
12.734761,-0.2841,0.8773,-0.0904,1.6302,0.0101,0.8276,-0.4059,0.1816,-0.0320,
12.736517,-0.2841,0.8773,-0.0904,1.6302,0.0101,0.8276,-0.4053,-0.0330,-0.0261,
12.752033,-0.2841,0.8773,-0.0904,1.6302,0.0101,0.8276,-0.3680,-0.0501,-0.0298,
12.770719,-0.3042,0.7554,-0.0779,1.6302,0.0101,0.8276,-0.3680,-0.0501,-0.0298,
12.772831,-0.3042,0.7554,-0.0779,1.4267,-1.2164,0.8025,-0.3680,-0.0501,-0.0298,
12.774670,-0.3042,0.7554,-0.0779,1.4267,-1.2164,0.8025,-0.2194,0.0975,-0.0128,
12.790043,-0.3042,0.7554,-0.0779,1.4267,-1.2164,0.8025,-0.0831,0.2104,0.0591,
12.809877,-0.3134,0.7087,-0.1561,1.4267,-1.2164,0.8025,-0.0831,0.2104,0.0591,
12.812405,-0.3134,0.7087,-0.1561,1.3182,-1.6871,0.0113,-0.0831,0.2104,0.0591,
12.814195,-0.3134,0.7087,-0.1561,1.3182,-1.6871,0.0113,-0.0543,0.0107,0.1017,
12.829656,-0.3134,0.7087,-0.1561,1.3182,-1.6871,0.0113,-0.0921,-0.0618,0.1641,
12.850000,-0.3535,0.6660,-0.2736,1.3182,-1.6871,0.0113,-0.0921,-0.0618,0.1641,
12.852213,-0.3535,0.6660,-0.2736,0.8812,-2.1337,-1.1700,-0.0921,-0.0618,0.1641,
12.854187,-0.3535,0.6660,-0.2736,0.8812,-2.1337,-1.1700,-0.0410,0.1497,0.2461,
12.869894,-0.3535,0.6660,-0.2736,0.8812,-2.1337,-1.1700,0.1417,0.1800,0.2780,
12.889831,-0.4283,0.7148,-0.2660,0.8812,-2.1337,-1.1700,0.1417,0.1800,0.2780,
12.893420,-0.4283,0.7148,-0.2660,0.0477,-1.6967,-1.0501,0.1417,0.1800,0.2780,
12.895383,-0.4283,0.7148,-0.2660,0.0477,-1.6967,-1.0501,0.2141,0.0634,0.2567,
12.910138,-0.4283,0.7148,-0.2660,0.0477,-1.6967,-1.0501,0.1406,0.0682,0.2466,
12.930884,-0.3413,0.7161,-0.0572,0.0477,-1.6967,-1.0501,0.1406,0.0682,0.2466,
12.935726,-0.3413,0.7161,-0.0572,0.8082,-1.7157,1.0698,0.1406,0.0682,0.2466,
12.937748,-0.3413,0.7161,-0.0572,0.8082,-1.7157,1.0698,0.0399,0.2882,0.2285,
12.949845,-0.3413,0.7161,-0.0572,0.8082,-1.7157,1.0698,0.0037,0.4181,0.1427,
12.969787,-0.2956,0.5204,0.0454,0.8082,-1.7157,1.0698,0.0037,0.4181,0.1427,
12.971947,-0.2956,0.5204,0.0454,1.1675,-3.6625,2.1408,0.0037,0.4181,0.1427,
12.973720,-0.2956,0.5204,0.0454,1.1675,-3.6625,2.1408,0.0458,0.6653,0.0597,
12.989435,-0.2956,0.5204,0.0454,1.1675,-3.6625,2.1408,0.1092,0.8602,0.0506,
13.009638,-0.2509,0.4173,-0.0034,1.1675,-3.6625,2.1408,0.1092,0.8602,0.0506,
13.013141,-0.2509,0.4173,-0.0034,1.5325,-4.6762,1.8118,0.1092,0.8602,0.0506,
13.015119,-0.2509,0.4173,-0.0034,1.5325,-4.6762,1.8118,0.1491,1.0807,0.0469,
13.029925,-0.2509,0.4173,-0.0034,1.5325,-4.6762,1.8118,0.2450,1.2293,0.1049,
13.049395,-0.2455,0.7688,0.0349,1.5325,-4.6762,1.8118,0.2450,1.2293,0.1049,
13.052191,-0.2455,0.7688,0.0349,1.4678,-1.2273,2.4382,0.2450,1.2293,0.1049,
13.054431,-0.2455,0.7688,0.0349,1.4678,-1.2273,2.4382,0.4788,1.2549,0.1092,
13.069070,-0.2455,0.7688,0.0349,1.4678,-1.2273,2.4382,0.7297,1.0749,0.0447,
13.089516,-0.2680,1.2308,-0.0999,1.4678,-1.2273,2.4382,0.7297,1.0749,0.0447,
13.091744,-0.2680,1.2308,-0.0999,1.1036,3.3315,1.4774,0.7297,1.0749,0.0447,
13.093384,-0.2680,1.2308,-0.0999,1.1036,3.3315,1.4774,0.8852,0.7313,0.0346,
13.109312,-0.2680,1.2308,-0.0999,1.1036,3.3315,1.4774,1.3428,1.1446,0.0559,
13.129336,-0.3147,1.8501,-0.7622,1.1036,3.3315,1.4774,1.3428,1.1446,0.0559,
13.131922,-0.3147,1.8501,-0.7622,0.5287,9.5151,-4.4897,1.3428,1.1446,0.0559,
13.133636,-0.3147,1.8501,-0.7622,0.5287,9.5151,-4.4897,1.7273,1.4802,0.0059,
13.149865,-0.3147,1.8501,-0.7622,0.5287,9.5151,-4.4897,1.2298,0.8085,-0.0783,
13.169906,-0.2235,1.5430,-0.9159,0.5287,9.5151,-4.4897,1.2298,0.8085,-0.0783,
13.172030,-0.2235,1.5430,-0.9159,1.2831,6.7067,-5.3305,1.2298,0.8085,-0.0783,
13.173810,-0.2235,1.5430,-0.9159,1.2831,6.7067,-5.3305,0.5571,0.6056,-0.0847,
13.189311,-0.2235,1.5430,-0.9159,1.2831,6.7067,-5.3305,0.2322,0.3217,-0.2684,
13.208973,-0.5299,0.7537,-0.6518,1.2831,6.7067,-5.3305,0.2322,0.3217,-0.2684,
13.211760,-0.5299,0.7537,-0.6518,-1.7296,-0.9456,-2.5461,0.2322,0.3217,-0.2684,
13.213886,-0.5299,0.7537,-0.6518,-1.7296,-0.9456,-2.5461,0.0405,-0.0698,-0.4277,
13.229305,-0.5299,0.7537,-0.6518,-1.7296,-0.9456,-2.5461,-0.3244,-0.2184,-0.3398,
13.249318,-0.3867,0.8741,-0.5538,-1.7296,-0.9456,-2.5461,-0.3244,-0.2184,-0.3398,
13.252116,-0.3867,0.8741,-0.5538,-0.1773,0.2674,-1.6536,-0.3244,-0.2184,-0.3398,
13.253840,-0.3867,0.8741,-0.5538,-0.1773,0.2674,-1.6536,-0.5587,-0.1827,-0.3478,
13.268631,-0.3867,0.8741,-0.5538,-0.1773,0.2674,-1.6536,-0.7526,-0.2551,-0.4772,
13.289381,-0.1842,0.6638,-0.4112,-0.1773,0.2674,-1.6536,-0.7526,-0.2551,-0.4772,
13.292198,-0.1842,0.6638,-0.4112,1.9569,-1.8261,-0.4784,-0.7526,-0.2551,-0.4772,
13.293993,-0.1842,0.6638,-0.4112,1.9569,-1.8261,-0.4784,-0.8677,-0.2961,-0.5358,
13.309458,-0.1842,0.6638,-0.4112,1.9569,-1.8261,-0.4784,-0.9193,-0.1715,-0.5321,
13.329548,-0.1309,0.6667,-0.3899,1.9569,-1.8261,-0.4784,-0.9193,-0.1715,-0.5321,
13.331950,-0.1309,0.6667,-0.3899,2.6687,-1.8362,-0.5813,-0.9193,-0.1715,-0.5321,
13.333932,-0.1309,0.6667,-0.3899,2.6687,-1.8362,-0.5813,-0.9614,-0.0314,-0.5225,
13.348644,-0.1309,0.6667,-0.3899,2.6687,-1.8362,-0.5813,-0.9310,0.0410,-0.5156,
13.369071,-0.2331,0.5961,-0.2331,2.6687,-1.8362,-0.5813,-0.9310,0.0410,-0.5156,
13.372310,-0.2331,0.5961,-0.2331,1.8413,-2.5608,0.6396,-0.9310,0.0410,-0.5156,
13.374818,-0.2331,0.5961,-0.2331,1.8413,-2.5608,0.6396,-0.7638,0.1294,-0.4980,
13.388559,-0.2331,0.5961,-0.2331,1.8413,-2.5608,0.6396,-0.5529,0.2376,-0.5055,
13.409300,-0.2282,0.5612,-0.1502,1.8413,-2.5608,0.6396,-0.5529,0.2376,-0.5055,
13.412790,-0.2282,0.5612,-0.1502,2.0371,-2.8932,1.2611,-0.5529,0.2376,-0.5055,
13.414667,-0.2282,0.5612,-0.1502,2.0371,-2.8932,1.2611,-0.4266,0.2285,-0.5108,
13.429588,-0.2282,0.5612,-0.1502,2.0371,-2.8932,1.2611,-0.3633,0.1262,-0.5017,
13.448318,-0.1786,0.6806,-0.1830,2.0371,-2.8932,1.2611,-0.3633,0.1262,-0.5017,
13.450437,-0.1786,0.6806,-0.1830,2.6733,-1.6769,0.8390,-0.3633,0.1262,-0.5017,
13.452091,-0.1786,0.6806,-0.1830,2.6733,-1.6769,0.8390,-0.3249,-0.0112,-0.4463,
13.468624,-0.1786,0.6806,-0.1830,2.6733,-1.6769,0.8390,-0.2796,-0.0352,-0.3270,
13.488809,-0.1207,0.5939,-0.1397,2.6733,-1.6769,0.8390,-0.2796,-0.0352,-0.3270,
13.491402,-0.1207,0.5939,-0.1397,3.3717,-2.4887,1.1580,-0.2796,-0.0352,-0.3270,
13.492826,-0.1207,0.5939,-0.1397,3.3717,-2.4887,1.1580,-0.1609,0.1209,-0.2008,
13.509510,-0.1207,0.5939,-0.1397,3.3717,-2.4887,1.1580,-0.0730,0.1662,-0.1188,
13.528611,-0.0806,0.5817,-0.1832,3.3717,-2.4887,1.1580,-0.0730,0.1662,-0.1188,
13.531620,-0.0806,0.5817,-0.1832,3.8029,-2.5909,0.7194,-0.0730,0.1662,-0.1188,
13.533641,-0.0806,0.5817,-0.1832,3.8029,-2.5909,0.7194,-0.1342,0.1337,-0.0474,
13.549105,-0.0806,0.5817,-0.1832,3.8029,-2.5909,0.7194,-0.2898,0.0485,-0.0421,
13.569053,-0.2907,1.0473,-0.0887,3.8029,-2.5909,0.7194,-0.2898,0.0485,-0.0421,
13.571332,-0.2907,1.0473,-0.0887,1.7496,1.9595,1.5923,-0.2898,0.0485,-0.0421,
13.573051,-0.2907,1.0473,-0.0887,1.7496,1.9595,1.5923,-0.4975,-0.1944,-0.0224,
13.588842,-0.2907,1.0473,-0.0887,1.7496,1.9595,1.5923,-0.6919,-0.4373,0.0586,
13.608562,-0.8372,1.8917,-0.1669,1.7496,1.9595,1.5923,-0.6919,-0.4373,0.0586,
13.611529,-0.8372,1.8917,-0.1669,-3.5829,10.1750,0.5700,-0.6919,-0.4373,0.0586,
13.613425,-0.8372,1.8917,-0.1669,-3.5829,10.1750,0.5700,-0.8288,-0.1800,0.3073,
13.628931,-0.8372,1.8917,-0.1669,-3.5829,10.1750,0.5700,-0.8693,1.2053,0.7068,
13.648913,-1.0688,1.8619,-0.3567,-3.5829,10.1750,0.5700,-0.8693,1.2053,0.7068,
13.651415,-1.0688,1.8619,-0.3567,-6.0652,9.7208,-1.4847,-0.8693,1.2053,0.7068,
13.653276,-1.0688,1.8619,-0.3567,-6.0652,9.7208,-1.4847,-0.4037,2.2360,0.5848,
13.668127,-1.0688,1.8619,-0.3567,-6.0652,9.7208,-1.4847,0.1662,1.0621,0.2381,
13.688679,-0.5756,0.8773,-0.6455,-6.0652,9.7208,-1.4847,0.1662,1.0621,0.2381,
13.690988,-0.5756,0.8773,-0.6455,-1.5111,-0.0075,-4.0739,0.1662,1.0621,0.2381,
13.692924,-0.5756,0.8773,-0.6455,-1.5111,-0.0075,-4.0739,0.2509,0.0442,0.0746,
13.709074,-0.5756,0.8773,-0.6455,-1.5111,-0.0075,-4.0739,-0.0021,0.1113,-0.0581,
13.728718,-0.2924,0.8372,-0.1512,-1.5111,-0.0075,-4.0739,-0.0021,0.1113,-0.0581,
13.731032,-0.2924,0.8372,-0.1512,1.2538,-0.3902,0.8250,-0.0021,0.1113,-0.0581,
13.732614,-0.2924,0.8372,-0.1512,1.2538,-0.3902,0.8250,-0.1337,0.0229,-0.0320,
13.751577,-0.2924,0.8372,-0.1512,1.2538,-0.3902,0.8250,-0.1380,-0.1193,-0.0362,
13.768448,-0.1854,0.7334,-0.0039,1.2538,-0.3902,0.8250,-0.1380,-0.1193,-0.0362,
13.771323,-0.1854,0.7334,-0.0039,2.2985,-1.4293,2.1941,-0.1380,-0.1193,-0.0362,
13.773274,-0.1854,0.7334,-0.0039,2.2985,-1.4293,2.1941,-0.0692,-0.0011,-0.0421,
13.788257,-0.1854,0.7334,-0.0039,2.2985,-1.4293,2.1941,0.0027,0.1662,0.0064,
13.808754,-0.2570,0.7148,-0.0816,2.2985,-1.4293,2.1941,0.0027,0.1662,0.0064,
13.812090,-0.2570,0.7148,-0.0816,1.5513,-1.6464,1.3799,0.0027,0.1662,0.0064,
13.814050,-0.2570,0.7148,-0.0816,1.5513,-1.6464,1.3799,0.0463,0.0149,0.0698,
13.828297,-0.2570,0.7148,-0.0816,1.5513,-1.6464,1.3799,0.0735,-0.2764,0.1119,
13.848693,-0.2436,0.6479,-0.1283,1.5513,-1.6464,1.3799,0.0735,-0.2764,0.1119,
13.851636,-0.2436,0.6479,-0.1283,1.6630,-2.3119,0.9222,0.0735,-0.2764,0.1119,
13.854165,-0.2436,0.6479,-0.1283,1.6630,-2.3119,0.9222,0.1236,-0.5097,0.1364,
13.869513,-0.2436,0.6479,-0.1283,1.6630,-2.3119,0.9222,0.1683,-0.4842,0.1704,
13.888512,-0.2961,0.5482,-0.2856,1.6630,-2.3119,0.9222,0.1683,-0.4842,0.1704,
13.890688,-0.2961,0.5482,-0.2856,1.1380,-3.3010,-0.6495,0.1683,-0.4842,0.1704,
13.892555,-0.2961,0.5482,-0.2856,1.1380,-3.3010,-0.6495,0.2439,-0.2956,0.2115,
13.908441,-0.2961,0.5482,-0.2856,1.1380,-3.3010,-0.6495,0.3467,-0.2605,0.2434,
13.928336,-0.3691,0.6247,-0.1801,1.1380,-3.3010,-0.6495,0.3467,-0.2605,0.2434,
13.930864,-0.3691,0.6247,-0.1801,0.3674,-2.5624,0.4426,0.3467,-0.2605,0.2434,
13.932580,-0.3691,0.6247,-0.1801,0.3674,-2.5624,0.4426,0.3649,-0.1715,0.2333,
13.950213,-0.3691,0.6247,-0.1801,0.3674,-2.5624,0.4426,0.3489,-0.0368,0.2296,
13.968469,-0.2932,0.5414,-0.1329,0.3674,-2.5624,0.4426,0.3489,-0.0368,0.2296,
13.970844,-0.2932,0.5414,-0.1329,1.0410,-3.3831,1.0121,0.3489,-0.0368,0.2296,
13.972562,-0.2932,0.5414,-0.1329,1.0410,-3.3831,1.0121,0.2706,0.0660,0.1843,
13.988105,-0.2932,0.5414,-0.1329,1.0410,-3.3831,1.0121,0.1300,0.1262,0.1598,
14.008720,-0.3037,0.4835,-0.0599,1.0410,-3.3831,1.0121,0.1300,0.1262,0.1598,
14.011632,-0.3037,0.4835,-0.0599,0.8693,-3.9584,1.8123,0.1300,0.1262,0.1598,
14.013396,-0.3037,0.4835,-0.0599,0.8693,-3.9584,1.8123,0.0138,0.1800,0.1774,
14.028287,-0.3037,0.4835,-0.0599,0.8693,-3.9584,1.8123,-0.0346,0.2290,0.1854,
14.048428,-0.3261,0.7879,0.0393,0.8693,-3.9584,1.8123,-0.0346,0.2290,0.1854,
14.050529,-0.3261,0.7879,0.0393,0.5662,-1.0038,2.8118,-0.0346,0.2290,0.1854,
14.052241,-0.3261,0.7879,0.0393,0.5662,-1.0038,2.8118,-0.0112,0.2226,0.1593,
14.068319,-0.3261,0.7879,0.0393,0.5662,-1.0038,2.8118,0.0474,0.1625,0.1193,
14.088233,-0.3078,1.2875,-0.1114,0.5662,-1.0038,2.8118,0.0474,0.1625,0.1193,
14.090535,-0.3078,1.2875,-0.1114,0.1093,3.3546,-0.3181,0.0474,0.1625,0.1193,
14.092238,-0.3078,1.2875,-0.1114,0.1093,3.3546,-0.3181,0.0165,0.1635,0.0368,
14.107851,-0.3078,1.2875,-0.1114,0.1093,3.3546,-0.3181,-0.1422,0.4325,-0.0016,
14.128406,-0.4317,2.2207,-0.5028,0.1093,3.3546,-0.3181,-0.1422,0.4325,-0.0016,
14.130768,-0.4317,2.2207,-0.5028,-1.1204,12.4963,-4.1398,-0.1422,0.4325,-0.0016,
14.132785,-0.4317,2.2207,-0.5028,-1.1204,12.4963,-4.1398,0.0703,1.1824,0.0453,
14.150519,-0.4317,2.2207,-0.5028,-1.1204,12.4963,-4.1398,0.2690,1.1670,0.1859,
14.167441,-0.0347,1.5211,-0.7515,-1.1204,12.4963,-4.1398,0.2690,1.1670,0.1859,
14.170779,-0.0347,1.5211,-0.7515,2.6860,5.6313,-6.3700,0.2690,1.1670,0.1859,
14.172895,-0.0347,1.5211,-0.7515,2.6860,5.6313,-6.3700,0.0618,0.5779,0.2690,
14.187517,-0.0347,1.5211,-0.7515,2.6860,5.6313,-6.3700,-0.0863,0.0469,0.0575,
14.207415,-0.4070,0.7334,-0.4637,2.6860,5.6313,-6.3700,-0.0863,0.0469,0.0575,
14.209642,-0.4070,0.7334,-0.4637,-1.0361,-2.1076,-3.5168,-0.0863,0.0469,0.0575,
14.211602,-0.4070,0.7334,-0.4637,-1.0361,-2.1076,-3.5168,-0.2189,-0.5284,-0.2232,
14.227399,-0.4070,0.7334,-0.4637,-1.0361,-2.1076,-3.5168,-0.3878,-0.9252,-0.3100,
14.247842,-0.3950,0.8497,-0.2301,-1.0361,-2.1076,-3.5168,-0.3878,-0.9252,-0.3100,
14.251052,-0.3950,0.8497,-0.2301,-0.7929,-0.9471,-1.4282,-0.3878,-0.9252,-0.3100,
14.252702,-0.3950,0.8497,-0.2301,-0.7929,-0.9471,-1.4282,-0.5896,-1.1228,-0.3036,
14.267622,-0.3950,0.8497,-0.2301,-0.7929,-0.9471,-1.4282,-0.6147,-1.0184,-0.3931,
14.288176,-0.1099,0.8370,-0.1112,-0.7929,-0.9471,-1.4282,-0.6147,-1.0184,-0.3931,
14.290782,-0.1099,0.8370,-0.1112,2.1290,-1.0493,-0.5473,-0.6147,-1.0184,-0.3931,
14.292675,-0.1099,0.8370,-0.1112,2.1290,-1.0493,-0.5473,-0.3345,-0.8549,-0.4985,
14.308185,-0.1099,0.8370,-0.1112,2.1290,-1.0493,-0.5473,-0.0208,-0.8080,-0.4794,
14.327771,-0.0125,0.6804,-0.3103,2.1290,-1.0493,-0.5473,-0.0208,-0.8080,-0.4794,
14.330783,-0.0125,0.6804,-0.3103,3.2790,-2.5228,-2.6738,-0.0208,-0.8080,-0.4794,
14.332292,-0.0125,0.6804,-0.3103,3.2790,-2.5228,-2.6738,0.1225,-0.9886,-0.3590,
14.348106,-0.0125,0.6804,-0.3103,3.2790,-2.5228,-2.6738,0.1550,-1.0418,-0.2610,
14.367970,-0.1112,0.6767,-0.2861,3.2790,-2.5228,-2.6738,0.1550,-1.0418,-0.2610,
14.370330,-0.1112,0.6767,-0.2861,2.4383,-2.5141,-2.5267,0.1550,-1.0418,-0.2610,
14.372220,-0.1112,0.6767,-0.2861,2.4383,-2.5141,-2.5267,0.1513,-1.0040,-0.2136,
14.387921,-0.1112,0.6767,-0.2861,2.4383,-2.5141,-2.5267,0.1790,-0.9848,-0.1507,
14.408104,-0.1989,0.7097,-0.1666,2.4383,-2.5141,-2.5267,0.1790,-0.9848,-0.1507,
14.411158,-0.1989,0.7097,-0.1666,1.6546,-2.1634,-1.4375,0.1790,-0.9848,-0.1507,
14.412731,-0.1989,0.7097,-0.1666,1.6546,-2.1634,-1.4375,0.2562,-0.9055,-0.1065,
14.427770,-0.1989,0.7097,-0.1666,1.6546,-2.1634,-1.4375,0.3398,-0.8751,-0.0559,
14.447527,-0.1910,0.6179,-0.1669,1.6546,-2.1634,-1.4375,0.3398,-0.8751,-0.0559,
14.450527,-0.1910,0.6179,-0.1669,1.7672,-3.0497,-1.4603,0.3398,-0.8751,-0.0559,
14.452773,-0.1910,0.6179,-0.1669,1.7672,-3.0497,-1.4603,0.3712,-0.9737,-0.0016,
14.468056,-0.1910,0.6179,-0.1669,1.7672,-3.0497,-1.4603,0.3611,-1.0338,0.0314,
14.488593,-0.2316,0.5766,-0.1466,1.7672,-3.0497,-1.4603,0.3611,-1.0338,0.0314,
14.492370,-0.2316,0.5766,-0.1466,1.3711,-3.4540,-1.2744,0.3611,-1.0338,0.0314,
14.494525,-0.2316,0.5766,-0.1466,1.3711,-3.4540,-1.2744,0.3489,-1.0109,0.0437,
14.507951,-0.2316,0.5766,-0.1466,1.3711,-3.4540,-1.2744,0.3499,-0.9529,0.0431,
14.528249,-0.2516,0.6127,-0.1867,1.3711,-3.4540,-1.2744,0.3499,-0.9529,0.0431,
14.530920,-0.2516,0.6127,-0.1867,1.1650,-3.1038,-1.6826,0.3499,-0.9529,0.0431,
14.532761,-0.2516,0.6127,-0.1867,1.1650,-3.1038,-1.6826,0.3569,-0.8490,0.0282,
14.547584,-0.2516,0.6127,-0.1867,1.1650,-3.1038,-1.6826,0.3478,-0.7798,0.0043,
14.567826,-0.3933,1.0828,-0.1867,1.1650,-3.1038,-1.6826,0.3478,-0.7798,0.0043,
14.570284,-0.3933,1.0828,-0.1867,-0.2246,1.5024,-1.6725,0.3478,-0.7798,0.0043,
14.572186,-0.3933,1.0828,-0.1867,-0.2246,1.5024,-1.6725,0.3153,-0.6711,0.0128,
14.588028,-0.3933,1.0828,-0.1867,-0.2246,1.5024,-1.6725,0.2764,-0.6669,0.0368,
14.607518,-0.8033,1.9195,-0.2030,-0.2246,1.5024,-1.6725,0.2764,-0.6669,0.0368,
14.611135,-0.8033,1.9195,-0.2030,-4.2467,9.7009,-1.8222,0.2764,-0.6669,0.0368,
14.612804,-0.8033,1.9195,-0.2030,-4.2467,9.7009,-1.8222,0.2514,-0.5657,0.1960,
14.627172,-0.8033,1.9195,-0.2030,-4.2467,9.7009,-1.8222,0.2690,0.1502,0.5294,
14.648088,-0.8045,1.6442,-0.5108,-4.2467,9.7009,-1.8222,0.2690,0.1502,0.5294,
14.650348,-0.8045,1.6442,-0.5108,-4.3898,6.9529,-4.7741,0.2690,0.1502,0.5294,
14.652136,-0.8045,1.6442,-0.5108,-4.3898,6.9529,-4.7741,0.3846,1.0914,0.6008,
14.667292,-0.8045,1.6442,-0.5108,-4.3898,6.9529,-4.7741,0.4996,0.6546,0.3590,
14.687631,-0.5248,1.1214,-0.4488,-4.3898,6.9529,-4.7741,0.4996,0.6546,0.3590,
14.690088,-0.5248,1.1214,-0.4488,-1.8371,1.7709,-3.8850,0.4996,0.6546,0.3590,
14.691873,-0.5248,1.1214,-0.4488,-1.8371,1.7709,-3.8850,0.6440,-0.0863,0.1534,
14.707076,-0.5248,1.1214,-0.4488,-1.8371,1.7709,-3.8850,0.6088,-0.5060,0.0879,
14.726777,-0.1788,0.9078,-0.1112,-1.8371,1.7709,-3.8850,0.6088,-0.5060,0.0879,
14.729408,-0.1788,0.9078,-0.1112,1.5163,-0.3220,-0.3842,0.6088,-0.5060,0.0879,
14.731599,-0.1788,0.9078,-0.1112,1.5163,-0.3220,-0.3842,0.4314,-0.7707,0.0368,
14.750560,-0.1788,0.9078,-0.1112,1.5163,-0.3220,-0.3842,0.4490,-0.9199,-0.0730,
14.767463,-0.0596,0.7407,-0.0652,1.5163,-0.3220,-0.3842,0.4490,-0.9199,-0.0730,
14.769851,-0.0596,0.7407,-0.0652,2.6906,-1.9507,0.1503,0.4490,-0.9199,-0.0730,
14.771537,-0.0596,0.7407,-0.0652,2.6906,-1.9507,0.1503,0.5859,-1.2597,0.0016,
14.787683,-0.0596,0.7407,-0.0652,2.6906,-1.9507,0.1503,0.6386,-1.5313,0.1859,
14.807460,-0.1358,0.6484,-0.1476,2.6906,-1.9507,0.1503,0.6386,-1.5313,0.1859,
14.809668,-0.1358,0.6484,-0.1476,1.9546,-2.8481,-0.6147,0.6386,-1.5313,0.1859,
14.810831,-0.1358,0.6484,-0.1476,1.9546,-2.8481,-0.6147,0.6471,-1.5340,0.3899,
14.826668,-0.1358,0.6484,-0.1476,1.9546,-2.8481,-0.6147,0.6743,-1.4823,0.4778,
14.847814,-0.3086,0.5734,-0.1761,1.9546,-2.8481,-0.6147,0.6743,-1.4823,0.4778,
14.850263,-0.3086,0.5734,-0.1761,0.1535,-3.6167,-0.8465,0.6743,-1.4823,0.4778,
14.851996,-0.3086,0.5734,-0.1761,0.1535,-3.6167,-0.8465,0.5886,-1.4759,0.4969,
14.866856,-0.3086,0.5734,-0.1761,0.1535,-3.6167,-0.8465,0.3691,-1.3524,0.4432,
14.887016,-0.4217,0.4923,-0.2790,0.1535,-3.6167,-0.8465,0.3691,-1.3524,0.4432,
14.889999,-0.4217,0.4923,-0.2790,-1.0787,-4.4530,-1.8534,0.3691,-1.3524,0.4432,
14.892209,-0.4217,0.4923,-0.2790,-1.0787,-4.4530,-1.8534,0.1449,-1.0461,0.3771,
14.906734,-0.4217,0.4923,-0.2790,-1.0787,-4.4530,-1.8534,0.0772,-0.8453,0.3382,
14.927498,-0.5082,0.6408,-0.4647,-1.0787,-4.4530,-1.8534,0.0772,-0.8453,0.3382,
14.931009,-0.5082,0.6408,-0.4647,-2.0271,-3.0365,-3.7453,0.0772,-0.8453,0.3382,
14.933247,-0.5082,0.6408,-0.4647,-2.0271,-3.0365,-3.7453,0.1411,-0.7814,0.3318,
14.947722,-0.5082,0.6408,-0.4647,-2.0271,-3.0365,-3.7453,0.2423,-0.5689,0.3196,
14.967536,-0.3731,0.6474,-0.3726,-2.0271,-3.0365,-3.7453,0.2423,-0.5689,0.3196,
14.970194,-0.3731,0.6474,-0.3726,-0.8029,-3.0035,-2.8496,0.2423,-0.5689,0.3196,
14.972104,-0.3731,0.6474,-0.3726,-0.8029,-3.0035,-2.8496,0.2178,-0.3888,0.2882,
14.987415,-0.3731,0.6474,-0.3726,-0.8029,-3.0035,-2.8496,0.1001,-0.3585,0.2578,
15.007631,-0.3545,0.6513,-0.2177,-0.8029,-3.0035,-2.8496,0.1001,-0.3585,0.2578,
15.012653,-0.3545,0.6513,-0.2177,-0.7109,-2.9907,-1.3141,0.1001,-0.3585,0.2578,
15.014938,-0.3545,0.6513,-0.2177,-0.7109,-2.9907,-1.3141,0.0341,-0.3585,0.2786,
15.027064,-0.3545,0.6513,-0.2177,-0.7109,-2.9907,-1.3141,0.0511,-0.3217,0.3036,
15.048317,-0.4016,0.6672,-0.2169,-0.7109,-2.9907,-1.3141,0.0511,-0.3217,0.3036,
15.050793,-0.4016,0.6672,-0.2169,-1.2712,-2.8653,-1.3279,0.0511,-0.3217,0.3036,
15.052706,-0.4016,0.6672,-0.2169,-1.2712,-2.8653,-1.3279,0.1411,-0.3382,0.2977,
15.067439,-0.4016,0.6672,-0.2169,-1.2712,-2.8653,-1.3279,0.3068,-0.4048,0.3286,
15.086392,-0.2853,0.6694,-0.0393,-1.2712,-2.8653,-1.3279,0.3068,-0.4048,0.3286,
15.088874,-0.2853,0.6694,-0.0393,-0.2373,-2.8691,0.4583,0.3068,-0.4048,0.3286,
15.090672,-0.2853,0.6694,-0.0393,-0.2373,-2.8691,0.4583,0.3766,-0.5390,0.3132,
15.106443,-0.2853,0.6694,-0.0393,-0.2373,-2.8691,0.4583,0.3020,-0.7425,0.2147,
15.127600,-0.2113,1.2980,0.0718,-0.2373,-2.8691,0.4583,0.3020,-0.7425,0.2147,
15.130024,-0.2113,1.2980,0.0718,0.4235,3.2790,1.6025,0.3020,-0.7425,0.2147,
15.131547,-0.2113,1.2980,0.0718,0.4235,3.2790,1.6025,0.2386,-1.2123,0.1614,
15.150956,-0.2113,1.2980,0.0718,0.4235,3.2790,1.6025,0.1310,-1.6240,0.1411,
15.166800,-0.2206,2.2303,-0.1483,0.4235,3.2790,1.6025,0.1310,-1.6240,0.1411,
15.168947,-0.2206,2.2303,-0.1483,0.3248,12.4067,-0.6259,0.1310,-1.6240,0.1411,
15.170878,-0.2206,2.2303,-0.1483,0.3248,12.4067,-0.6259,-0.1273,-1.7018,0.1859,
15.186941,-0.2206,2.2303,-0.1483,0.3248,12.4067,-0.6259,-0.5449,-1.3417,0.2658,
15.207223,-0.0220,2.0026,-0.3552,0.3248,12.4067,-0.6259,-0.5449,-1.3417,0.2658,
15.209705,-0.0220,2.0026,-0.3552,2.2291,10.1441,-2.9313,-0.5449,-1.3417,0.2658,
15.211442,-0.0220,2.0026,-0.3552,2.2291,10.1441,-2.9313,-0.5992,-0.3659,0.6232,
15.227040,-0.0220,2.0026,-0.3552,2.2291,10.1441,-2.9313,0.1044,0.2104,0.7601,
15.246577,-0.2411,1.2731,-0.3787,2.2291,10.1441,-2.9313,0.1044,0.2104,0.7601,
15.248985,-0.2411,1.2731,-0.3787,-0.1797,2.9262,-3.2627,0.1044,0.2104,0.7601,
15.250972,-0.2411,1.2731,-0.3787,-0.1797,2.9262,-3.2627,0.8522,-0.7468,0.6333,
15.267563,-0.2411,1.2731,-0.3787,-0.1797,2.9262,-3.2627,0.8032,-1.7108,0.7137,
15.287586,-0.1915,1.0359,-0.2365,-0.1797,2.9262,-3.2627,0.8032,-1.7108,0.7137,
15.289933,-0.1915,1.0359,-0.2365,0.0778,0.5645,-1.6535,0.8032,-1.7108,0.7137,
15.291625,-0.1915,1.0359,-0.2365,0.0778,0.5645,-1.6535,0.5657,-2.1343,0.7025,
15.306573,-0.1915,1.0359,-0.2365,0.0778,0.5645,-1.6535,0.4160,-1.9649,0.5774,
15.327053,-0.1309,0.7280,-0.0953,0.0778,0.5645,-1.6535,0.4160,-1.9649,0.5774,
15.330075,-0.1309,0.7280,-0.0953,0.4813,-2.4861,-0.2297,0.4160,-1.9649,0.5774,
15.332105,-0.1309,0.7280,-0.0953,0.4813,-2.4861,-0.2297,0.3702,-1.6837,0.4650,
15.350943,-0.1309,0.7280,-0.0953,0.4813,-2.4861,-0.2297,0.3984,-1.5585,0.3579,
15.366530,-0.1182,0.4913,-0.1239,0.4813,-2.4861,-0.2297,0.3984,-1.5585,0.3579,
15.368979,-0.1182,0.4913,-0.1239,0.4941,-4.8231,-0.4724,0.3984,-1.5585,0.3579,
15.370852,-0.1182,0.4913,-0.1239,0.4941,-4.8231,-0.4724,0.4032,-1.5052,0.2482,
15.387280,-0.1182,0.4913,-0.1239,0.4941,-4.8231,-0.4724,0.3260,-1.3998,0.1577,
15.406833,-0.1449,0.4693,-0.2094,0.4941,-4.8231,-0.4724,0.3260,-1.3998,0.1577,
