
time,gFx,gFy,gFz,ax,ay,az,wx,wy,wz,
0.039677,0.0000,0.0000,0.0000,-0.1480,-1.2630,-3.1580,0.0000,0.0000,0.0000,
0.058687,0.0000,0.0000,0.0000,-0.1720,-1.7650,-3.4700,0.0000,0.0000,0.0000,
0.076109,-0.0371,0.2071,0.9389,-0.1720,-1.7650,-3.4700,0.0000,0.0000,0.0000,
0.078191,0.0328,0.2497,0.6038,-0.1720,-1.7650,-3.4700,0.0000,0.0000,0.0000,
0.080507,0.0284,0.2747,0.5368,-0.1720,-1.7650,-3.4700,0.0000,0.0000,0.0000,
0.082686,0.0286,0.2703,0.6861,-0.1720,-1.7650,-3.4700,0.0000,0.0000,0.0000,
0.084807,0.0286,0.2703,0.6861,-0.1720,-1.7650,-3.4700,-0.7066,-0.8628,0.3208,
0.086851,0.0286,0.2703,0.6861,-0.1000,-0.9470,-2.4030,-0.7066,-0.8628,0.3208,
0.098642,0.0286,0.2703,0.6861,-0.0160,-0.1100,-0.3310,-0.7066,-0.8628,0.3208,
0.117062,0.0286,0.2703,0.6861,0.0630,0.2780,0.9870,-0.7066,-0.8628,0.3208,
0.141226,0.0286,0.2703,0.6861,0.1490,0.5330,0.9310,-0.7066,-0.8628,0.3208,
0.158952,0.0702,0.2649,0.9263,0.1490,0.5330,0.9310,-0.7066,-0.8628,0.3208,
0.161058,0.1148,0.2707,1.0666,0.1490,0.5330,0.9310,-0.7066,-0.8628,0.3208,
0.162934,0.1380,0.2879,1.0610,0.1490,0.5330,0.9310,-0.7066,-0.8628,0.3208,
0.164806,0.1502,0.3122,0.9503,0.1490,0.5330,0.9310,-0.7066,-0.8628,0.3208,
0.166765,0.1502,0.3122,0.9503,0.1490,0.5330,0.9310,0.1903,0.0212,0.3968,
0.168669,0.1502,0.3122,0.9503,0.2400,0.7510,-0.1500,0.1903,0.0212,0.3968,
0.179874,0.1502,0.3122,0.9503,-0.0210,0.9980,-1.5710,0.1903,0.0212,0.3968,
0.197737,0.1502,0.3122,0.9503,-0.4500,1.3510,-2.5160,0.1903,0.0212,0.3968,
0.220178,0.1502,0.3122,0.9503,-0.4500,1.3510,-2.5160,0.0583,0.3432,0.2388,
0.223661,0.1502,0.3122,0.9503,-0.4950,1.8550,-2.7340,0.0583,0.3432,0.2388,
0.237341,0.1190,0.3434,0.8035,-0.4950,1.8550,-2.7340,0.0583,0.3432,0.2388,
0.240276,0.0675,0.3870,0.7073,-0.4950,1.8550,-2.7340,0.0583,0.3432,0.2388,
0.242638,0.0564,0.4418,0.6844,-0.4950,1.8550,-2.7340,0.0583,0.3432,0.2388,
0.244842,0.0112,0.4282,0.7352,-0.4950,1.8550,-2.7340,0.0583,0.3432,0.2388,
0.247505,0.0112,0.4282,0.7352,-0.8910,1.7630,-2.2550,0.0583,0.3432,0.2388,
0.260030,0.0112,0.4282,0.7352,-1.1950,1.5280,-1.0380,0.0583,0.3432,0.2388,
0.279199,0.0112,0.4282,0.7352,-1.1950,1.5280,-1.0380,-0.3527,0.2943,0.1368,
0.285093,0.0112,0.4282,0.7352,-1.2610,1.5590,0.1080,-0.3527,0.2943,0.1368,
0.301407,0.0112,0.4282,0.7352,-1.2940,1.6150,0.5110,-0.3527,0.2943,0.1368,
0.319972,-0.0235,0.3973,0.8611,-1.2940,1.6150,0.5110,-0.3527,0.2943,0.1368,
0.323812,-0.0323,0.3910,0.9808,-1.2940,1.6150,0.5110,-0.3527,0.2943,0.1368,
0.327073,-0.0422,0.3907,1.0241,-1.2940,1.6150,0.5110,-0.3527,0.2943,0.1368,
0.331385,-0.0413,0.3968,1.0405,-1.2940,1.6150,0.5110,-0.3527,0.2943,0.1368,
0.334678,-0.0413,0.3968,1.0405,-1.1920,1.6840,0.6640,-0.3527,0.2943,0.1368,
0.343265,-0.0413,0.3968,1.0405,-1.1920,1.6840,0.6640,0.3333,0.3191,0.0468,
0.344882,-0.0413,0.3968,1.0405,-0.8960,1.8750,0.8130,0.3333,0.3191,0.0468,
0.360600,-0.0413,0.3968,1.0405,-0.7160,1.9860,0.7020,0.3333,0.3191,0.0468,
0.381321,-0.0413,0.3968,1.0405,-0.4370,2.0090,0.3810,0.3333,0.3191,0.0468,
0.401615,-0.0186,0.4189,1.0549,-0.4370,2.0090,0.3810,0.3333,0.3191,0.0468,
0.405289,-0.0068,0.4374,1.0432,-0.4370,2.0090,0.3810,0.3333,0.3191,0.0468,
0.408528,0.0208,0.4489,1.0087,-0.4370,2.0090,0.3810,0.3333,0.3191,0.0468,
0.411998,0.0633,0.4460,1.0232,-0.4370,2.0090,0.3810,0.3333,0.3191,0.0468,
0.416342,0.0633,0.4460,1.0232,0.0010,1.9030,0.5500,0.3333,0.3191,0.0468,
0.421524,0.0633,0.4460,1.0232,0.0010,1.9030,0.5500,0.3044,0.0032,-0.1092,
0.424016,0.0633,0.4460,1.0232,0.2670,1.6910,1.0150,0.3044,0.0032,-0.1092,
0.441513,0.0633,0.4460,1.0232,0.1130,1.4400,1.1630,0.3044,0.0032,-0.1092,
0.462768,0.0633,0.4460,1.0232,0.0430,0.6500,1.3440,0.3044,0.0032,-0.1092,
0.482305,0.0901,0.4296,1.0691,0.0430,0.6500,1.3440,0.3044,0.0032,-0.1092,
0.486042,0.0901,0.4296,1.0691,0.0430,0.6500,1.3440,-0.0627,0.0422,-0.1062,
0.489204,0.0724,0.4090,1.0838,0.0430,0.6500,1.3440,-0.0627,0.0422,-0.1062,
0.491038,0.0447,0.4298,1.0701,0.0430,0.6500,1.3440,-0.0627,0.0422,-0.1062,
0.492721,0.0245,0.4518,1.0410,0.0430,0.6500,1.3440,-0.0627,0.0422,-0.1062,
0.494456,0.0245,0.4518,1.0410,-0.1160,0.7530,1.1150,-0.0627,0.0422,-0.1062,
0.502953,0.0245,0.4518,1.0410,-0.3330,-0.3230,1.2570,-0.0627,0.0422,-0.1062,
0.522910,0.0245,0.4518,1.0410,0.1840,-1.8640,2.7540,-0.0627,0.0422,-0.1062,
0.543565,0.0245,0.4518,1.0410,0.1840,-1.8640,2.7540,-0.0297,0.0802,-0.1902,
0.545670,0.0245,0.4518,1.0410,0.9640,-1.7280,4.1760,-0.0297,0.0802,-0.1902,
0.564553,-0.0070,0.3341,1.0593,0.9640,-1.7280,4.1760,-0.0297,0.0802,-0.1902,
0.569045,0.0313,0.1705,1.2150,0.9640,-1.7280,4.1760,-0.0297,0.0802,-0.1902,
0.572126,0.0987,0.1782,1.3621,0.9640,-1.7280,4.1760,-0.0297,0.0802,-0.1902,
0.575108,0.0540,0.2796,1.2294,0.9640,-1.7280,4.1760,-0.0297,0.0802,-0.1902,
0.578058,0.0540,0.2796,1.2294,0.4920,-0.7640,2.8800,-0.0297,0.0802,-0.1902,
0.584195,0.0540,0.2796,1.2294,0.6730,-0.2810,-0.1010,-0.0297,0.0802,-0.1902,
0.603568,0.0540,0.2796,1.2294,0.6730,-0.2810,-0.1010,0.1523,-0.4608,-0.4422,
0.606205,0.0540,0.2796,1.2294,1.1830,-0.3180,-2.0080,0.1523,-0.4608,-0.4422,
0.624044,0.0540,0.2796,1.2294,2.1440,-0.4220,-1.9700,0.1523,-0.4608,-0.4422,
0.644293,0.0884,0.3397,0.9205,2.1440,-0.4220,-1.9700,0.1523,-0.4608,-0.4422,
0.649246,0.1556,0.3458,0.7223,2.1440,-0.4220,-1.9700,0.1523,-0.4608,-0.4422,
0.653797,0.2560,0.3375,0.7245,2.1440,-0.4220,-1.9700,0.1523,-0.4608,-0.4422,
0.658021,0.1781,0.1815,0.8902,2.1440,-0.4220,-1.9700,0.1523,-0.4608,-0.4422,
0.662344,0.1781,0.1815,0.8902,1.5060,-1.8870,-0.3780,0.1523,-0.4608,-0.4422,
0.667792,0.1781,0.1815,0.8902,0.3680,-2.2030,1.4880,0.1523,-0.4608,-0.4422,
0.686300,0.1781,0.1815,0.8902,0.3680,-2.2030,1.4880,-0.1737,0.2142,-0.8722,
0.690245,0.1781,0.1815,0.8902,-0.7850,-1.6150,1.4030,-0.1737,0.2142,-0.8722,
0.704673,0.1781,0.1815,0.8902,-0.8830,-1.1990,-0.4350,-0.1737,0.2142,-0.8722,
0.725268,0.0452,0.1398,1.0847,-0.8830,-1.1990,-0.4350,-0.1737,0.2142,-0.8722,
0.727412,-0.0853,0.1952,1.0779,-0.8830,-1.1990,-0.4350,-0.1737,0.2142,-0.8722,
0.729099,-0.0999,0.2407,0.8883,-0.8830,-1.1990,-0.4350,-0.1737,0.2142,-0.8722,
0.731891,0.0252,0.3111,0.7110,-0.8830,-1.1990,-0.4350,-0.1737,0.2142,-0.8722,
0.733528,0.0252,0.3111,0.7110,0.3230,-0.6040,-2.1440,-0.1737,0.2142,-0.8722,
0.745966,0.0252,0.3111,0.7110,0.3230,-0.6040,-2.1440,0.4664,-0.0058,-0.5362,
0.750066,0.0252,0.3111,0.7110,0.7110,-0.1780,-3.0740,0.4664,-0.0058,-0.5362,
0.765412,0.0252,0.3111,0.7110,0.4250,0.2080,-3.2650,0.4664,-0.0058,-0.5362,
0.786202,0.0252,0.3111,0.7110,0.0220,0.4350,-2.8610,0.4664,-0.0058,-0.5362,
0.806101,0.0629,0.3629,0.6124,0.0220,0.4350,-2.8610,0.4664,-0.0058,-0.5362,
0.808306,0.0289,0.4093,0.5896,0.0220,0.4350,-2.8610,0.4664,-0.0058,-0.5362,
0.809981,-0.0203,0.4338,0.6297,0.0220,0.4350,-2.8610,0.4664,-0.0058,-0.5362,
0.811762,-0.0776,0.4279,0.7028,0.0220,0.4350,-2.8610,0.4664,-0.0058,-0.5362,
0.813524,-0.0776,0.4279,0.7028,0.0220,0.4350,-2.8610,-0.2017,0.0422,-0.5742,
0.815168,-0.0776,0.4279,0.7028,-0.4800,0.3880,-2.1610,-0.2017,0.0422,-0.5742,
0.826319,-0.0776,0.4279,0.7028,-0.7840,0.3650,-1.3060,-0.2017,0.0422,-0.5742,
0.846362,-0.0776,0.4279,0.7028,-0.4140,0.2290,-0.4830,-0.2017,0.0422,-0.5742,
0.867006,-0.0776,0.4279,0.7028,-0.4140,0.2290,-0.4830,-0.2596,-0.1598,-0.3282,
0.870778,-0.0776,0.4279,0.7028,0.0180,-0.0550,0.1350,-0.2596,-0.1598,-0.3282,
0.886728,-0.1134,0.4208,0.7912,0.0180,-0.0550,0.1350,-0.2596,-0.1598,-0.3282,
0.889798,-0.0794,0.4007,0.8783,0.0180,-0.0550,0.1350,-0.2596,-0.1598,-0.3282,
0.892496,-0.0384,0.3668,0.9428,0.0180,-0.0550,0.1350,-0.2596,-0.1598,-0.3282,
0.894778,-0.0310,0.3536,0.9733,0.0180,-0.0550,0.1350,-0.2596,-0.1598,-0.3282,
0.897055,-0.0310,0.3536,0.9733,0.0770,-0.1280,0.4150,-0.2596,-0.1598,-0.3282,
0.907371,-0.0310,0.3536,0.9733,0.0710,-0.0850,0.7650,-0.2596,-0.1598,-0.3282,
0.927165,-0.0310,0.3536,0.9733,0.1890,0.1470,0.9160,-0.2596,-0.1598,-0.3282,
0.948594,-0.0310,0.3536,0.9733,0.1890,0.1470,0.9160,-0.0627,-0.2227,-0.1722,
0.951777,-0.0310,0.3536,0.9733,0.0650,0.3930,0.4870,-0.0627,-0.2227,-0.1722,
0.968101,-0.0284,0.3539,1.0116,0.0650,0.3930,0.4870,-0.0627,-0.2227,-0.1722,
0.971833,-0.0135,0.3741,1.0281,0.0650,0.3930,0.4870,-0.0627,-0.2227,-0.1722,
0.974769,-0.0230,0.3986,0.9853,0.0650,0.3930,0.4870,-0.0627,-0.2227,-0.1722,
0.977730,-0.0454,0.3788,1.0029,0.0650,0.3930,0.4870,-0.0627,-0.2227,-0.1722,
0.981623,-0.0454,0.3788,1.0029,-0.1650,0.2230,0.6560,-0.0627,-0.2227,-0.1722,
0.988294,-0.0454,0.3788,1.0029,-0.3350,0.0800,1.4330,-0.0627,-0.2227,-0.1722,
1.008561,-0.0454,0.3788,1.0029,-0.3350,0.0800,1.4330,-0.1547,0.1722,-0.0462,
1.010647,-0.0454,0.3788,1.0029,-0.6670,0.0980,1.4500,-0.1547,0.1722,-0.0462,
1.029419,-0.0454,0.3788,1.0029,-0.8940,0.2620,1.0430,-0.1547,0.1722,-0.0462,
1.049717,-0.0643,0.3609,1.0831,-0.8940,0.2620,1.0430,-0.1547,0.1722,-0.0462,
1.053536,-0.1016,0.3592,1.0857,-0.8940,0.2620,1.0430,-0.1547,0.1722,-0.0462,
1.056735,-0.1344,0.3719,1.0459,-0.8940,0.2620,1.0430,-0.1547,0.1722,-0.0462,
1.059876,-0.1598,0.3555,1.0070,-0.8940,0.2620,1.0430,-0.1547,0.1722,-0.0462,
1.062916,-0.1598,0.3555,1.0070,-1.0660,0.1590,0.6440,-0.1547,0.1722,-0.0462,
1.069551,-0.1598,0.3555,1.0070,-1.0660,0.1590,0.6440,-0.8236,0.0512,0.1298,
1.070985,-0.1598,0.3555,1.0070,-1.3110,-1.4110,1.2870,-0.8236,0.0512,0.1298,
1.089674,-0.1598,0.3555,1.0070,-0.9870,-2.7270,3.6830,-0.8236,0.0512,0.1298,
1.109797,-0.1598,0.3555,1.0070,-1.0120,-2.5510,4.9420,-0.8236,0.0512,0.1298,
1.130027,-0.1828,0.1835,1.0766,-1.0120,-2.5510,4.9420,-0.8236,0.0512,0.1298,
1.135561,-0.1508,0.0329,1.3266,-1.0120,-2.5510,4.9420,-0.8236,0.0512,0.1298,
1.138504,-0.1520,0.0353,1.4594,-1.0120,-2.5510,4.9420,-0.8236,0.0512,0.1298,
1.141260,-0.1791,0.1197,1.2629,-1.0120,-2.5510,4.9420,-0.8236,0.0512,0.1298,
1.144113,-0.1791,0.1197,1.2629,-1.0120,-2.5510,4.9420,0.4664,-0.3079,0.1078,
1.146976,-0.1791,0.1197,1.2629,-1.3270,-1.6890,2.9960,0.4664,-0.3079,0.1078,
1.152366,-0.1791,0.1197,1.2629,-0.9000,-1.0770,0.0000,0.4664,-0.3079,0.1078,
1.170094,-0.1791,0.1197,1.2629,-0.0810,-0.9870,-1.9940,0.4664,-0.3079,0.1078,
1.192216,-0.1791,0.1197,1.2629,0.1340,-0.8950,-1.8880,0.4664,-0.3079,0.1078,
1.210723,-0.1286,0.1918,0.9545,0.1340,-0.8950,-1.8880,0.4664,-0.3079,0.1078,
1.215208,-0.0391,0.2169,0.7450,0.1340,-0.8950,-1.8880,0.4664,-0.3079,0.1078,
1.218332,-0.0158,0.2380,0.7521,0.1340,-0.8950,-1.8880,0.4664,-0.3079,0.1078,
1.221219,-0.0286,0.2060,0.8946,0.1340,-0.8950,-1.8880,0.4664,-0.3079,0.1078,
1.224029,-0.0286,0.2060,0.8946,0.1340,-0.8950,-1.8880,-0.0697,0.1662,-0.0811,
1.226976,-0.0286,0.2060,0.8946,0.0390,-1.2130,-0.4960,-0.0697,0.1662,-0.0811,
1.232933,-0.0286,0.2060,0.8946,0.0890,-1.3440,0.7340,-0.0697,0.1662,-0.0811,
1.250605,-0.0286,0.2060,0.8946,0.4620,-1.1010,0.9630,-0.0697,0.1662,-0.0811,
1.272318,-0.0286,0.2060,0.8946,0.4620,-1.1010,0.9630,0.2944,-0.8438,-0.2412,
1.276737,-0.0286,0.2060,0.8946,0.5150,-0.7190,0.1130,0.2944,-0.8438,-0.2412,
1.291478,-0.0205,0.1871,1.0229,0.5150,-0.7190,0.1130,0.2944,-0.8438,-0.2412,
1.293643,0.0320,0.2082,1.0476,0.5150,-0.7190,0.1130,0.2944,-0.8438,-0.2412,
1.295651,0.0536,0.2497,0.9603,0.5150,-0.7190,0.1130,0.2944,-0.8438,-0.2412,
1.297335,0.0555,0.2830,0.8276,0.5150,-0.7190,0.1130,0.2944,-0.8438,-0.2412,
1.299209,0.0555,0.2830,0.8276,0.4200,-0.4730,-1.1510,0.2944,-0.8438,-0.2412,
1.312633,0.0555,0.2830,0.8276,0.3870,-0.4330,-2.0290,0.2944,-0.8438,-0.2412,
1.331955,0.0555,0.2830,0.8276,0.3870,-0.4330,-2.0290,0.3174,-0.0378,-0.1761,
1.336137,0.0555,0.2830,0.8276,0.4210,-0.2670,-2.0680,0.3174,-0.0378,-0.1761,
1.353404,0.0555,0.2830,0.8276,0.1930,-0.0710,-1.6140,0.3174,-0.0378,-0.1761,
1.373811,0.0569,0.2971,0.7350,0.1930,-0.0710,-1.6140,0.3174,-0.0378,-0.1761,
1.375867,0.0601,0.3211,0.7280,0.1930,-0.0710,-1.6140,0.3174,-0.0378,-0.1761,
1.377574,0.0371,0.3470,0.7714,0.1930,-0.0710,-1.6140,0.3174,-0.0378,-0.1761,
1.379293,0.0371,0.3470,0.7714,-0.2280,-0.0050,-1.3430,0.3174,-0.0378,-0.1761,
1.381169,-0.0061,0.3558,0.7979,-0.2280,-0.0050,-1.3430,0.3174,-0.0378,-0.1761,
1.393483,-0.0061,0.3558,0.7979,-0.2280,-0.0050,-1.3430,-0.0036,-0.2349,-0.1592,
1.397618,-0.0061,0.3558,0.7979,-0.3310,0.0100,-0.9300,-0.0036,-0.2349,-0.1592,
1.413070,-0.0061,0.3558,0.7979,-0.0590,0.0900,-0.1800,-0.0036,-0.2349,-0.1592,
1.433971,-0.0061,0.3558,0.7979,0.1830,0.1730,-0.0660,-0.0036,-0.2349,-0.1592,
1.453760,-0.0135,0.3592,0.8408,0.1830,0.1730,-0.0660,-0.0036,-0.2349,-0.1592,
1.457488,0.0186,0.3683,0.9163,0.1830,0.1730,-0.0660,-0.0036,-0.2349,-0.1592,
1.461197,0.0433,0.3768,0.9279,0.1830,0.1730,-0.0660,-0.0036,-0.2349,-0.1592,
1.465030,0.0189,0.3727,0.9086,0.1830,0.1730,-0.0660,-0.0036,-0.2349,-0.1592,
1.468787,0.0189,0.3727,0.9086,-0.0590,0.1030,-0.2450,-0.0036,-0.2349,-0.1592,
1.476806,0.0189,0.3727,0.9086,-0.0590,0.1030,-0.2450,0.1783,-0.0348,-0.2962,
1.478452,0.0189,0.3727,0.9086,-0.2250,0.2470,0.3520,0.1783,-0.0348,-0.2962,
1.493441,0.0189,0.3727,0.9086,0.0510,0.1710,1.2020,0.1783,-0.0348,-0.2962,
1.514614,0.0189,0.3727,0.9086,0.5360,0.5420,0.7350,0.1783,-0.0348,-0.2962,
1.534768,0.0010,0.3912,0.9677,0.5360,0.5420,0.7350,0.1783,-0.0348,-0.2962,
1.538617,0.0277,0.3891,1.0532,0.5360,0.5420,0.7350,0.1783,-0.0348,-0.2962,
1.541691,0.0759,0.4362,1.0009,0.5360,0.5420,0.7350,0.1783,-0.0348,-0.2962,
1.544935,0.0903,0.4902,0.8978,0.5360,0.5420,0.7350,0.1783,-0.0348,-0.2962,
1.548285,0.0903,0.4902,0.8978,0.5360,0.5420,0.7350,0.6523,-0.4658,-0.4932,
1.551413,0.0903,0.4902,0.8978,0.5880,0.8890,-0.2060,0.6523,-0.4658,-0.4932,
1.555571,0.0903,0.4902,0.8978,0.4810,1.0460,-0.1860,0.6523,-0.4658,-0.4932,
1.575675,0.0903,0.4902,0.8978,0.4530,0.8250,0.9030,0.6523,-0.4658,-0.4932,
1.595710,0.0903,0.4902,0.8978,0.4530,0.8250,0.9030,0.2013,0.1132,-0.5702,
1.600435,0.0903,0.4902,0.8978,0.6240,0.5480,2.6340,0.2013,0.1132,-0.5702,
1.615444,0.0854,0.5161,0.8941,0.6240,0.5480,2.6340,0.2013,0.1132,-0.5702,
1.620203,0.0874,0.4995,1.0034,0.6240,0.5480,2.6340,0.2013,0.1132,-0.5702,
1.624929,0.1031,0.4743,1.1786,0.6240,0.5480,2.6340,0.2013,0.1132,-0.5702,
1.629305,0.2199,0.4673,1.2338,0.6240,0.5480,2.6340,0.2013,0.1132,-0.5702,
1.634732,0.2199,0.4673,1.2338,1.8300,0.4190,3.2050,0.2013,0.1132,-0.5702,
1.636722,0.2199,0.4673,1.2338,1.6580,-0.8930,2.9640,0.2013,0.1132,-0.5702,
1.655700,0.2199,0.4673,1.2338,1.6580,-0.8930,2.9640,1.3984,0.9922,-0.8532,
1.659910,0.2199,0.4673,1.2338,1.4070,-2.6320,3.8850,1.3984,0.9922,-0.8532,
1.676786,0.2199,0.4673,1.2338,3.0730,-2.5700,4.3180,1.3984,0.9922,-0.8532,
1.696567,0.1959,0.3465,1.2031,3.0730,-2.5700,4.3180,1.3984,0.9922,-0.8532,
1.699619,0.1563,0.1877,1.2879,3.0730,-2.5700,4.3180,1.3984,0.9922,-0.8532,
1.701330,0.1563,0.1877,1.2879,3.8760,-2.7350,2.2420,1.3984,0.9922,-0.8532,
1.703186,0.3015,0.2209,1.3189,3.8760,-2.7350,2.2420,1.3984,0.9922,-0.8532,
1.704860,0.3538,0.2376,1.0864,3.8760,-2.7350,2.2420,1.3984,0.9922,-0.8532,
1.717037,0.3538,0.2376,1.0864,5.1430,-2.1460,-1.3860,1.3984,0.9922,-0.8532,
1.737236,0.3538,0.2376,1.0864,5.1430,-2.1460,-1.3860,1.6343,0.0692,-2.5603,
1.741382,0.3538,0.2376,1.0864,3.2910,-3.3700,-1.4530,1.6343,0.0692,-2.5603,
1.757938,0.3538,0.2376,1.0864,4.0660,-2.9370,0.1710,1.6343,0.0692,-2.5603,
1.778047,0.4501,0.3301,0.6935,4.0660,-2.9370,0.1710,1.6343,0.0692,-2.5603,
1.782288,0.2282,0.2280,0.6668,4.0660,-2.9370,0.1710,1.6343,0.0692,-2.5603,
1.785782,0.2753,0.2901,0.8156,4.0660,-2.9370,0.1710,1.6343,0.0692,-2.5603,
1.788185,0.1390,0.2033,1.0188,4.0660,-2.9370,0.1710,1.6343,0.0692,-2.5603,
1.790845,0.1390,0.2033,1.0188,3.1130,-3.9360,2.3710,1.6343,0.0692,-2.5603,
1.798597,0.1390,0.2033,1.0188,3.1130,-3.9360,2.3710,2.4424,1.6162,-3.3542,
1.800592,0.1390,0.2033,1.0188,2.6650,-4.4600,2.7790,2.4424,1.6162,-3.3542,
1.818612,0.1390,0.2033,1.0188,-8.9820,-1.7990,-1.1160,2.4424,1.6162,-3.3542,
1.839471,0.1390,0.2033,1.0188,-2.0510,-1.0150,-1.2880,2.4424,1.6162,-3.3542,
1.858588,0.0350,0.1701,1.0295,-2.0510,-1.0150,-1.2880,2.4424,1.6162,-3.3542,
1.860585,-1.2221,0.4655,0.5864,-2.0510,-1.0150,-1.2880,2.4424,1.6162,-3.3542,
1.862280,-0.5513,0.5750,0.5224,-2.0510,-1.0150,-1.2880,2.4424,1.6162,-3.3542,
1.864274,0.2336,0.3783,0.5278,-2.0510,-1.0150,-1.2880,2.4424,1.6162,-3.3542,
1.865887,0.2336,0.3783,0.5278,-2.0510,-1.0150,-1.2880,2.2144,-0.5389,-1.1802,
1.867613,0.2336,0.3783,0.5278,5.7970,-3.1880,-0.8650,2.2144,-0.5389,-1.1802,
1.879089,0.2336,0.3783,0.5278,7.6520,-3.8310,0.7460,2.2144,-0.5389,-1.1802,
1.898647,0.2336,0.3783,0.5278,4.6480,-3.4720,1.7770,2.2144,-0.5389,-1.1802,
1.919295,0.2336,0.3783,0.5278,4.6480,-3.4720,1.7770,2.4314,0.3591,-3.9683,
1.922481,0.2336,0.3783,0.5278,3.7700,-2.8970,0.1510,2.4314,0.3591,-3.9683,
1.938538,0.4102,0.3255,0.6695,3.7700,-2.8970,0.1510,2.4314,0.3591,-3.9683,
1.940749,0.0786,0.3619,0.7587,3.7700,-2.8970,0.1510,2.4314,0.3591,-3.9683,
1.942360,-0.0569,0.4170,0.5642,3.7700,-2.8970,0.1510,2.4314,0.3591,-3.9683,
1.944101,-0.2876,0.4064,0.1717,3.7700,-2.8970,0.1510,2.4314,0.3591,-3.9683,
1.945640,-0.2876,0.4064,0.1717,2.0740,-2.8770,-3.3610,2.4314,0.3591,-3.9683,
1.958928,-0.2876,0.4064,0.1717,0.1810,-1.8670,-1.2030,2.4314,0.3591,-3.9683,
1.979864,-0.2876,0.4064,0.1717,-0.5160,-1.4350,1.6160,2.4314,0.3591,-3.9683,
2.000595,-0.2876,0.4064,0.1717,-0.5160,-1.4350,1.6160,1.2453,-0.4528,-3.2781,
2.004013,-0.2876,0.4064,0.1717,1.2130,-2.0100,1.9500,1.2453,-0.4528,-3.2781,
2.020702,-0.5276,0.4804,0.3823,1.2130,-2.0100,1.9500,1.2453,-0.4528,-3.2781,
2.022957,-0.5276,0.4804,0.3823,1.7590,-2.1870,1.4740,1.2453,-0.4528,-3.2781,
2.024588,-0.6366,0.4904,0.6722,1.7590,-2.1870,1.4740,1.2453,-0.4528,-3.2781,
2.026183,-0.4976,0.4019,0.6986,1.7590,-2.1870,1.4740,1.2453,-0.4528,-3.2781,
2.027915,-0.4809,0.3583,0.6294,1.7590,-2.1870,1.4740,1.2453,-0.4528,-3.2781,
2.041536,-0.4809,0.3583,0.6294,0.4460,-1.9120,-0.6460,1.2453,-0.4528,-3.2781,
2.060011,-0.4809,0.3583,0.6294,0.4460,-1.9120,-0.6460,1.8894,-0.0448,-3.3462,
2.064551,-0.4809,0.3583,0.6294,1.4310,-1.3480,-2.4980,1.8894,-0.0448,-3.3462,
2.082638,-0.4809,0.3583,0.6294,-0.2220,-1.4090,0.8010,1.8894,-0.0448,-3.3462,
2.100370,-0.6591,0.3609,0.3794,-0.2220,-1.4090,0.8010,1.8894,-0.0448,-3.3462,
2.102440,-0.5972,0.3888,0.1632,-0.2220,-1.4090,0.8010,1.8894,-0.0448,-3.3462,
2.104150,-0.7980,0.3418,0.4899,-0.2220,-1.4090,0.8010,1.8894,-0.0448,-3.3462,
2.106567,-1.4192,0.3128,0.4622,-0.2220,-1.4090,0.8010,1.8894,-0.0448,-3.3462,
2.109577,-1.4192,0.3128,0.4622,-5.9910,-1.2720,0.6850,1.8894,-0.0448,-3.3462,
2.123943,-1.4192,0.3128,0.4622,-5.9910,-1.2720,0.6850,1.6844,-0.5258,-2.6322,
2.125615,-1.4192,0.3128,0.4622,-4.9410,0.8270,-2.6840,1.6844,-0.5258,-2.6322,
2.142634,-1.4192,0.3128,0.4622,-3.0980,0.1140,-1.1020,1.6844,-0.5258,-2.6322,
2.163334,-1.4192,0.3128,0.4622,-1.4990,-0.4360,6.3610,1.6844,-0.5258,-2.6322,
2.181653,-1.3344,0.4939,0.1079,-1.4990,-0.4360,6.3610,1.6844,-0.5258,-2.6322,
2.185381,-1.1608,0.3930,0.2674,-1.4990,-0.4360,6.3610,1.6844,-0.5258,-2.6322,
2.187998,-1.0022,0.3091,1.0449,-1.4990,-0.4360,6.3610,1.6844,-0.5258,-2.6322,
2.190672,-0.8989,0.3066,0.4060,-1.4990,-0.4360,6.3610,1.6844,-0.5258,-2.6322,
2.193424,-0.8989,0.3066,0.4060,-1.4990,-0.4360,6.3610,1.8974,-1.3128,-1.9452,
2.196215,-0.8989,0.3066,0.4060,-0.4510,-0.3190,0.0400,1.8974,-1.3128,-1.9452,
2.203451,-0.8989,0.3066,0.4060,0.8720,-1.9850,-3.8470,1.8974,-1.3128,-1.9452,
2.221868,-0.8989,0.3066,0.4060,1.8710,-1.7840,-0.2560,1.8974,-1.3128,-1.9452,
2.244015,-0.8989,0.3066,0.4060,1.4920,-1.0840,2.7610,1.8974,-1.3128,-1.9452,
2.262348,-0.7671,0.1170,0.0187,1.4920,-1.0840,2.7610,1.8974,-1.3128,-1.9452,
2.266111,-0.6792,0.1073,0.3767,1.4920,-1.0840,2.7610,1.8974,-1.3128,-1.9452,
2.269433,-0.7390,0.1437,0.6624,1.4920,-1.0840,2.7610,1.8974,-1.3128,-1.9452,
2.272112,-1.0993,0.2879,0.6111,1.4920,-1.0840,2.7610,1.8974,-1.3128,-1.9452,
2.274787,-1.0993,0.2879,0.6111,1.4920,-1.0840,2.7610,1.7443,0.4982,-1.9002,
2.277583,-1.0993,0.2879,0.6111,-1.8960,0.5700,2.4380,1.7443,0.4982,-1.9002,
2.284954,-1.0993,0.2879,0.6111,-0.3490,2.4410,0.5040,1.7443,0.4982,-1.9002,
2.302708,-1.0993,0.2879,0.6111,4.5280,1.7120,0.0370,1.7443,0.4982,-1.9002,
2.325339,-1.0993,0.2879,0.6111,4.5280,1.7120,0.0370,3.8844,0.2171,0.9098,
2.329338,-1.0993,0.2879,0.6111,5.7470,1.3150,-1.2650,3.8844,0.2171,0.9098,
2.343544,-0.9416,0.4836,0.4088,5.7470,1.3150,-1.2650,3.8844,0.2171,0.9098,
2.348108,-0.4360,0.4413,0.3592,5.7470,1.3150,-1.2650,3.8844,0.2171,0.9098,
2.351214,-0.3057,0.4420,0.2081,5.7470,1.3150,-1.2650,3.8844,0.2171,0.9098,
2.353965,-0.3297,0.4550,0.0893,5.7470,1.3150,-1.2650,3.8844,0.2171,0.9098,
2.356899,-0.3297,0.4550,0.0893,5.5000,1.0520,-2.0290,3.8844,0.2171,0.9098,
2.365728,-0.3297,0.4550,0.0893,4.7000,1.1960,-0.6830,3.8844,0.2171,0.9098,
2.383484,-0.3297,0.4550,0.0893,4.7000,1.1960,-0.6830,3.6543,2.4122,1.3788,
2.387248,-0.3297,0.4550,0.0893,4.2280,0.9420,0.7930,3.6543,2.4122,1.3788,
2.406130,-0.3297,0.4550,0.0893,4.0110,0.9870,1.6410,3.6543,2.4122,1.3788,
2.424687,-0.4154,0.5039,0.1705,4.0110,0.9870,1.6410,3.6543,2.4122,1.3788,
2.427945,-0.4631,0.5123,0.2526,4.0110,0.9870,1.6410,3.6543,2.4122,1.3788,
2.431717,-0.4795,0.5535,0.2629,4.0110,0.9870,1.6410,3.6543,2.4122,1.3788,
2.435212,-0.4907,0.6102,0.2555,4.0110,0.9870,1.6410,3.6543,2.4122,1.3788,
2.438075,-0.4907,0.6102,0.2555,3.7430,1.1820,2.3070,3.6543,2.4122,1.3788,
2.446675,-0.4907,0.6102,0.2555,3.7430,1.1820,2.3070,3.8743,1.6952,1.6698,
2.450228,-0.4907,0.6102,0.2555,3.0620,1.3330,2.0540,3.8743,1.6952,1.6698,
2.465762,-0.4907,0.6102,0.2555,0.7480,1.8730,1.3010,3.8743,1.6952,1.6698,
2.486540,-0.4907,0.6102,0.2555,-1.6320,2.5230,1.3830,3.8743,1.6952,1.6698,
2.506649,-0.5408,0.6574,0.1546,-1.6320,2.5230,1.3830,3.8743,1.6952,1.6698,
2.509730,-0.7573,0.7337,0.0087,-1.6320,2.5230,1.3830,3.8743,1.6952,1.6698,
2.512161,-0.9758,0.8173,-0.0426,-1.6320,2.5230,1.3830,3.8743,1.6952,1.6698,
2.514618,-0.9935,0.9303,-0.0162,-1.6320,2.5230,1.3830,3.8743,1.6952,1.6698,
2.517014,-0.9935,0.9303,-0.0162,-2.0300,3.4200,1.9870,3.8743,1.6952,1.6698,
2.527370,-0.9935,0.9303,-0.0162,-2.0300,3.4200,1.9870,1.7754,-0.8958,2.0798,
2.528923,-0.9935,0.9303,-0.0162,-2.3730,3.2840,2.1580,1.7754,-0.8958,2.0798,
2.545916,-0.9935,0.9303,-0.0162,-2.7820,2.4600,2.1140,1.7754,-0.8958,2.0798,
2.568590,-0.9935,0.9303,-0.0162,-2.1740,2.3680,2.8200,1.7754,-0.8958,2.0798,
2.585970,-1.0073,0.9408,-0.0085,-2.1740,2.3680,2.8200,1.7754,-0.8958,2.0798,
2.588214,-1.0284,0.8827,-0.0097,-2.1740,2.3680,2.8200,1.7754,-0.8958,2.0798,
2.591093,-0.9424,0.9020,0.0732,-2.1740,2.3680,2.8200,1.7754,-0.8958,2.0798,
2.594180,-0.9424,0.9020,0.0732,-2.1740,2.3680,2.8200,0.4493,-0.3238,1.7568,
2.598355,-0.9424,0.9020,0.0732,-1.8280,2.9140,2.3210,0.4493,-0.3238,1.7568,
2.601645,-0.8842,0.9827,0.0246,-1.8280,2.9140,2.3210,0.4493,-0.3238,1.7568,
2.609341,-0.8842,0.9827,0.0246,-2.6240,3.2280,1.3310,0.4493,-0.3238,1.7568,
2.626699,-0.8842,0.9827,0.0246,-4.6290,3.3500,1.3730,0.4493,-0.3238,1.7568,
2.649209,-0.8842,0.9827,0.0246,-4.6290,3.3500,1.3730,-0.5896,1.0172,0.4478,
2.653415,-0.8842,0.9827,0.0246,-5.5770,3.6420,1.9400,-0.5896,1.0172,0.4478,
2.666963,-0.9450,1.0354,-0.0836,-5.5770,3.6420,1.9400,-0.5896,1.0172,0.4478,
2.669222,-1.1298,1.0618,-0.0897,-5.5770,3.6420,1.9400,-0.5896,1.0172,0.4478,
2.670977,-1.2102,1.1039,-0.0396,-5.5770,3.6420,1.9400,-0.5896,1.0172,0.4478,
2.673568,-1.1633,1.1088,-0.0185,-5.5770,3.6420,1.9400,-0.5896,1.0172,0.4478,
2.676153,-1.1633,1.1088,-0.0185,-5.1880,3.6250,2.1640,-0.5896,1.0172,0.4478,
2.689840,-1.1633,1.1088,-0.0185,-4.9080,4.1150,2.1040,-0.5896,1.0172,0.4478,
2.707738,-1.1633,1.1088,-0.0185,-4.9080,4.1150,2.1040,0.6834,-1.8849,-0.5592,
2.709706,-1.1633,1.1088,-0.0185,-5.2010,4.7530,2.3240,0.6834,-1.8849,-0.5592,
2.729996,-1.1633,1.1088,-0.0185,-4.6920,3.8550,1.8760,0.6834,-1.8849,-0.5592,
2.749138,-1.1384,1.1557,-0.0197,-4.6920,3.8550,1.8760,0.6834,-1.8849,-0.5592,
2.752641,-1.1834,1.2114,0.0146,-4.6920,3.8550,1.8760,0.6834,-1.8849,-0.5592,
2.755390,-1.1479,1.1100,-0.0169,-4.6920,3.8550,1.8760,0.6834,-1.8849,-0.5592,
2.757970,-0.9155,0.9145,-0.1748,-4.6920,3.8550,1.8760,0.6834,-1.8849,-0.5592,
2.760814,-0.9155,0.9145,-0.1748,-2.3010,1.9970,0.1610,0.6834,-1.8849,-0.5592,
2.770315,-0.9155,0.9145,-0.1748,0.4970,1.2030,-0.1880,0.6834,-1.8849,-0.5592,
2.788447,-0.9155,0.9145,-0.1748,0.4970,1.2030,-0.1880,0.0484,-1.1809,-1.3292,
2.791893,-0.9155,0.9145,-0.1748,-0.0070,0.2940,-1.9580,0.0484,-1.1809,-1.3292,
2.811682,-0.9155,0.9145,-0.1748,-2.2440,-1.3140,-3.6750,0.0484,-1.1809,-1.3292,
2.829169,-0.6428,0.8250,-0.1911,-2.2440,-1.3140,-3.6750,0.0484,-1.1809,-1.3292,
2.834800,-0.7155,0.7148,-0.3549,-2.2440,-1.3140,-3.6750,0.0484,-1.1809,-1.3292,
2.836629,-0.9663,0.5312,-0.5020,-2.2440,-1.3140,-3.6750,0.0484,-1.1809,-1.3292,
2.838163,-0.8087,0.6491,-0.0948,-2.2440,-1.3140,-3.6750,0.0484,-1.1809,-1.3292,
2.840911,-0.8087,0.6491,-0.0948,-0.5550,-0.0750,-0.1500,0.0484,-1.1809,-1.3292,
2.851459,-0.8087,0.6491,-0.0948,-0.5550,-0.0750,-0.1500,3.9014,-5.8568,-0.4862,
2.853205,-0.8087,0.6491,-0.0948,2.0390,1.1070,-1.3500,3.9014,-5.8568,-0.4862,
2.869601,-0.8087,0.6491,-0.0948,1.8950,1.2830,-4.3610,3.9014,-5.8568,-0.4862,
2.892366,-0.8087,0.6491,-0.0948,1.9680,1.4520,-2.7610,3.9014,-5.8568,-0.4862,
2.910047,-0.5520,0.7639,-0.1760,1.9680,1.4520,-2.7610,3.9014,-5.8568,-0.4862,
2.913450,-0.5831,0.7632,-0.4495,1.9680,1.4520,-2.7610,3.9014,-5.8568,-0.4862,
2.916532,-0.5831,0.7632,-0.4495,1.9680,1.4520,-2.7610,0.2743,-0.9578,-1.6012,
2.919481,-0.5831,0.7632,-0.4495,2.8760,0.7610,0.4070,0.2743,-0.9578,-1.6012,
2.922033,-0.5955,0.7556,-0.2605,2.8760,0.7610,0.4070,0.2743,-0.9578,-1.6012,
2.924685,-0.5217,0.6584,0.0825,2.8760,0.7610,0.4070,0.2743,-0.9578,-1.6012,
2.932367,-0.5217,0.6584,0.0825,2.8440,-0.3070,0.2090,0.2743,-0.9578,-1.6012,
2.950215,-0.5217,0.6584,0.0825,3.9730,-1.9260,1.9440,0.2743,-0.9578,-1.6012,
2.973069,-0.5217,0.6584,0.0825,3.9730,-1.9260,1.9440,0.2474,0.0682,-0.4492,
2.976771,-0.5217,0.6584,0.0825,4.3490,-3.0940,-0.8150,0.2474,0.0682,-0.4492,
2.991315,-0.5413,0.5240,0.0724,4.3490,-3.0940,-0.8150,0.2474,0.0682,-0.4492,
2.993276,-0.4380,0.3402,0.2565,4.3490,-3.0940,-0.8150,0.2474,0.0682,-0.4492,
2.995178,-0.4097,0.2061,-0.0311,4.3490,-3.0940,-0.8150,0.2474,0.0682,-0.4492,
2.996956,-0.1293,0.2991,-0.4585,4.3490,-3.0940,-0.8150,0.2474,0.0682,-0.4492,
2.999739,-0.1293,0.2991,-0.4585,7.1310,-2.1120,-4.9640,0.2474,0.0682,-0.4492,
3.013307,-0.1293,0.2991,-0.4585,7.2600,0.9540,-2.4290,0.2474,0.0682,-0.4492,
3.031549,-0.1293,0.2991,-0.4585,3.8170,-0.1600,-1.1830,0.2474,0.0682,-0.4492,
3.053760,-0.1293,0.2991,-0.4585,3.8170,-0.1600,-1.1830,-1.2987,2.2022,0.2859,
3.057286,-0.1293,0.2991,-0.4585,-1.4850,-3.3520,-1.6780,-1.2987,2.2022,0.2859,
3.072275,-0.1170,0.6116,-0.2087,-1.4850,-3.3520,-1.6780,-1.2987,2.2022,0.2859,
3.074327,-0.4709,0.4973,-0.1044,-1.4850,-3.3520,-1.6780,-1.2987,2.2022,0.2859,
3.076003,-1.0096,0.1742,-0.1799,-1.4850,-3.3520,-1.6780,-1.2987,2.2022,0.2859,
3.077683,-0.9220,0.2458,-0.1699,-1.4850,-3.3520,-1.6780,-1.2987,2.2022,0.2859,
3.080053,-0.9220,0.2458,-0.1699,-0.7300,-2.8250,-1.5910,-1.2987,2.2022,0.2859,
3.094319,-0.9220,0.2458,-0.1699,1.6640,-1.1930,-0.4050,-1.2987,2.2022,0.2859,
3.112381,-0.9220,0.2458,-0.1699,1.6640,-1.1930,-0.4050,-0.0216,-0.5258,0.3548,
3.117511,-0.9220,0.2458,-0.1699,0.9140,-0.8580,-1.3500,-0.0216,-0.5258,0.3548,
3.134904,-0.9220,0.2458,-0.1699,-0.9350,-0.3820,-1.5230,-0.0216,-0.5258,0.3548,
3.152991,-0.6647,0.4310,-0.0364,-0.9350,-0.3820,-1.5230,-0.0216,-0.5258,0.3548,
3.156406,-0.7344,0.4760,-0.1232,-0.9350,-0.3820,-1.5230,-0.0216,-0.5258,0.3548,
3.158031,-0.9220,0.5259,-0.1322,-0.9350,-0.3820,-1.5230,-0.0216,-0.5258,0.3548,
3.159790,-1.0061,0.5927,0.0365,-0.9350,-0.3820,-1.5230,-0.0216,-0.5258,0.3548,
3.161516,-1.0061,0.5927,0.0365,-1.7380,0.2940,0.0690,-0.0216,-0.5258,0.3548,
3.175013,-1.0061,0.5927,0.0365,-1.7380,0.2940,0.0690,0.1544,-0.5389,-0.1942,
3.177034,-1.0061,0.5927,0.0365,-1.8000,0.3130,0.6660,0.1544,-0.5389,-0.1942,
3.193174,-1.0061,0.5927,0.0365,-1.1230,1.0250,-0.2080,0.1544,-0.5389,-0.1942,
3.215731,-1.0061,0.5927,0.0365,0.9420,3.0860,0.2600,0.1544,-0.5389,-0.1942,
3.233869,-1.0137,0.5916,0.1037,0.9420,3.0860,0.2600,0.1544,-0.5389,-0.1942,
3.239049,-0.9462,0.6623,0.0182,0.9420,3.0860,0.2600,0.1544,-0.5389,-0.1942,
3.242020,-0.9462,0.6623,0.0182,0.9420,3.0860,0.2600,-0.0616,0.5251,0.3858,
3.245017,-0.9462,0.6623,0.0182,-0.7570,2.8510,-0.0660,-0.0616,0.5251,0.3858,
3.247981,-0.7351,0.8742,0.0632,-0.7570,2.8510,-0.0660,-0.0616,0.5251,0.3858,
3.250916,-0.9084,0.8497,0.0126,-0.7570,2.8510,-0.0660,-0.0616,0.5251,0.3858,
3.256115,-0.9084,0.8497,0.0126,-1.5940,2.1120,1.1620,-0.0616,0.5251,0.3858,
3.274510,-0.9084,0.8497,0.0126,1.6300,2.8980,-0.1340,-0.0616,0.5251,0.3858,
3.296909,-0.9084,0.8497,0.0126,3.3390,3.0040,1.8210,-0.0616,0.5251,0.3858,
3.314940,-0.9890,0.7815,0.1311,3.3390,3.0040,1.8210,-0.0616,0.5251,0.3858,
3.317101,-0.6501,0.8756,0.0018,3.3390,3.0040,1.8210,-0.0616,0.5251,0.3858,
3.318802,-0.4648,0.9015,0.2098,3.3390,3.0040,1.8210,-0.0616,0.5251,0.3858,
3.320585,-0.5729,0.7894,0.2048,3.3390,3.0040,1.8210,-0.0616,0.5251,0.3858,
3.322144,-0.5729,0.7894,0.2048,3.3390,3.0040,1.8210,-0.1587,-0.2969,0.7178,
3.324254,-0.5729,0.7894,0.2048,2.1880,1.7850,1.7160,-0.1587,-0.2969,0.7178,
3.337075,-0.5729,0.7894,0.2048,2.7410,1.4160,0.4180,-0.1587,-0.2969,0.7178,
3.356126,-0.5729,0.7894,0.2048,3.4150,1.8220,1.2090,-0.1587,-0.2969,0.7178,
3.377786,-0.5729,0.7894,0.2048,3.4150,1.8220,1.2090,-0.6156,-0.0018,0.2388,
3.381516,-0.5729,0.7894,0.2048,2.3590,1.0650,2.1010,-0.6156,-0.0018,0.2388,
3.396590,-0.5059,0.7642,0.0845,2.3590,1.0650,2.1010,-0.6156,-0.0018,0.2388,
3.400553,-0.4308,0.8143,0.1765,2.3590,1.0650,2.1010,-0.6156,-0.0018,0.2388,
3.403761,-0.5342,0.7407,0.2778,2.3590,1.0650,2.1010,-0.6156,-0.0018,0.2388,
3.406820,-0.6496,0.6591,0.2905,2.3590,1.0650,2.1010,-0.6156,-0.0018,0.2388,
3.409944,-0.6496,0.6591,0.2905,1.1830,0.2260,2.1840,-0.6156,-0.0018,0.2388,
3.417869,-0.6496,0.6591,0.2905,1.2160,0.2990,1.6820,-0.6156,-0.0018,0.2388,
3.436841,-0.6496,0.6591,0.2905,1.2160,0.2990,1.6820,-0.3836,0.3952,0.5038,
3.440612,-0.6496,0.6591,0.2905,1.4550,0.2790,0.5770,-0.3836,0.3952,0.5038,
3.459221,-0.6496,0.6591,0.2905,1.3780,-0.0230,-0.1990,-0.3836,0.3952,0.5038,
3.477527,-0.6388,0.6766,0.2408,1.3780,-0.0230,-0.1990,-0.3836,0.3952,0.5038,
3.479717,-0.6070,0.6833,0.1272,1.3780,-0.0230,-0.1990,-0.3836,0.3952,0.5038,
3.481545,-0.6100,0.6581,0.0483,1.3780,-0.0230,-0.1990,-0.3836,0.3952,0.5038,
3.483278,-0.6420,0.5995,0.0358,1.3780,-0.0230,-0.1990,-0.3836,0.3952,0.5038,
3.484908,-0.6420,0.5995,0.0358,1.0360,-0.6230,-0.3600,-0.3836,0.3952,0.5038,
3.499978,-0.6420,0.5995,0.0358,1.0360,-0.6230,-0.3600,-0.5266,-0.0549,0.3278,
3.504190,-0.6420,0.5995,0.0358,0.3580,-1.1050,0.5370,-0.5266,-0.0549,0.3278,
3.517305,-0.6420,0.5995,0.0358,-0.1520,-1.5850,0.3970,-0.5266,-0.0549,0.3278,
3.540422,-0.6420,0.5995,0.0358,0.4190,-1.0390,-1.3570,-0.5266,-0.0549,0.3278,
3.559778,-0.7085,0.5526,0.1336,0.4190,-1.0390,-1.3570,-0.5266,-0.0549,0.3278,
3.563496,-0.7549,0.5083,0.1269,0.4190,-1.0390,-1.3570,-0.5266,-0.0549,0.3278,
3.567980,-0.7549,0.5083,0.1269,0.5620,-0.8940,-0.0560,-0.5266,-0.0549,0.3278,
3.570798,-0.6899,0.5704,-0.0480,0.5620,-0.8940,-0.0560,-0.5266,-0.0549,0.3278,
3.573739,-0.6733,0.5878,0.0903,0.5620,-0.8940,-0.0560,-0.5266,-0.0549,0.3278,
3.579641,-0.6733,0.5878,0.0903,0.5620,-0.8940,-0.0560,-0.1526,0.0832,-0.2632,
3.584909,-0.6733,0.5878,0.0903,-0.7550,-1.6220,0.1790,-0.1526,0.0832,-0.2632,
3.597741,-0.6733,0.5878,0.0903,-0.7870,-1.8750,-0.0310,-0.1526,0.0832,-0.2632,
3.620648,-0.6733,0.5878,0.0903,-0.0880,-1.1490,0.1690,-0.1526,0.0832,-0.2632,
3.637774,-0.8104,0.5100,0.1140,-0.0880,-1.1490,0.1690,-0.1526,0.0832,-0.2632,
3.641133,-0.8165,0.4797,0.0996,-0.0880,-1.1490,0.1690,-0.1526,0.0832,-0.2632,
3.643858,-0.7510,0.5457,0.1329,-0.0880,-1.1490,0.1690,-0.1526,0.0832,-0.2632,
3.646353,-0.8092,0.5983,0.1131,-0.0880,-1.1490,0.1690,-0.1526,0.0832,-0.2632,
3.649104,-0.8092,0.5983,0.1131,-0.0880,-1.1490,0.1690,0.0444,-0.3598,-0.4902,
3.651572,-0.8092,0.5983,0.1131,-0.6220,-0.5760,-0.0920,0.0444,-0.3598,-0.4902,
3.660779,-0.8092,0.5983,0.1131,-1.3850,0.0260,-0.4670,0.0444,-0.3598,-0.4902,
3.679265,-0.8092,0.5983,0.1131,-1.0200,0.5340,-1.0780,0.0444,-0.3598,-0.4902,
3.702114,-0.8092,0.5983,0.1131,-1.0200,0.5340,-1.0780,-0.3376,0.1801,-1.4591,
3.706993,-0.8092,0.5983,0.1131,-1.0670,0.4830,-0.7960,-0.3376,0.1801,-1.4591,
3.720298,-0.8942,0.6505,0.0779,-1.0670,0.4830,-0.7960,-0.3376,0.1801,-1.4591,
3.722980,-0.8668,0.6911,0.0190,-1.0670,0.4830,-0.7960,-0.3376,0.1801,-1.4591,
3.725137,-0.8859,0.6679,0.0493,-1.0670,0.4830,-0.7960,-0.3376,0.1801,-1.4591,
3.727078,-0.9644,0.6095,0.2037,-1.0670,0.4830,-0.7960,-0.3376,0.1801,-1.4591,
3.728770,-0.9644,0.6095,0.2037,-1.6550,0.1400,0.7010,-0.3376,0.1801,-1.4591,
3.741351,-0.9644,0.6095,0.2037,-0.5460,2.2440,0.8350,-0.3376,0.1801,-1.4591,
3.760614,-0.9644,0.6095,0.2037,-0.5460,2.2440,0.8350,0.2734,1.0161,-1.5221,
3.762724,-0.9644,0.6095,0.2037,-1.8430,3.9130,1.6880,0.2734,1.0161,-1.5221,
3.781723,-0.9644,0.6095,0.2037,-2.8540,4.2660,2.6820,0.2734,1.0161,-1.5221,
3.801830,-0.8661,0.8020,0.2161,-2.8540,4.2660,2.6820,0.2734,1.0161,-1.5221,
3.806662,-1.0181,0.9465,0.2919,-2.8540,4.2660,2.6820,0.2734,1.0161,-1.5221,
3.810452,-1.1396,0.9597,0.3733,-2.8540,4.2660,2.6820,0.2734,1.0161,-1.5221,
3.813948,-0.7468,1.0103,0.2543,-2.8540,4.2660,2.6820,0.2734,1.0161,-1.5221,
3.817293,-0.7468,1.0103,0.2543,1.0870,4.8750,1.8090,0.2734,1.0161,-1.5221,
3.821603,-0.7468,1.0103,0.2543,5.8830,6.1960,2.7230,0.2734,1.0161,-1.5221,
3.842042,-0.7468,1.0103,0.2543,5.8830,6.1960,2.7230,0.7094,1.1902,0.0808,
3.846125,-0.7468,1.0103,0.2543,3.7590,3.7680,-0.7720,0.7094,1.1902,0.0808,
3.862798,-0.7468,1.0103,0.2543,4.1770,4.1060,0.4520,0.7094,1.1902,0.0808,
3.882498,-0.2568,1.1501,0.3115,4.1770,4.1060,0.4520,0.7094,1.1902,0.0808,
3.886151,-0.4714,0.9061,-0.0746,4.1770,4.1060,0.4520,0.7094,1.1902,0.0808,
3.889237,-0.4313,0.9360,0.0388,4.1770,4.1060,0.4520,0.7094,1.1902,0.0808,
3.892298,-0.4753,0.8925,0.1374,4.1770,4.1060,0.4520,0.7094,1.1902,0.0808,
3.895386,-0.4753,0.8925,0.1374,3.8290,3.8090,1.4530,0.7094,1.1902,0.0808,
3.902984,-0.4753,0.8925,0.1374,3.8290,3.8090,1.4530,0.4474,-0.5389,-1.1142,
3.904731,-0.4753,0.8925,0.1374,1.6000,1.5880,1.9750,0.4474,-0.5389,-1.1142,
3.923856,-0.4753,0.8925,0.1374,-0.0280,-0.0510,1.7820,0.4474,-0.5389,-1.1142,
3.943854,-0.4753,0.8925,0.1374,0.5040,-0.5970,1.1070,0.4474,-0.5389,-1.1142,
3.963141,-0.7127,0.6488,0.1935,0.5040,-0.5970,1.1070,0.4474,-0.5389,-1.1142,
3.968965,-0.8884,0.4621,0.1783,0.5040,-0.5970,1.1070,0.4474,-0.5389,-1.1142,
3.972512,-0.8416,0.3930,0.1120,0.5040,-0.5970,1.1070,0.4474,-0.5389,-1.1142,
3.976473,-0.5865,0.3409,0.1099,0.5040,-0.5970,1.1070,0.4474,-0.5389,-1.1142,
3.980637,-0.5865,0.3409,0.1099,0.5040,-0.5970,1.1070,0.6223,-0.5618,-0.1922,
3.985291,-0.5865,0.3409,0.1099,3.0320,-1.0300,1.0650,0.6223,-0.5618,-0.1922,
3.987241,-0.5865,0.3409,0.1099,5.6700,-2.1160,0.8790,0.6223,-0.5618,-0.1922,
4.003495,-0.5865,0.3409,0.1099,5.6270,-2.4050,-0.9170,0.6223,-0.5618,-0.1922,
4.024619,-0.5865,0.3409,0.1099,5.6270,-2.4050,-0.9170,-1.3547,2.4622,-1.5062,
4.026951,-0.5865,0.3409,0.1099,6.5410,2.2480,-4.6660,-1.3547,2.4622,-1.5062,
4.044210,-0.3189,0.2287,0.0957,6.5410,2.2480,-4.6660,-1.3547,2.4622,-1.5062,
4.046362,-0.3241,0.1967,-0.0946,6.5410,2.2480,-4.6660,-1.3547,2.4622,-1.5062,
4.048217,-0.2348,0.6652,-0.4971,6.5410,2.2480,-4.6660,-1.3547,2.4622,-1.5062,
4.049794,-0.5161,0.5745,-0.8938,6.5410,2.2480,-4.6660,-1.3547,2.4622,-1.5062,
4.051532,-0.5161,0.5745,-0.8938,3.9240,1.7230,-8.1720,-1.3547,2.4622,-1.5062,
4.065077,-0.5161,0.5745,-0.8938,-16.1970,-12.4190,9.4760,-1.3547,2.4622,-1.5062,
4.083941,-0.5161,0.5745,-0.8938,2.7000,-2.0090,5.5220,-1.3547,2.4622,-1.5062,
4.105486,-0.5161,0.5745,-0.8938,2.7000,-2.0090,5.5220,0.5134,-0.8268,1.7098,
4.109411,-0.5161,0.5745,-0.8938,9.7450,2.0530,-4.8620,0.5134,-0.8268,1.7098,
4.126768,-2.5959,-0.9494,0.8540,9.7450,2.0530,-4.8620,0.5134,-0.8268,1.7098,
4.130361,-0.6647,0.1256,0.4694,9.7450,2.0530,-4.8620,0.5134,-0.8268,1.7098,
4.133446,0.0662,0.5733,-0.5758,9.7450,2.0530,-4.8620,0.5134,-0.8268,1.7098,
4.136505,-0.1481,0.4455,-0.5692,9.7450,2.0530,-4.8620,0.5134,-0.8268,1.7098,
4.139158,-0.1481,0.4455,-0.5692,7.5740,0.6020,-4.7160,0.5134,-0.8268,1.7098,
4.145787,-0.1481,0.4455,-0.5692,6.0170,-1.5900,-2.6750,0.5134,-0.8268,1.7098,
4.165978,-0.1481,0.4455,-0.5692,6.0170,-1.5900,-2.6750,0.8643,1.4242,-1.8422,
4.170369,-0.1481,0.4455,-0.5692,4.4520,-1.5580,-2.2480,0.8643,1.4242,-1.8422,
4.186470,-0.1481,0.4455,-0.5692,-0.9710,-2.5420,0.4310,0.8643,1.4242,-1.8422,
4.206895,-0.3067,0.2175,-0.3815,-0.9710,-2.5420,0.4310,0.8643,1.4242,-1.8422,
4.211026,-0.3067,0.2175,-0.3815,-6.0630,-2.5250,1.3490,0.8643,1.4242,-1.8422,
4.213710,-0.4727,0.1933,-0.3642,-6.0630,-2.5250,1.3490,0.8643,1.4242,-1.8422,
4.217459,-1.0357,0.0473,-0.1342,-6.0630,-2.5250,1.3490,0.8643,1.4242,-1.8422,
4.219433,-1.5597,-0.0009,-0.0863,-6.0630,-2.5250,1.3490,0.8643,1.4242,-1.8422,
4.226850,-1.5597,-0.0009,-0.0863,-6.0630,-2.5250,1.3490,1.4244,0.0701,-1.6761,
4.228381,-1.5597,-0.0009,-0.0863,-6.0610,-0.0750,-0.1290,1.4244,0.0701,-1.6761,
4.246640,-1.5597,-0.0009,-0.0863,-3.6530,1.8300,1.3580,1.4244,0.0701,-1.6761,
4.267375,-1.5597,-0.0009,-0.0863,-1.5350,4.6660,0.3350,1.4244,0.0701,-1.6761,
4.287137,-1.5636,0.2106,-0.2603,-1.5350,4.6660,0.3350,1.4244,0.0701,-1.6761,
4.291133,-1.3267,0.3663,-0.1086,-1.5350,4.6660,0.3350,1.4244,0.0701,-1.6761,
4.294173,-1.1183,0.6165,-0.2090,-1.5350,4.6660,0.3350,1.4244,0.0701,-1.6761,
4.298221,-1.0086,1.2483,-0.3742,-1.5350,4.6660,0.3350,1.4244,0.0701,-1.6761,
4.301337,-1.0086,1.2483,-0.3742,-1.5350,4.6660,0.3350,-0.2507,0.0362,-2.4182,
4.303071,-1.0086,1.2483,-0.3742,-0.4150,11.3070,-1.2480,-0.2507,0.0362,-2.4182,
4.307611,-1.0086,1.2483,-0.3742,-2.9990,9.2170,1.8320,-0.2507,0.0362,-2.4182,
4.327149,-1.0086,1.2483,-0.3742,-1.4890,2.3100,1.7830,-0.2507,0.0362,-2.4182,
4.349123,-1.0086,1.2483,-0.3742,2.4240,0.1840,1.7520,-0.2507,0.0362,-2.4182,
4.368190,-1.2747,0.9930,-0.0606,2.4240,0.1840,1.7520,-0.2507,0.0362,-2.4182,
4.371768,-1.1210,0.2726,-0.0685,2.4240,0.1840,1.7520,-0.2507,0.0362,-2.4182,
4.374594,-0.7219,0.0567,-0.0699,2.4240,0.1840,1.7520,-0.2507,0.0362,-2.4182,
4.377493,-1.0569,-0.0422,0.0351,2.4240,0.1840,1.7520,-0.2507,0.0362,-2.4182,
4.380242,-1.0569,-0.0422,0.0351,2.4240,0.1840,1.7520,0.3583,-0.1349,-0.1031,
4.383933,-1.0569,-0.0422,0.0351,-0.8490,-0.7480,2.7430,0.3583,-0.1349,-0.1031,
4.389102,-1.0569,-0.0422,0.0351,-7.7900,3.6020,3.1340,0.3583,-0.1349,-0.1031,
4.408448,-1.0569,-0.0422,0.0351,-4.6350,3.3020,2.3040,0.3583,-0.1349,-0.1031,
4.429230,-1.0569,-0.0422,0.0351,-4.6350,3.3020,2.3040,-0.6867,-1.0409,0.7048,
4.432558,-1.0569,-0.0422,0.0351,0.0970,2.0070,2.3760,-0.6867,-1.0409,0.7048,
4.450461,-1.7635,0.4073,0.0670,0.0970,2.0070,2.3760,-0.6867,-1.0409,0.7048,
4.454724,-1.4431,0.3935,-0.0062,0.0970,2.0070,2.3760,-0.6867,-1.0409,0.7048,
4.457059,-0.9641,0.2786,0.0209,0.0970,2.0070,2.3760,-0.6867,-1.0409,0.7048,
4.458706,-0.5704,0.2563,-0.1613,0.0970,2.0070,2.3760,-0.6867,-1.0409,0.7048,
4.460375,-0.5704,0.2563,-0.1613,3.9860,1.6660,0.3840,-0.6867,-1.0409,0.7048,
4.469927,-0.5704,0.2563,-0.1613,3.9780,-0.7010,-1.2570,-0.6867,-1.0409,0.7048,
4.490142,-0.5704,0.2563,-0.1613,3.9780,-0.7010,-1.2570,0.7133,-1.6349,0.5759,
4.494507,-0.5704,0.2563,-0.1613,3.4570,-3.8420,2.5790,0.7133,-1.6349,0.5759,
4.510083,-0.5704,0.2563,-0.1613,10.5170,-1.1350,1.2830,0.7133,-1.6349,0.5759,
4.529985,-0.5765,0.0086,-0.3082,10.5170,-1.1350,1.2830,0.7133,-1.6349,0.5759,
4.535668,-0.6356,-0.3279,0.1184,10.5170,-1.1350,1.2830,0.7133,-1.6349,0.5759,
4.540353,0.0838,-0.0424,0.0048,10.5170,-1.1350,1.2830,0.7133,-1.6349,0.5759,
4.545028,-0.3621,-0.0544,-0.0706,10.5170,-1.1350,1.2830,0.7133,-1.6349,0.5759,
4.549947,-0.3621,-0.0544,-0.0706,6.1570,-1.2400,0.5800,0.7133,-1.6349,0.5759,
4.553829,-0.3621,-0.0544,-0.0706,6.1570,-1.2400,0.5800,0.4194,0.0272,-1.1352,
4.555378,-0.3621,-0.0544,-0.0706,5.7640,-2.4360,1.1540,0.4194,0.0272,-1.1352,
4.570489,-0.3621,-0.0544,-0.0706,0.6530,-5.3930,1.8210,0.4194,0.0272,-1.1352,
4.590946,-0.3621,-0.0544,-0.0706,0.8370,-1.8640,0.1280,0.4194,0.0272,-1.1352,
4.610856,-0.4037,-0.1893,-0.0060,0.8370,-1.8640,0.1280,0.4194,0.0272,-1.1352,
4.612973,-0.9269,-0.5132,0.0632,0.8370,-1.8640,0.1280,0.4194,0.0272,-1.1352,
4.615438,-0.9087,-0.1605,-0.1081,0.8370,-1.8640,0.1280,0.4194,0.0272,-1.1352,
4.617046,-1.1550,0.3629,-0.0589,0.8370,-1.8640,0.1280,0.4194,0.0272,-1.1352,
4.618554,-1.1550,0.3629,-0.0589,-1.5890,3.3070,0.6300,0.4194,0.0272,-1.1352,
4.632099,-1.1550,0.3629,-0.0589,-1.5890,3.3070,0.6300,0.4334,-0.4748,0.6709,
4.635825,-1.1550,0.3629,-0.0589,-2.9320,3.4530,1.7980,0.4334,-0.4748,0.6709,
4.651352,-1.1550,0.3629,-0.0589,-5.1580,0.7550,-0.0290,0.4334,-0.4748,0.6709,
4.672099,-1.1550,0.3629,-0.0589,-2.9340,1.6710,-1.8040,0.4334,-0.4748,0.6709,
4.693739,-1.2926,0.3854,0.0670,-2.9340,1.6710,-1.8040,0.4334,-0.4748,0.6709,
4.698508,-1.5210,0.1209,-0.1086,-2.9340,1.6710,-1.8040,0.4334,-0.4748,0.6709,
4.701596,-1.2933,0.2458,-0.2835,-2.9340,1.6710,-1.8040,0.4334,-0.4748,0.6709,
4.704321,-1.3385,0.0849,-0.1186,-2.9340,1.6710,-1.8040,0.4334,-0.4748,0.6709,
4.707311,-1.3385,0.0849,-0.1186,-2.9340,1.6710,-1.8040,2.0593,0.0371,3.1558,
4.710075,-1.3385,0.0849,-0.1186,-3.4340,-0.3600,-0.1470,2.0593,0.0371,3.1558,
4.713120,-1.3385,0.0849,-0.1186,2.8480,-2.0740,-1.6200,2.0593,0.0371,3.1558,
4.732578,-1.3385,0.0849,-0.1186,2.9800,-0.5730,-1.9330,2.0593,0.0371,3.1558,
4.753564,-1.3385,0.0849,-0.1186,2.9800,-0.5730,-1.9330,0.3534,-0.4958,1.7128,
4.755790,-1.3385,0.0849,-0.1186,-1.0500,-2.6460,0.9380,0.3534,-0.4958,1.7128,
4.773294,-0.6845,-0.0188,-0.2857,-1.0500,-2.6460,0.9380,0.3534,-0.4958,1.7128,
4.776924,-0.6530,0.1957,-0.3514,-1.0500,-2.6460,0.9380,0.3534,-0.4958,1.7128,
4.779506,-1.0504,0.0211,-0.0753,-1.0500,-2.6460,0.9380,0.3534,-0.4958,1.7128,
4.782944,-1.0504,0.0211,-0.0753,2.1720,-4.0600,1.2000,0.3534,-0.4958,1.7128,
4.785377,-0.7153,-0.0989,-0.0379,2.1720,-4.0600,1.2000,0.3534,-0.4958,1.7128,
4.793334,-0.7153,-0.0989,-0.0379,2.0740,-2.7780,0.7630,0.3534,-0.4958,1.7128,
4.812990,-0.7153,-0.0989,-0.0379,2.0740,-2.7780,0.7630,0.5713,1.0301,0.1138,
4.817172,-0.7153,-0.0989,-0.0379,0.4150,-1.3700,0.4000,0.5713,1.0301,0.1138,
4.834222,-0.7153,-0.0989,-0.0379,-2.2170,-0.1220,0.8200,0.5713,1.0301,0.1138,
4.854171,-0.7226,0.0426,-0.0816,-2.2170,-0.1220,0.8200,0.5713,1.0301,0.1138,
4.857789,-0.8871,0.1877,-0.1356,-2.2170,-0.1220,0.8200,0.5713,1.0301,0.1138,
4.860565,-1.1515,0.3155,-0.1146,-2.2170,-0.1220,0.8200,0.5713,1.0301,0.1138,
4.864256,-1.3204,0.4985,0.0845,-2.2170,-0.1220,0.8200,0.5713,1.0301,0.1138,
4.866865,-1.3204,0.4985,0.0845,-3.9150,1.6140,2.8440,0.5713,1.0301,0.1138,
4.874140,-1.3204,0.4985,0.0845,-1.4240,3.9730,0.8580,0.5713,1.0301,0.1138,
4.893916,-1.3204,0.4985,0.0845,-1.4240,3.9730,0.8580,1.6573,-1.8329,-0.0422,
4.895760,-1.3204,0.4985,0.0845,6.2750,10.9480,-5.7300,1.6573,-1.8329,-0.0422,
4.916254,-1.3204,0.4985,0.0845,-0.1270,8.4770,-5.7620,1.6573,-1.8329,-0.0422,
4.934594,-1.0660,0.7461,-0.1095,-0.1270,8.4770,-5.7620,1.6573,-1.8329,-0.0422,
4.936595,-0.2864,1.4527,-0.7589,-0.1270,8.4770,-5.7620,1.6573,-1.8329,-0.0422,
4.938142,-0.9534,1.1691,-0.7537,-0.1270,8.4770,-5.7620,1.6573,-1.8329,-0.0422,
4.940743,-1.4996,0.9187,-0.4928,-0.1270,8.4770,-5.7620,1.6573,-1.8329,-0.0422,
4.943726,-1.4996,0.9187,-0.4928,-5.4350,6.2280,-3.0810,1.6573,-1.8329,-0.0422,
4.955426,-1.4996,0.9187,-0.4928,-5.4350,6.2280,-3.0810,0.8884,0.2201,-0.4372,
4.957639,-1.4996,0.9187,-0.4928,-5.0750,6.6290,0.4030,0.8884,0.2201,-0.4372,
4.975407,-1.4996,0.9187,-0.4928,-2.7910,5.1190,-0.6480,0.8884,0.2201,-0.4372,
4.996166,-1.4996,0.9187,-0.4928,-0.3950,4.4240,-1.4410,0.8884,0.2201,-0.4372,
5.016076,-1.4639,0.9453,-0.1466,-0.3950,4.4240,-1.4410,0.8884,0.2201,-0.4372,
5.020403,-1.2314,0.7801,-0.2652,-0.3950,4.4240,-1.4410,0.8884,0.2201,-0.4372,
5.024333,-0.9890,0.6980,-0.3534,-0.3950,4.4240,-1.4410,0.8884,0.2201,-0.4372,
5.028259,-0.7078,0.5836,-0.2366,-0.3950,4.4240,-1.4410,0.8884,0.2201,-0.4372,
5.033073,-0.7078,0.5836,-0.2366,-0.3950,4.4240,-1.4410,-0.1456,-1.2408,-0.6352,
5.036746,-0.7078,0.5836,-0.2366,2.3980,3.3900,-0.3840,-0.1456,-1.2408,-0.6352,
5.039578,-0.7078,0.5836,-0.2366,4.4680,1.7090,-0.9830,-0.1456,-1.2408,-0.6352,
5.056449,-0.7078,0.5836,-0.2366,6.1200,0.7080,-0.1130,-0.1456,-1.2408,-0.6352,
5.076463,-0.7078,0.5836,-0.2366,6.1200,0.7080,-0.1130,-0.2556,-2.9358,-0.4162,
5.078092,-0.7078,0.5836,-0.2366,9.1400,0.0320,3.8180,-0.2556,-2.9358,-0.4162,
5.096684,-0.5066,0.3986,-0.2635,9.1400,0.0320,3.8180,-0.2556,-2.9358,-0.4162,
5.099715,-0.3499,0.2828,-0.1119,9.1400,0.0320,3.8180,-0.2556,-2.9358,-0.4162,
5.101351,-0.0479,0.2045,0.3638,9.1400,0.0320,3.8180,-0.2556,-2.9358,-0.4162,
5.102981,-0.0479,0.2045,0.3638,9.6870,-1.1640,3.7260,-0.2556,-2.9358,-0.4162,
5.104576,0.0081,0.0737,0.4109,9.6870,-1.1640,3.7260,-0.2556,-2.9358,-0.4162,
5.117519,0.0081,0.0737,0.4109,6.3960,-1.7520,1.0680,-0.2556,-2.9358,-0.4162,
5.137725,0.0081,0.0737,0.4109,2.9380,-2.5770,0.9240,-0.2556,-2.9358,-0.4162,
5.159121,0.0081,0.0737,0.4109,2.9380,-2.5770,0.9240,1.7113,-3.1267,0.0488,
5.162774,0.0081,0.0737,0.4109,-0.8930,-3.9770,-0.8850,1.7113,-3.1267,0.0488,
5.177696,-0.3282,0.0069,0.1835,-0.8930,-3.9770,-0.8850,1.7113,-3.1267,0.0488,
5.179249,-0.6757,-0.0813,0.2247,-0.8930,-3.9770,-0.8850,1.7113,-3.1267,0.0488,
5.180314,-1.0575,-0.2194,0.0959,-0.8930,-3.9770,-0.8850,1.7113,-3.1267,0.0488,
5.182618,-1.1173,-0.1121,0.1040,-0.8930,-3.9770,-0.8850,1.7113,-3.1267,0.0488,
5.184147,-1.1173,-0.1121,0.1040,-1.6130,-3.0970,-1.2750,1.7113,-3.1267,0.0488,
5.199087,-1.1173,-0.1121,0.1040,-2.3660,-2.6870,-0.1210,1.7113,-3.1267,0.0488,
5.218821,-1.1173,-0.1121,0.1040,-2.3660,-2.6870,-0.1210,0.9893,-0.2948,1.4547,
5.222927,-1.1173,-0.1121,0.1040,-2.5220,-2.5300,-0.2690,0.9893,-0.2948,1.4547,
5.239048,-1.1173,-0.1121,0.1040,-1.1610,-1.5870,-2.0190,0.9893,-0.2948,1.4547,
5.259069,-1.1824,-0.0437,0.2420,-1.1610,-1.5870,-2.0190,0.9893,-0.2948,1.4547,
5.261183,-1.1887,0.0050,0.2303,-1.1610,-1.5870,-2.0190,0.9893,-0.2948,1.4547,
5.263012,-1.0415,0.1305,0.0509,-1.1610,-1.5870,-2.0190,0.9893,-0.2948,1.4547,
5.265612,-0.8370,0.4415,0.0612,-1.1610,-1.5870,-2.0190,0.9893,-0.2948,1.4547,
5.267274,-0.8370,0.4415,0.0612,0.7890,1.3400,-1.9500,0.9893,-0.2948,1.4547,
5.279029,-0.8370,0.4415,0.0612,0.7890,1.3400,-1.9500,0.4683,0.4632,-0.3301,
5.283722,-0.8370,0.4415,0.0612,-0.5240,0.8880,2.1100,0.4683,0.4632,-0.3301,
5.299187,-0.8370,0.4415,0.0612,-3.2480,-3.1450,-0.4580,0.4683,0.4632,-0.3301,
5.319767,-0.8370,0.4415,0.0612,-2.6900,-2.1550,-2.6130,0.4683,0.4632,-0.3301,
5.338917,-0.9714,0.3924,0.4811,-2.6900,-2.1550,-2.6130,0.4683,0.4632,-0.3301,
5.342584,-1.2542,-0.0219,0.2008,-2.6900,-2.1550,-2.6130,0.4683,0.4632,-0.3301,
5.345690,-1.2029,0.0842,-0.0471,-2.6900,-2.1550,-2.6130,0.4683,0.4632,-0.3301,
5.349452,-0.9753,0.5748,0.1028,-2.6900,-2.1550,-2.6130,0.4683,0.4632,-0.3301,
5.352124,-0.9753,0.5748,0.1028,-2.6900,-2.1550,-2.6130,-0.3167,2.0021,0.0758,
5.354726,-0.9753,0.5748,0.1028,-0.4100,2.6010,-0.8870,-0.3167,2.0021,0.0758,
5.360036,-0.9753,0.5748,0.1028,0.5060,5.2360,-1.1420,-0.3167,2.0021,0.0758,
5.379338,-0.9753,0.5748,0.1028,-2.7680,2.3520,-0.6570,-0.3167,2.0021,0.0758,
5.401273,-0.9753,0.5748,0.1028,-0.8140,3.2940,-0.3350,-0.3167,2.0021,0.0758,
5.421226,-0.8893,0.8414,0.0397,-0.8140,3.2940,-0.3350,-0.3167,2.0021,0.0758,
5.425333,-0.8893,0.8414,0.0397,-0.8140,3.2940,-0.3350,-1.4396,2.7962,0.2199,
5.428656,-0.8893,0.8414,0.0397,4.0290,5.3960,0.3630,-1.4396,2.7962,0.2199,
5.431922,-1.2354,0.5303,0.0419,4.0290,5.3960,0.3630,-1.4396,2.7962,0.2199,
5.434908,-1.0433,0.6160,0.0214,4.0290,5.3960,0.3630,-1.4396,2.7962,0.2199,
5.438152,-0.5499,0.8328,0.0458,4.0290,5.3960,0.3630,-1.4396,2.7962,0.2199,
5.442060,-0.5499,0.8328,0.0458,4.5300,4.5150,0.5990,-1.4396,2.7962,0.2199,
5.459678,-0.5499,0.8328,0.0458,3.7920,3.2410,0.3890,-1.4396,2.7962,0.2199,
5.483160,-0.5499,0.8328,0.0458,3.7920,3.2410,0.3890,-1.7727,2.1182,0.7589,
5.487591,-0.5499,0.8328,0.0458,2.4790,2.3070,1.7480,-1.7727,2.1182,0.7589,
5.500845,-0.4951,0.7524,0.0358,2.4790,2.3070,1.7480,-1.7727,2.1182,0.7589,
5.504374,-0.5653,0.6370,-0.0155,2.4790,2.3070,1.7480,-1.7727,2.1182,0.7589,
5.506710,-0.6916,0.5576,0.0954,2.4790,2.3070,1.7480,-1.7727,2.1182,0.7589,
5.509034,-0.8576,0.5506,0.2917,2.4790,2.3070,1.7480,-1.7727,2.1182,0.7589,
5.511444,-0.8576,0.5506,0.2917,0.7460,2.0340,3.9260,-1.7727,2.1182,0.7589,
5.523452,-0.8576,0.5506,0.2917,-0.0510,1.4070,3.7050,-1.7727,2.1182,0.7589,
5.541206,-0.8576,0.5506,0.2917,-0.0510,1.4070,3.7050,-0.6736,-0.0488,1.0519,
5.543365,-0.8576,0.5506,0.2917,0.5690,0.6010,2.8240,-0.6736,-0.0488,1.0519,
5.563621,-0.8576,0.5506,0.2917,1.7660,0.5900,2.4120,-0.6736,-0.0488,1.0519,
5.582208,-0.9280,0.5119,0.2511,1.7660,0.5900,2.4120,-0.6736,-0.0488,1.0519,
5.587207,-0.8537,0.4538,0.1575,1.7660,0.5900,2.4120,-0.6736,-0.0488,1.0519,
5.590843,-0.7253,0.4723,0.1255,1.7660,0.5900,2.4120,-0.6736,-0.0488,1.0519,
5.594479,-0.7903,0.5107,0.0554,1.7660,0.5900,2.4120,-0.6736,-0.0488,1.0519,
5.599243,-0.7903,0.5107,0.0554,1.0730,0.8060,1.5250,-0.6736,-0.0488,1.0519,
5.606083,-0.7903,0.5107,0.0554,1.0730,0.8060,1.5250,-0.5917,-1.5058,1.4938,
5.610243,-0.7903,0.5107,0.0554,0.5200,1.7010,-0.2350,-0.5917,-1.5058,1.4938,
5.622099,-0.7903,0.5107,0.0554,-0.4310,1.6340,-2.9610,-0.5917,-1.5058,1.4938,
5.644393,-0.7903,0.5107,0.0554,-0.8780,-0.8730,-4.8360,-0.5917,-1.5058,1.4938,
5.662726,-0.8390,0.6234,-0.0995,-0.8780,-0.8730,-4.8360,-0.5917,-1.5058,1.4938,
5.665858,-0.9231,0.6440,-0.3460,-0.8780,-0.8730,-4.8360,-0.5917,-1.5058,1.4938,
5.667459,-0.9529,0.4189,-0.5068,-0.8780,-0.8730,-4.8360,-0.5917,-1.5058,1.4938,
5.669009,-0.6860,0.0949,-0.4280,-0.8780,-0.8730,-4.8360,-0.5917,-1.5058,1.4938,
5.670590,-0.6860,0.0949,-0.4280,1.5980,-4.2750,-4.1790,-0.5917,-1.5058,1.4938,
5.685350,-0.6860,0.0949,-0.4280,1.5980,-4.2750,-4.1790,-1.6767,1.8932,0.4968,
5.690041,-0.6860,0.0949,-0.4280,2.7440,-3.9020,-1.5690,-1.6767,1.8932,0.4968,
5.703378,-0.6860,0.0949,-0.4280,1.5070,-2.0510,3.6110,-1.6767,1.8932,0.4968,
5.725784,-0.6860,0.0949,-0.4280,1.4970,-2.1020,8.0240,-1.6767,1.8932,0.4968,
5.743965,-0.5618,0.1437,-0.1720,1.4970,-2.1020,8.0240,-1.6767,1.8932,0.4968,
5.747538,-0.5618,0.1437,-0.1720,1.4970,-2.1020,8.0240,0.0754,0.9452,-0.5602,
5.751425,-0.5618,0.1437,-0.1720,1.6070,-3.8720,3.4120,0.0754,0.9452,-0.5602,
5.753979,-0.6855,0.3357,0.3354,1.6070,-3.8720,3.4120,0.0754,0.9452,-0.5602,
5.756594,-0.6864,0.3304,0.7624,1.6070,-3.8720,3.4120,0.0754,0.9452,-0.5602,
5.759413,-0.6774,0.1425,0.2723,1.6070,-3.8720,3.4120,0.0754,0.9452,-0.5602,
5.765887,-0.6774,0.1425,0.2723,0.2680,-3.6480,4.3160,0.0754,0.9452,-0.5602,
5.784150,-0.6774,0.1425,0.2723,-2.1860,-1.9490,5.1310,0.0754,0.9452,-0.5602,
5.806657,-0.6774,0.1425,0.2723,-2.1860,-1.9490,5.1310,1.7134,-1.1048,-0.7052,
5.810933,-0.6774,0.1425,0.2723,0.1540,-1.6730,1.6650,1.7134,-1.1048,-0.7052,
5.826717,-0.8238,0.1481,0.3484,0.1540,-1.6730,1.6650,1.7134,-1.1048,-0.7052,
5.831881,-1.0880,0.2949,0.4168,0.1540,-1.6730,1.6650,1.7134,-1.1048,-0.7052,
5.835426,-0.8590,0.3035,0.0614,0.1540,-1.6730,1.6650,1.7134,-1.1048,-0.7052,
5.838227,-0.8197,0.2712,-0.1699,0.1540,-1.6730,1.6650,1.7134,-1.1048,-0.7052,
5.841008,-0.8197,0.2712,-0.1699,0.6310,-1.8360,-0.6090,1.7134,-1.1048,-0.7052,
5.847012,-0.8197,0.2712,-0.1699,-1.1810,-1.6730,-0.6200,1.7134,-1.1048,-0.7052,
5.865332,-0.8197,0.2712,-0.1699,-1.1810,-1.6730,-0.6200,1.1774,0.7092,-0.6802,
5.869390,-0.8197,0.2712,-0.1699,-1.9390,-1.0580,-1.0910,1.1774,0.7092,-0.6802,
5.886526,-0.8197,0.2712,-0.1699,-1.5250,0.6150,-2.0880,1.1774,0.7092,-0.6802,
5.904917,-1.0105,0.2724,-0.1789,-1.5250,0.6150,-2.0880,1.1774,0.7092,-0.6802,
5.908642,-1.0944,0.3187,-0.2426,-1.5250,0.6150,-2.0880,1.1774,0.7092,-0.6802,
5.911377,-1.0555,0.4746,-0.3683,-1.5250,0.6150,-2.0880,1.1774,0.7092,-0.6802,
5.913708,-1.0250,0.7938,-0.3977,-1.5250,0.6150,-2.0880,1.1774,0.7092,-0.6802,
5.916336,-1.0250,0.7938,-0.3977,-1.2350,3.8590,-2.0670,1.1774,0.7092,-0.6802,
5.927778,-1.0250,0.7938,-0.3977,-1.1460,7.6800,-2.9810,1.1774,0.7092,-0.6802,
5.946603,-1.0250,0.7938,-0.3977,-1.1460,7.6800,-2.9810,-0.1016,2.5792,-0.4322,
5.949794,-1.0250,0.7938,-0.3977,0.2740,9.0840,-1.7330,-0.1016,2.5792,-0.4322,
5.968441,-1.0250,0.7938,-0.3977,0.3820,9.2330,1.3760,-0.1016,2.5792,-0.4322,
5.986663,-1.0091,1.1771,-0.5328,0.3820,9.2330,1.3760,-0.1016,2.5792,-0.4322,
5.990737,-0.8549,1.3129,-0.4492,0.3820,9.2330,1.3760,-0.1016,2.5792,-0.4322,
5.994947,-0.8330,1.3218,-0.1731,0.3820,9.2330,1.3760,-0.1016,2.5792,-0.4322,
6.001214,-0.8023,1.2495,-0.0116,0.3820,9.2330,1.3760,-0.1016,2.5792,-0.4322,
6.005473,-0.8023,1.2495,-0.0116,0.6010,8.5350,3.1810,-0.1016,2.5792,-0.4322,
6.009363,-0.8023,1.2495,-0.0116,0.6010,8.5350,3.1810,0.5713,-0.9438,-0.0052,
6.011402,-0.8023,1.2495,-0.0116,0.7680,6.2670,2.8060,0.5713,-0.9438,-0.0052,
6.027331,-0.8023,1.2495,-0.0116,1.7680,2.9050,1.3920,0.5713,-0.9438,-0.0052,
6.049885,-0.8023,1.2495,-0.0116,1.8040,0.2010,1.4810,0.5713,-0.9438,-0.0052,
6.067635,-0.7869,1.0164,-0.0482,1.8040,0.2010,1.4810,0.5713,-0.9438,-0.0052,
6.071847,-0.7869,1.0164,-0.0482,1.8040,0.2010,1.4810,2.3954,-4.6718,-1.2941,
6.075013,-0.6975,0.6661,-0.1689,1.8040,0.2010,1.4810,2.3954,-4.6718,-1.2941,
6.077980,-0.7146,0.3737,-0.1151,1.8040,0.2010,1.4810,2.3954,-4.6718,-1.2941,
6.081373,-0.9096,0.2996,-0.1669,1.8040,0.2010,1.4810,2.3954,-4.6718,-1.2941,
6.084313,-0.9096,0.2996,-0.1669,0.1680,-0.2250,0.3240,2.3954,-4.6718,-1.2941,
6.089788,-0.9096,0.2996,-0.1669,2.4010,-0.4930,-1.1810,2.3954,-4.6718,-1.2941,
6.108752,-0.9096,0.2996,-0.1669,2.0130,-2.8080,-1.1170,2.3954,-4.6718,-1.2941,
6.130026,-0.9096,0.2996,-0.1669,2.0130,-2.8080,-1.1170,-0.1646,-0.8748,-0.8012,
6.134481,-0.9096,0.2996,-0.1669,4.0820,-5.7210,-1.2750,-0.1646,-0.8748,-0.8012,
6.149072,-0.7060,0.2378,-0.2495,4.0820,-5.7210,-1.2750,-0.1646,-0.8748,-0.8012,
6.153637,-0.7610,-0.0324,-0.1777,4.0820,-5.7210,-1.2750,-0.1646,-0.8748,-0.8012,
6.157283,-0.5567,-0.3497,-0.1508,4.0820,-5.7210,-1.2750,-0.1646,-0.8748,-0.8012,
6.160852,-0.3092,0.0194,-0.6093,4.0820,-5.7210,-1.2750,-0.1646,-0.8748,-0.8012,
6.164772,-0.3092,0.0194,-0.6093,6.5480,-1.9520,-5.9000,-0.1646,-0.8748,-0.8012,
6.171595,-0.3092,0.0194,-0.6093,-4.0470,2.8650,-1.9990,-0.1646,-0.8748,-0.8012,
6.189392,-0.3092,0.0194,-0.6093,-4.0950,1.0650,1.7660,-0.1646,-0.8748,-0.8012,
6.211382,-0.3092,0.0194,-0.6093,-4.0950,1.0650,1.7660,-0.6607,0.5792,1.6759,
6.217345,-0.3092,0.0194,-0.6093,2.2630,-0.7850,-1.8070,-0.6607,0.5792,1.6759,
6.229109,-1.3942,0.4902,-0.2202,2.2630,-0.7850,-1.8070,-0.6607,0.5792,1.6759,
6.233000,-1.3974,0.3157,0.1588,2.2630,-0.7850,-1.8070,-0.6607,0.5792,1.6759,
6.236333,-0.7414,0.1581,-0.2148,2.2630,-0.7850,-1.8070,-0.6607,0.5792,1.6759,
6.239499,-0.4262,0.2759,-0.0433,2.2630,-0.7850,-1.8070,-0.6607,0.5792,1.6759,
6.242698,-0.4262,0.2759,-0.0433,5.2570,0.0040,-0.1190,-0.6607,0.5792,1.6759,
6.251825,-0.4262,0.2759,-0.0433,3.3850,-0.8670,2.2870,-0.6607,0.5792,1.6759,
6.270233,-0.4262,0.2759,-0.0433,3.3850,-0.8670,2.2870,-0.3967,0.7602,2.1208,
6.274808,-0.4262,0.2759,-0.0433,-0.1840,-2.1600,1.2520,-0.3967,0.7602,2.1208,
6.292202,-0.4262,0.2759,-0.0433,-0.8320,-1.2930,-1.2060,-0.3967,0.7602,2.1208,
6.309860,-0.6056,0.2241,0.1996,-0.8320,-1.2930,-1.2060,-0.3967,0.7602,2.1208,
6.312059,-0.9555,0.1312,0.0828,-0.8320,-1.2930,-1.2060,-0.3967,0.7602,2.1208,
6.313714,-1.0061,0.2590,-0.1745,-0.8320,-1.2930,-1.2060,-0.3967,0.7602,2.1208,
6.316292,-0.7654,0.5927,-0.2104,-0.8320,-1.2930,-1.2060,-0.3967,0.7602,2.1208,
6.317782,-0.7654,0.5927,-0.2104,1.3860,1.6560,-1.6510,-0.3967,0.7602,2.1208,
6.333118,-0.7654,0.5927,-0.2104,1.3860,1.6560,-1.6510,0.1924,-1.1918,0.0208,
6.337278,-0.7654,0.5927,-0.2104,3.9050,3.8260,-2.0370,0.1924,-1.1918,0.0208,
6.350329,-0.7654,0.5927,-0.2104,1.2600,-0.6070,-0.8510,0.1924,-1.1918,0.0208,
6.373596,-0.7654,0.5927,-0.2104,-4.2550,-1.7120,-2.7570,0.1924,-1.1918,0.0208,
6.393606,-0.5005,0.8308,-0.2295,-4.2550,-1.7120,-2.7570,0.1924,-1.1918,0.0208,
6.397974,-0.7747,0.3709,-0.0965,-4.2550,-1.7120,-2.7570,0.1924,-1.1918,0.0208,
6.400340,-1.3432,0.2451,-0.2996,-4.2550,-1.7120,-2.7570,0.1924,-1.1918,0.0208,
6.401914,-1.0751,0.5186,-0.2573,-4.2550,-1.7120,-2.7570,0.1924,-1.1918,0.0208,
6.403600,-1.0751,0.5186,-0.2573,-4.2550,-1.7120,-2.7570,-0.3487,-0.6028,-0.0282,
6.405128,-1.0751,0.5186,-0.2573,-1.6100,1.0030,-2.4090,-0.3487,-0.6028,-0.0282,
6.413669,-1.0751,0.5186,-0.2573,-0.1760,0.8040,-0.1770,-0.3487,-0.6028,-0.0282,
6.431892,-1.0751,0.5186,-0.2573,-0.4830,0.3970,0.4280,-0.3487,-0.6028,-0.0282,
6.454246,-1.0751,0.5186,-0.2573,-4.2990,1.5890,0.9670,-0.3487,-0.6028,-0.0282,
6.472579,-0.9285,0.4983,-0.0174,-4.2990,1.5890,0.9670,-0.3487,-0.6028,-0.0282,
6.476451,-0.9604,0.4548,0.0478,-4.2990,1.5890,0.9670,-0.3487,-0.6028,-0.0282,
6.479271,-1.3542,0.5682,0.0825,-4.2990,1.5890,0.9670,-0.3487,-0.6028,-0.0282,
6.482829,-1.1320,0.5821,0.2685,-4.2990,1.5890,0.9670,-0.3487,-0.6028,-0.0282,
6.485431,-1.1320,0.5821,0.2685,-4.2990,1.5890,0.9670,-0.6377,1.4472,-0.3273,
6.488039,-1.1320,0.5821,0.2685,-2.0970,1.7930,3.0250,-0.6377,1.4472,-0.3273,
6.494078,-1.1320,0.5821,0.2685,5.2990,0.1150,3.3940,-0.6377,1.4472,-0.3273,
6.512506,-1.1320,0.5821,0.2685,7.3300,0.9310,0.6030,-0.6377,1.4472,-0.3273,
6.535163,-1.1320,0.5821,0.2685,7.3300,0.9310,0.6030,-1.0436,0.9582,1.7749,
6.539102,-1.1320,0.5821,0.2685,6.0820,2.0550,1.5670,-1.0436,0.9582,1.7749,
6.552797,-0.3739,0.4161,0.3056,6.0820,2.0550,1.5670,-1.0436,0.9582,1.7749,
6.555166,-0.1596,0.5175,0.0216,6.0820,2.0550,1.5670,-1.0436,0.9582,1.7749,
6.557676,-0.2715,0.6623,0.1143,6.0820,2.0550,1.5670,-1.0436,0.9582,1.7749,
6.560003,-0.5228,0.6906,0.3471,6.0820,2.0550,1.5670,-1.0436,0.9582,1.7749,
6.562278,-0.5228,0.6906,0.3471,3.4500,2.0170,3.8950,-1.0436,0.9582,1.7749,
6.575474,-0.5228,0.6906,0.3471,2.8710,1.5380,3.8190,-1.0436,0.9582,1.7749,
6.593021,-0.5228,0.6906,0.3471,2.8710,1.5380,3.8190,-1.6877,-1.0508,0.5698,
6.595099,-0.5228,0.6906,0.3471,2.8380,1.7270,1.5460,-1.6877,-1.0508,0.5698,
6.616694,-0.5228,0.6906,0.3471,0.8030,2.7860,0.1790,-1.6877,-1.0508,0.5698,
6.634142,-0.5694,0.6650,0.3464,0.8030,2.7860,0.1790,-1.6877,-1.0508,0.5698,
6.637980,-0.5650,0.6989,0.1402,0.8030,2.7860,0.1790,-1.6877,-1.0508,0.5698,
6.640929,-0.7671,0.8162,0.0334,0.8030,2.7860,0.1790,-1.6877,-1.0508,0.5698,
6.643820,-0.7980,0.8478,0.1492,0.8030,2.7860,0.1790,-1.6877,-1.0508,0.5698,
6.646840,-0.7980,0.8478,0.1492,0.4100,2.9690,1.1400,-1.6877,-1.0508,0.5698,
6.656040,-0.7980,0.8478,0.1492,0.4100,2.9690,1.1400,-0.7077,-0.1178,0.7769,
6.657770,-0.7980,0.8478,0.1492,1.0990,2.6930,1.9190,-0.7077,-0.1178,0.7769,
6.674830,-0.7980,0.8478,0.1492,1.9410,1.9360,1.1950,-0.7077,-0.1178,0.7769,
6.696923,-0.7980,0.8478,0.1492,2.2530,1.4950,0.7260,-0.7077,-0.1178,0.7769,
6.716449,-0.7188,0.8320,0.2380,2.2530,1.4950,0.7260,-0.7077,-0.1178,0.7769,
6.720599,-0.6246,0.7666,0.1742,2.2530,1.4950,0.7260,-0.7077,-0.1178,0.7769,
6.722351,-0.5855,0.7300,0.1378,2.2530,1.4950,0.7260,-0.7077,-0.1178,0.7769,
6.723194,-0.6100,0.6769,0.1521,2.2530,1.4950,0.7260,-0.7077,-0.1178,0.7769,
6.723813,-0.6100,0.6769,0.1521,1.9630,0.9130,0.7210,-0.7077,-0.1178,0.7769,
6.737514,-0.6100,0.6769,0.1521,1.9630,0.9130,0.7210,0.0093,-0.8558,0.3369,
6.740236,-0.6100,0.6769,0.1521,1.9090,0.2050,1.2380,0.0093,-0.8558,0.3369,
6.755877,-0.6100,0.6769,0.1521,0.7640,1.4190,0.6290,0.0093,-0.8558,0.3369,
6.778373,-0.6100,0.6769,0.1521,-0.0810,2.3150,0.5360,0.0093,-0.8558,0.3369,
6.796239,-0.6100,0.6109,0.2194,-0.0810,2.3150,0.5360,0.0093,-0.8558,0.3369,
6.801623,-0.7202,0.7405,0.1705,-0.0810,2.3150,0.5360,0.0093,-0.8558,0.3369,
6.805048,-0.7992,0.8392,0.1727,-0.0810,2.3150,0.5360,0.0093,-0.8558,0.3369,
6.808502,-0.7619,0.8287,0.2169,-0.0810,2.3150,0.5360,0.0093,-0.8558,0.3369,
6.811941,-0.7619,0.8287,0.2169,-0.0810,2.3150,0.5360,0.3663,-0.6077,0.5818,
6.815311,-0.7619,0.8287,0.2169,0.2040,2.1280,0.9030,0.3663,-0.6077,0.5818,
6.818800,-0.7619,0.8287,0.2169,0.1860,0.7820,0.2850,0.3663,-0.6077,0.5818,
6.836704,-0.7619,0.8287,0.2169,-1.5000,-2.3960,-1.8010,0.3663,-0.6077,0.5818,
6.859686,-0.7619,0.8287,0.2169,-1.5000,-2.3960,-1.8010,0.1103,-0.4317,0.5719,
6.863610,-0.7619,0.8287,0.2169,-0.3330,-0.9090,-0.0190,0.1103,-0.4317,0.5719,
6.877807,-0.7515,0.7065,0.1604,-0.3330,-0.9090,-0.0190,0.1103,-0.4317,0.5719,
6.882677,-0.9152,0.3907,-0.0489,-0.3330,-0.9090,-0.0190,0.1103,-0.4317,0.5719,
6.885893,-0.7864,0.5533,0.1392,-0.3330,-0.9090,-0.0190,0.1103,-0.4317,0.5719,
6.888646,-0.5919,0.5591,0.3471,-0.3330,-0.9090,-0.0190,0.1103,-0.4317,0.5719,
6.891612,-0.5919,0.5591,0.3471,1.5160,-0.9110,1.9700,0.1103,-0.4317,0.5719,
6.902637,-0.5919,0.5591,0.3471,-0.9110,-3.3800,1.5790,0.1103,-0.4317,0.5719,
6.917379,-0.5919,0.5591,0.3471,-0.9110,-3.3800,1.5790,0.3464,-0.0718,-0.4282,
6.919578,-0.5919,0.5591,0.3471,-1.5520,-4.4590,1.4330,0.3464,-0.0718,-0.4282,
6.940252,-0.5919,0.5591,0.3471,-2.8590,-2.7130,-0.8800,0.3464,-0.0718,-0.4282,
6.957483,-0.8367,0.3091,0.3075,-2.8590,-2.7130,-0.8800,0.3464,-0.0718,-0.4282,
6.959678,-0.9040,0.1980,0.2912,-2.8590,-2.7130,-0.8800,0.3464,-0.0718,-0.4282,
6.961369,-1.0428,0.3709,0.0517,-2.8590,-2.7130,-0.8800,0.3464,-0.0718,-0.4282,
6.963019,-1.0428,0.3709,0.0517,-2.0500,2.5800,-1.0440,0.3464,-0.0718,-0.4282,
6.964768,-0.9680,0.9023,0.0319,-2.0500,2.5800,-1.0440,0.3464,-0.0718,-0.4282,
6.979834,-0.9680,0.9023,0.0319,0.3720,3.1620,3.9320,0.3464,-0.0718,-0.4282,
6.997989,-0.9680,0.9023,0.0319,0.3720,3.1620,3.9320,1.5293,0.5253,-1.0372,
7.002272,-0.9680,0.9023,0.0319,-0.2870,1.4250,0.7370,1.5293,0.5253,-1.0372,
7.020258,-0.9680,0.9023,0.0319,-0.6010,1.8860,-3.0520,1.5293,0.5253,-1.0372,
7.039408,-0.7307,0.9521,0.5292,-0.6010,1.8860,-3.0520,1.5293,0.5253,-1.0372,
7.043094,-0.8108,0.7632,0.1776,-0.6010,1.8860,-3.0520,1.5293,0.5253,-1.0372,
7.045773,-0.8600,0.7935,-0.2374,-0.6010,1.8860,-3.0520,1.5293,0.5253,-1.0372,
7.049225,-0.5682,0.7886,-0.2544,-0.6010,1.8860,-3.0520,1.5293,0.5253,-1.0372,
7.052457,-0.5682,0.7886,-0.2544,2.4520,2.0810,-2.9360,1.5293,0.5253,-1.0372,
7.060649,-0.5682,0.7886,-0.2544,2.4520,2.0810,-2.9360,0.1643,2.4542,-1.7861,
7.062047,-0.5682,0.7886,-0.2544,2.7940,6.0590,-1.3920,0.1643,2.4542,-1.7861,
7.078681,-0.5682,0.7886,-0.2544,-0.5150,7.1040,1.8570,0.1643,2.4542,-1.7861,
7.102287,-0.5682,0.7886,-0.2544,1.1770,4.4450,3.5290,0.1643,2.4542,-1.7861,
7.120569,-0.5543,1.1650,-0.1386,1.1770,4.4450,3.5290,0.1643,2.4542,-1.7861,
7.124106,-0.9084,1.2442,0.1570,1.1770,4.4450,3.5290,0.1643,2.4542,-1.7861,
7.126769,-0.7449,0.9560,0.2949,1.1770,4.4450,3.5290,0.1643,2.4542,-1.7861,
7.129523,-0.3986,0.9457,-0.0682,1.1770,4.4450,3.5290,0.1643,2.4542,-1.7861,
7.132421,-0.3986,0.9457,-0.0682,1.1770,4.4450,3.5290,1.2783,-1.1568,-1.7121,
7.135432,-0.3986,0.9457,-0.0682,4.6900,4.5840,0.0870,1.2783,-1.1568,-1.7121,
7.142015,-0.3986,0.9457,-0.0682,1.8340,3.6660,-1.9070,1.2783,-1.1568,-1.7121,
7.161062,-0.3986,0.9457,-0.0682,-0.2290,1.1620,-1.7100,1.2783,-1.1568,-1.7121,
7.181929,-0.3986,0.9457,-0.0682,-0.2290,1.1620,-1.7100,0.3523,0.5592,-1.2761,
7.186003,-0.3986,0.9457,-0.0682,0.8180,0.1100,-0.1560,0.3523,0.5592,-1.2761,
7.201315,-0.7074,0.8180,-0.2635,0.8180,0.1100,-0.1560,0.3523,0.5592,-1.2761,
7.203312,-0.9355,0.5261,-0.2407,0.8180,0.1100,-0.1560,0.3523,0.5592,-1.2761,
7.204858,-0.8421,0.3891,-0.0888,0.8180,0.1100,-0.1560,0.3523,0.5592,-1.2761,
7.206461,-0.8074,0.2311,-0.1643,0.8180,0.1100,-0.1560,0.3523,0.5592,-1.2761,
7.209896,-0.8074,0.2311,-0.1643,1.2380,-1.1970,-0.7700,0.3523,0.5592,-1.2761,
7.222142,-0.8074,0.2311,-0.1643,2.6550,-1.2330,-0.3940,0.3523,0.5592,-1.2761,
7.241875,-0.8074,0.2311,-0.1643,2.9870,-0.4140,1.8650,0.3523,0.5592,-1.2761,
7.262510,-0.8074,0.2311,-0.1643,2.9870,-0.4140,1.8650,-0.7096,1.0952,-0.4542,
7.264845,-0.8074,0.2311,-0.1643,3.3840,-0.3140,1.9830,-0.7096,1.0952,-0.4542,
7.283137,-0.6666,0.2109,-0.1471,3.3840,-0.3140,1.9830,-0.7096,1.0952,-0.4542,
7.287500,-0.6344,0.2820,0.0649,3.3840,-0.3140,1.9830,-0.7096,1.0952,-0.4542,
7.290891,-0.6344,0.2820,0.0649,2.9070,-0.4470,0.9220,-0.7096,1.0952,-0.4542,
7.294499,-0.5941,0.2849,0.0598,2.9070,-0.4470,0.9220,-0.7096,1.0952,-0.4542,
7.298216,-0.6420,0.2691,-0.0623,2.9070,-0.4470,0.9220,-0.7096,1.0952,-0.4542,
7.304386,-0.6420,0.2691,-0.0623,3.4760,-0.6240,0.3690,-0.7096,1.0952,-0.4542,
7.323325,-0.6420,0.2691,-0.0623,3.4760,-0.6240,0.3690,-0.4686,-0.3739,0.6678,
7.328244,-0.6420,0.2691,-0.0623,5.0760,-0.4100,0.0750,-0.4686,-0.3739,0.6678,
7.344605,-0.6420,0.2691,-0.0623,4.0450,-0.4190,-0.6720,-0.4686,-0.3739,0.6678,
7.363358,-0.5797,0.2576,-0.1232,4.0450,-0.4190,-0.6720,-0.4686,-0.3739,0.6678,
7.367935,-0.4130,0.2922,-0.1469,4.0450,-0.4190,-0.6720,-0.4686,-0.3739,0.6678,
7.371865,-0.5154,0.3084,-0.2097,4.0450,-0.4190,-0.6720,-0.4686,-0.3739,0.6678,
7.375843,-0.7666,0.2050,-0.3493,4.0450,-0.4190,-0.6720,-0.4686,-0.3739,0.6678,
7.379848,-0.7666,0.2050,-0.3493,1.5150,-1.6500,-2.2090,-0.4686,-0.3739,0.6678,
7.386792,-0.7666,0.2050,-0.3493,1.5150,-1.6500,-2.2090,-1.2327,-0.3877,2.0048,
7.388462,-0.7666,0.2050,-0.3493,-0.6430,-2.5320,-3.3770,-1.2327,-0.3877,2.0048,
7.404302,-0.7666,0.2050,-0.3493,-0.0630,-1.6250,-1.2450,-1.2327,-0.3877,2.0048,
7.424910,-0.7666,0.2050,-0.3493,0.0270,-0.4240,-0.4850,-1.2327,-0.3877,2.0048,
7.445229,-0.9744,0.1483,-0.4504,0.0270,-0.4240,-0.4850,-1.2327,-0.3877,2.0048,
7.449315,-0.8979,0.2798,-0.2200,0.0270,-0.4240,-0.4850,-1.2327,-0.3877,2.0048,
7.451497,-0.8712,0.4382,-0.1393,0.0270,-0.4240,-0.4850,-1.2327,-0.3877,2.0048,
7.453561,-0.8157,0.4826,-0.1980,0.0270,-0.4240,-0.4850,-1.2327,-0.3877,2.0048,
7.455701,-0.8157,0.4826,-0.1980,0.0270,-0.4240,-0.4850,-1.6277,0.6622,0.4788,
7.459080,-0.8157,0.4826,-0.1980,0.4380,-0.2290,-1.0880,-1.6277,0.6622,0.4788,
7.466844,-0.8157,0.4826,-0.1980,-1.6160,0.9920,-0.1580,-1.6277,0.6622,0.4788,
7.485291,-0.8157,0.4826,-0.1980,-3.1880,1.6820,-3.7010,-1.6277,0.6622,0.4788,
7.505314,-0.8157,0.4826,-0.1980,-5.6520,1.4880,-2.7520,-1.6277,0.6622,0.4788,
7.525862,-1.0201,0.6176,-0.0965,-5.6520,1.4880,-2.7520,-1.6277,0.6622,0.4788,
7.528078,-1.1818,0.6877,-0.4390,-5.6520,1.4880,-2.7520,-1.6277,0.6622,0.4788,
7.529703,-1.4334,0.6708,-0.2906,-5.6520,1.4880,-2.7520,-1.6277,0.6622,0.4788,
7.531444,-0.3443,0.7118,0.4586,-5.6520,1.4880,-2.7520,-1.6277,0.6622,0.4788,
7.533015,-0.3443,0.7118,0.4586,-5.6520,1.4880,-2.7520,-0.1437,-1.8748,1.1598,
7.534592,-0.3443,0.7118,0.4586,4.9050,1.7120,4.1770,-0.1437,-1.8748,1.1598,
7.546151,-0.3443,0.7118,0.4586,3.9520,7.6760,-1.3200,-0.1437,-1.8748,1.1598,
7.565622,-0.3443,0.7118,0.4586,3.1130,12.3730,0.4450,-0.1437,-1.8748,1.1598,
7.586954,-0.3443,0.7118,0.4586,3.1130,12.3730,0.4450,-1.2977,-0.5778,0.7558,
7.591413,-0.3443,0.7118,0.4586,5.2220,9.8350,4.7790,-1.2977,-0.5778,0.7558,
7.605855,-0.4284,1.3397,-0.0902,5.2220,9.8350,4.7790,-1.2977,-0.5778,0.7558,
7.609501,-0.4966,1.8388,0.1294,5.2220,9.8350,4.7790,-1.2977,-0.5778,0.7558,
7.612008,-0.2679,1.5932,0.6089,5.2220,9.8350,4.7790,-1.2977,-0.5778,0.7558,
7.615289,-0.1125,0.8380,0.5442,5.2220,9.8350,4.7790,-1.2977,-0.5778,0.7558,
7.617583,-0.1125,0.8380,0.5442,6.7020,2.3860,4.0330,-1.2977,-0.5778,0.7558,
7.626939,-0.1125,0.8380,0.5442,6.8820,0.0550,1.9070,-1.2977,-0.5778,0.7558,
7.646888,-0.1125,0.8380,0.5442,6.8820,0.0550,1.9070,0.8234,-1.0318,0.9679,
7.651291,-0.1125,0.8380,0.5442,4.2200,2.4360,2.5400,0.8234,-1.0318,0.9679,
7.668468,-0.1125,0.8380,0.5442,1.8570,4.0870,3.5940,0.8234,-1.0318,0.9679,
7.687362,-0.0899,0.6039,0.3298,1.8570,4.0870,3.5940,0.8234,-1.0318,0.9679,
7.691018,-0.3502,0.8609,0.3992,1.8570,4.0870,3.5940,0.8234,-1.0318,0.9679,
7.694153,-0.5755,1.0455,0.5155,1.8570,4.0870,3.5940,0.8234,-1.0318,0.9679,
7.697122,-0.7143,0.6776,0.8948,1.8570,4.0870,3.5940,0.8234,-1.0318,0.9679,
7.700015,-0.7143,0.6776,0.8948,0.3980,0.3960,7.1060,0.8234,-1.0318,0.9679,
7.707519,-0.7143,0.6776,0.8948,0.3980,0.3960,7.1060,0.7813,-0.9548,-0.4122,
7.709603,-0.7143,0.6776,0.8948,1.9090,-0.1140,4.4950,0.7813,-0.9548,-0.4122,
7.727910,-0.7143,0.6776,0.8948,2.2380,1.6890,-3.4260,0.7813,-0.9548,-0.4122,
7.749343,-0.7143,0.6776,0.8948,0.1130,1.4830,-0.8470,0.7813,-0.9548,-0.4122,
7.768327,-0.5531,0.6281,0.6497,0.1130,1.4830,-0.8470,0.7813,-0.9548,-0.4122,
7.772081,-0.5210,0.8087,-0.1545,0.1130,1.4830,-0.8470,0.7813,-0.9548,-0.4122,
7.775059,-0.7386,0.7828,0.1169,0.1130,1.4830,-0.8470,0.7813,-0.9548,-0.4122,
7.778015,-0.7668,0.3470,0.4948,0.1130,1.4830,-0.8470,0.7813,-0.9548,-0.4122,
7.780892,-0.7668,0.3470,0.4948,-0.2150,-2.8400,2.8000,0.7813,-0.9548,-0.4122,
7.788806,-0.7668,0.3470,0.4948,-0.2150,-2.8400,2.8000,1.3064,-1.1809,0.6599,
7.790265,-0.7668,0.3470,0.4948,0.8330,-3.9310,0.9640,1.3064,-1.1809,0.6599,
7.809120,-0.7668,0.3470,0.4948,0.9580,-1.6680,-3.7980,1.3064,-1.1809,0.6599,
7.829558,-0.7668,0.3470,0.4948,2.0200,0.1810,-3.7920,1.3064,-1.1809,0.6599,
7.849138,-0.6468,0.2497,0.3098,2.0200,0.1810,-3.7920,1.3064,-1.1809,0.6599,
7.853408,-0.6207,0.4963,-0.1833,2.0200,0.1810,-3.7920,1.3064,-1.1809,0.6599,
7.856984,-0.5037,0.6943,-0.1813,2.0200,0.1810,-3.7920,1.3064,-1.1809,0.6599,
7.860554,-0.5100,0.7327,0.4918,2.0200,0.1810,-3.7920,1.3064,-1.1809,0.6599,
7.864371,-0.5100,0.7327,0.4918,2.0200,0.1810,-3.7920,-0.7436,0.1953,0.1478,
7.869054,-0.5100,0.7327,0.4918,1.9480,0.5670,2.7100,-0.7436,0.1953,0.1478,
7.871574,-0.5100,0.7327,0.4918,1.2420,-0.4410,2.1960,-0.7436,0.1953,0.1478,
7.889308,-0.5100,0.7327,0.4918,-0.3610,-2.2170,-1.4060,-0.7436,0.1953,0.1478,
7.910301,-0.5100,0.7327,0.4918,-0.3610,-2.2170,-1.4060,0.2193,0.3741,1.2429,
7.911756,-0.5100,0.7327,0.4918,-4.6040,-8.2290,1.2540,0.2193,0.3741,1.2429,
7.929881,-0.5775,0.6310,0.4468,-4.6040,-8.2290,1.2540,0.2193,0.3741,1.2429,
7.932136,-0.7341,0.4536,0.0898,-4.6040,-8.2290,1.2540,0.2193,0.3741,1.2429,
7.934252,-1.1569,-0.1530,0.3708,-4.6040,-8.2290,1.2540,0.2193,0.3741,1.2429,
7.935958,-0.6596,0.7011,0.2853,-4.6040,-8.2290,1.2540,0.2193,0.3741,1.2429,
7.937680,-0.6596,0.7011,0.2853,0.1840,0.0150,0.5210,0.2193,0.3741,1.2429,
7.951161,-0.6596,0.7011,0.2853,-0.6720,3.7340,-4.4360,0.2193,0.3741,1.2429,
7.970792,-0.6596,0.7011,0.2853,-0.6720,3.7340,-4.4360,-0.4477,0.2032,1.2628,
7.974789,-0.6596,0.7011,0.2853,2.4330,3.0650,-3.5080,-0.4477,0.2032,1.2628,
7.991594,-0.6596,0.7011,0.2853,3.7850,1.4630,0.0280,-0.4477,0.2032,1.2628,
8.011380,-0.7376,1.0911,-0.2268,3.7850,1.4630,0.0280,-0.4477,0.2032,1.2628,
8.013480,-0.4057,1.0382,-0.1328,3.7850,1.4630,0.0280,-0.4477,0.2032,1.2628,
8.015388,-0.2512,0.8873,0.2335,3.7850,1.4630,0.0280,-0.4477,0.2032,1.2628,
8.017029,-0.5438,0.8803,0.3268,3.7850,1.4630,0.0280,-0.4477,0.2032,1.2628,
8.018719,-0.5438,0.8803,0.3268,0.8160,1.3200,0.9320,-0.4477,0.2032,1.2628,
8.032056,-0.5438,0.8803,0.3268,-0.9670,0.6330,1.4270,-0.4477,0.2032,1.2628,
8.051994,-0.5438,0.8803,0.3268,-0.9670,0.6330,1.4270,0.9654,-1.2228,-0.3172,
8.055878,-0.5438,0.8803,0.3268,-2.1830,0.4460,1.6030,0.9654,-1.2228,-0.3172,
8.072406,-0.5438,0.8803,0.3268,-2.6930,1.0610,-0.3820,0.9654,-1.2228,-0.3172,
8.092184,-0.7200,0.8138,0.3813,-2.6930,1.0610,-0.3820,0.9654,-1.2228,-0.3172,
8.094491,-0.8423,0.7962,0.4009,-2.6930,1.0610,-0.3820,0.9654,-1.2228,-0.3172,
8.096217,-0.8964,0.8600,0.1919,-2.6930,1.0610,-0.3820,0.9654,-1.2228,-0.3172,
8.098002,-0.8376,0.9042,0.1321,-2.6930,1.0610,-0.3820,0.9654,-1.2228,-0.3172,
8.099797,-0.8376,0.9042,0.1321,-2.0940,1.4890,-0.8660,0.9654,-1.2228,-0.3172,
8.112658,-0.8376,0.9042,0.1321,-2.0940,1.4890,-0.8660,1.7263,-0.7617,-0.6762,
8.115275,-0.8376,0.9042,0.1321,-2.0860,3.1500,-0.6940,1.7263,-0.7617,-0.6762,
8.133689,-0.8376,0.9042,0.1321,0.4510,5.6970,0.7600,1.7263,-0.7617,-0.6762,
8.153899,-0.8376,0.9042,0.1321,4.1530,5.0180,2.0960,1.7263,-0.7617,-0.6762,
8.173986,-0.8421,1.0736,0.1360,4.1530,5.0180,2.0960,1.7263,-0.7617,-0.6762,
8.177368,-0.5958,1.3285,0.2634,4.1530,5.0180,2.0960,1.7263,-0.7617,-0.6762,
8.180149,-0.2385,1.2486,0.3631,4.1530,5.0180,2.0960,1.7263,-0.7617,-0.6762,
8.182977,-0.2385,1.2486,0.3631,4.1530,5.0180,2.0960,3.4034,-0.3268,-1.1682,
8.185754,-0.2385,1.2486,0.3631,6.5120,4.8570,-2.1540,3.4034,-0.3268,-1.1682,
8.188309,-0.0193,1.2209,-0.1186,6.5120,4.8570,-2.1540,3.4034,-0.3268,-1.1682,
8.193823,-0.0193,1.2209,-0.1186,8.3850,5.9150,-1.5920,3.4034,-0.3268,-1.1682,
8.213887,-0.0193,1.2209,-0.1186,7.3490,6.4360,0.7980,3.4034,-0.3268,-1.1682,
8.234060,-0.0193,1.2209,-0.1186,7.3490,6.4360,0.7980,3.1093,-1.0638,-1.3461,
8.236642,-0.0193,1.2209,-0.1186,5.2440,4.9310,-0.9130,3.1093,-1.0638,-1.3461,
8.254313,0.1600,1.3204,-0.1037,5.2440,4.9310,-0.9130,3.1093,-1.0638,-1.3461,
8.258455,0.0464,1.3679,0.1008,5.2440,4.9310,-0.9130,3.1093,-1.0638,-1.3461,
8.261496,-0.1820,1.2026,-0.1134,5.2440,4.9310,-0.9130,3.1093,-1.0638,-1.3461,
8.265436,-0.7486,0.7976,0.0761,5.2440,4.9310,-0.9130,3.1093,-1.0638,-1.3461,
8.268490,-0.7486,0.7976,0.0761,-0.1250,1.1650,1.2020,3.1093,-1.0638,-1.3461,
8.274613,-0.7486,0.7976,0.0761,-0.6070,-0.7750,-1.1600,3.1093,-1.0638,-1.3461,
8.293931,-0.7486,0.7976,0.0761,3.1070,-1.9570,-1.9540,3.1093,-1.0638,-1.3461,
8.315254,-0.7486,0.7976,0.0761,3.1070,-1.9570,-1.9540,0.6904,1.3592,-1.4921,
8.319278,-0.7486,0.7976,0.0761,1.2140,-1.6300,0.1820,0.6904,1.3592,-1.4921,
8.335952,-0.8101,0.5811,-0.2071,1.2140,-1.6300,0.1820,0.6904,1.3592,-1.4921,
8.340025,-0.4382,0.4457,-0.3267,1.2140,-1.6300,0.1820,0.6904,1.3592,-1.4921,
8.343294,-0.6456,0.4550,-0.1391,1.2140,-1.6300,0.1820,0.6904,1.3592,-1.4921,
8.346487,-0.7575,0.4634,-0.1324,1.2140,-1.6300,0.1820,0.6904,1.3592,-1.4921,
8.350813,-0.7575,0.4634,-0.1324,0.2110,-1.3440,0.5220,0.6904,1.3592,-1.4921,
8.356614,-0.7575,0.4634,-0.1324,2.2260,-1.4780,-0.7000,0.6904,1.3592,-1.4921,
8.375752,-0.7575,0.4634,-0.1324,2.2260,-1.4780,-0.7000,0.1264,0.2082,-0.5642,
8.377170,-0.7575,0.4634,-0.1324,3.1900,-0.4910,1.5250,0.1264,0.2082,-0.5642,
8.396208,-0.7575,0.4634,-0.1324,4.1970,-0.9390,-0.3110,0.1264,0.2082,-0.5642,
8.416100,-0.5576,0.4357,-0.2791,4.1970,-0.9390,-0.3110,0.1264,0.2082,-0.5642,
8.420818,-0.4651,0.5261,-0.0609,4.1970,-0.9390,-0.3110,0.1264,0.2082,-0.5642,
8.424518,-0.3670,0.4729,-0.2466,4.1970,-0.9390,-0.3110,0.1264,0.2082,-0.5642,
8.428142,-0.3155,0.4369,-0.3982,4.1970,-0.9390,-0.3110,0.1264,0.2082,-0.5642,
8.432903,-0.3155,0.4369,-0.3982,4.7500,-1.2660,-1.9110,0.1264,0.2082,-0.5642,
8.438610,-0.3155,0.4369,-0.3982,4.7500,-1.2660,-1.9110,-0.2287,-1.1949,0.3608,
8.440693,-0.3155,0.4369,-0.3982,3.9880,-1.6450,-1.7990,-0.2287,-1.1949,0.3608,
8.456594,-0.3155,0.4369,-0.3982,3.5420,-2.2600,-1.7990,-0.2287,-1.1949,0.3608,
8.477213,-0.3155,0.4369,-0.3982,4.2070,-3.4770,-1.5820,-0.2287,-1.1949,0.3608,
8.496870,-0.3961,0.4007,-0.3673,4.2070,-3.4770,-1.5820,-0.2287,-1.1949,0.3608,
8.500892,-0.4411,0.3462,-0.3434,4.2070,-3.4770,-1.5820,-0.2287,-1.1949,0.3608,
8.504435,-0.3686,0.2355,-0.2936,4.2070,-3.4770,-1.5820,-0.2287,-1.1949,0.3608,
8.508111,0.1221,0.3309,-0.5876,4.2070,-3.4770,-1.5820,-0.2287,-1.1949,0.3608,
8.511635,0.1221,0.3309,-0.5876,4.2070,-3.4770,-1.5820,-0.6726,-1.5228,0.2588,
8.516462,0.1221,0.3309,-0.5876,8.9460,-2.6730,-4.7760,-0.6726,-1.5228,0.2588,
8.520558,0.1221,0.3309,-0.5876,6.9980,0.7980,-2.0730,-0.6726,-1.5228,0.2588,
8.538074,0.1221,0.3309,-0.5876,0.0890,3.6160,2.2860,-0.6726,-1.5228,0.2588,
8.558826,0.1221,0.3309,-0.5876,-8.4040,5.1460,-0.2960,-0.6726,-1.5228,0.2588,
8.578490,-0.0789,0.6901,-0.2806,-8.4040,5.1460,-0.2960,-0.6726,-1.5228,0.2588,
8.580801,-0.7901,0.9704,0.1849,-8.4040,5.1460,-0.2960,-0.6726,-1.5228,0.2588,
8.582746,-1.6738,1.1021,-0.0853,-8.4040,5.1460,-0.2960,-0.6726,-1.5228,0.2588,
8.584256,-2.3517,0.6654,-0.9390,-8.4040,5.1460,-0.2960,-0.6726,-1.5228,0.2588,
8.585763,-2.3517,0.6654,-0.9390,-8.4040,5.1460,-0.2960,0.7374,-0.1939,-2.1891,
8.587408,-2.3517,0.6654,-0.9390,-14.8170,1.2090,-8.5850,0.7374,-0.1939,-2.1891,
8.599006,-2.3517,0.6654,-0.9390,-5.9180,-5.7770,-8.0630,0.7374,-0.1939,-2.1891,
8.618349,-2.3517,0.6654,-0.9390,0.4290,-3.0970,-4.4590,0.7374,-0.1939,-2.1891,
8.639387,-2.3517,0.6654,-0.9390,0.4290,-3.0970,-4.4590,0.1643,-1.5579,1.3008,
8.643649,-2.3517,0.6654,-0.9390,0.6840,7.3350,-1.4360,0.1643,-1.5579,1.3008,
8.661215,-1.4612,-0.0759,-0.8754,0.6840,7.3350,-1.4360,0.1643,-1.5579,1.3008,
8.666822,-0.8218,0.1854,-0.4981,0.6840,7.3350,-1.4360,0.1643,-1.5579,1.3008,
8.670015,-0.7901,1.2615,-0.1767,0.6840,7.3350,-1.4360,0.1643,-1.5579,1.3008,
8.672627,-0.5181,2.3214,0.9168,0.6840,7.3350,-1.4360,0.1643,-1.5579,1.3008,
8.675324,-0.5181,2.3214,0.9168,3.1810,17.4420,8.9000,0.1643,-1.5579,1.3008,
8.680381,-0.5181,2.3214,0.9168,5.1710,9.2590,0.8710,0.1643,-1.5579,1.3008,
8.699728,-0.5181,2.3214,0.9168,5.1710,9.2590,0.8710,0.6684,-1.9628,0.4738,
8.704242,-0.5181,2.3214,0.9168,3.1940,-5.6430,-1.2010,0.6684,-1.9628,0.4738,
8.719710,-0.5181,2.3214,0.9168,6.4480,-6.3060,3.1660,0.6684,-1.9628,0.4738,
8.740843,-0.3008,1.5068,0.1099,6.4480,-6.3060,3.1660,0.6684,-1.9628,0.4738,
8.745038,-0.4988,-0.0097,-0.0916,6.4480,-6.3060,3.1660,0.6684,-1.9628,0.4738,
8.748385,-0.1532,-0.0601,0.3782,6.4480,-6.3060,3.1660,0.6684,-1.9628,0.4738,
8.751620,0.0969,0.8166,0.0961,6.4480,-6.3060,3.1660,0.6684,-1.9628,0.4738,
8.754734,0.0969,0.8166,0.0961,8.7070,2.0490,0.2370,0.6684,-1.9628,0.4738,
8.760740,0.0969,0.8166,0.0961,8.7070,2.0490,0.2370,0.4704,-2.9538,0.3388,
8.762364,0.0969,0.8166,0.0961,1.2650,4.6340,2.5640,0.4704,-2.9538,0.3388,
8.780358,0.0969,0.8166,0.0961,-0.5600,1.7930,5.1220,0.4704,-2.9538,0.3388,
8.801992,0.0969,0.8166,0.0961,-0.3510,-0.0390,1.3020,0.4704,-2.9538,0.3388,
8.820092,-0.6522,1.0921,0.3592,-0.3510,-0.0390,1.3020,0.4704,-2.9538,0.3388,
8.824729,-0.8282,0.8082,0.6605,-0.3510,-0.0390,1.3020,0.4704,-2.9538,0.3388,
8.828061,-0.7922,0.6270,0.3100,-0.3510,-0.0390,1.3020,0.4704,-2.9538,0.3388,
8.831142,-0.7922,0.6270,0.3100,-1.2490,-0.7220,-7.6360,0.4704,-2.9538,0.3388,
8.835589,-0.8735,0.5643,-0.5834,-1.2490,-0.7220,-7.6360,0.4704,-2.9538,0.3388,
8.841782,-0.8735,0.5643,-0.5834,-1.2490,-0.7220,-7.6360,-0.4676,-0.5988,0.4608,
8.843544,-0.8735,0.5643,-0.5834,1.1280,0.2860,-1.8760,-0.4676,-0.5988,0.4608,
8.860082,-0.8735,0.5643,-0.5834,2.3680,-0.5810,3.9690,-0.4676,-0.5988,0.4608,
8.884356,-0.8735,0.5643,-0.5834,1.6410,-0.4450,0.3250,-0.4676,-0.5988,0.4608,
8.901541,-0.6225,0.6728,0.0214,1.6410,-0.4450,0.3250,-0.4676,-0.5988,0.4608,
8.907272,-0.4909,0.5869,0.6253,1.6410,-0.4450,0.3250,-0.4676,-0.5988,0.4608,
8.910595,-0.5601,0.6036,0.2650,1.6410,-0.4450,0.3250,-0.4676,-0.5988,0.4608,
8.913598,-0.6901,0.7283,-0.1322,1.6410,-0.4450,0.3250,-0.4676,-0.5988,0.4608,
8.916453,-0.6901,0.7283,-0.1322,1.6410,-0.4450,0.3250,0.6094,-1.5298,0.1228,
8.919382,-0.6901,0.7283,-0.1322,0.2730,0.7250,-3.7070,0.6094,-1.5298,0.1228,
8.924385,-0.6901,0.7283,-0.1322,-0.7340,-0.0460,-2.7860,0.6094,-1.5298,0.1228,
8.941828,-0.6901,0.7283,-0.1322,-0.5270,-1.2090,-0.7920,0.6094,-1.5298,0.1228,
8.964436,-0.6901,0.7283,-0.1322,-0.5270,-1.2090,-0.7920,0.0704,-0.7439,0.2908,
8.967662,-0.6901,0.7283,-0.1322,-0.1770,-1.0090,-1.0450,0.0704,-0.7439,0.2908,
8.982048,-0.7850,0.6545,-0.0280,-0.1770,-1.0090,-1.0450,0.0704,-0.7439,0.2908,
8.986655,-0.7568,0.5396,0.1830,-0.1770,-1.0090,-1.0450,0.0704,-0.7439,0.2908,
8.989540,-0.7131,0.5648,0.1644,-0.1770,-1.0090,-1.0450,0.0704,-0.7439,0.2908,
8.992663,-0.7229,0.5983,0.0576,-0.1770,-1.0090,-1.0450,0.0704,-0.7439,0.2908,
8.995862,-0.7229,0.5983,0.0576,-0.3520,-0.7260,-2.1850,0.0704,-0.7439,0.2908,
9.004032,-0.7229,0.5983,0.0576,-0.6310,0.0220,-2.6100,0.0704,-0.7439,0.2908,
9.022761,-0.7229,0.5983,0.0576,-0.6310,0.0220,-2.6100,-0.2816,-0.5728,0.7688,
9.027305,-0.7229,0.5983,0.0576,0.5310,-0.0270,-2.2090,-0.2816,-0.5728,0.7688,
9.045770,-0.7229,0.5983,0.0576,-0.0040,-0.1530,-1.0000,-0.2816,-0.5728,0.7688,
9.062797,-0.7434,0.6803,0.0234,-0.0040,-0.1530,-1.0000,-0.2816,-0.5728,0.7688,
9.066737,-0.6121,0.6828,0.0732,-0.0040,-0.1530,-1.0000,-0.2816,-0.5728,0.7688,
9.069755,-0.6528,0.6789,0.2077,-0.0040,-0.1530,-1.0000,-0.2816,-0.5728,0.7688,
9.072894,-0.5428,0.6554,0.2028,-0.0040,-0.1530,-1.0000,-0.2816,-0.5728,0.7688,
9.075878,-0.5428,0.6554,0.2028,0.9070,-0.4840,-1.1680,-0.2816,-0.5728,0.7688,
9.085605,-0.5428,0.6554,0.2028,-0.7180,-0.7740,-0.8060,-0.2816,-0.5728,0.7688,
9.103423,-0.5428,0.6554,0.2028,-0.7180,-0.7740,-0.8060,0.4173,-0.6918,0.3959,
9.107774,-0.5428,0.6554,0.2028,-0.6230,-1.1920,-0.8250,0.4173,-0.6918,0.3959,
9.126066,-0.5428,0.6554,0.2028,-0.1830,-1.7510,0.4230,0.4173,-0.6918,0.3959,
9.143909,-0.6948,0.6347,0.2485,-0.1830,-1.7510,0.4230,0.4173,-0.6918,0.3959,
9.146115,-0.6733,0.5992,0.2499,-0.1830,-1.7510,0.4230,0.4173,-0.6918,0.3959,
9.147881,-0.6733,0.5992,0.2499,-1.6760,-1.1600,-0.0430,0.4173,-0.6918,0.3959,
9.149524,-0.6239,0.5462,0.3769,-1.6760,-1.1600,-0.0430,0.4173,-0.6918,0.3959,
9.151255,-0.7782,0.6063,0.3268,-1.6760,-1.1600,-0.0430,0.4173,-0.6918,0.3959,
9.166330,-0.7782,0.6063,0.3268,-1.6760,-1.1600,-0.0430,0.2754,-0.1099,-0.7591,
9.169941,-0.7782,0.6063,0.3268,-5.1540,0.6210,-2.0340,0.2754,-0.1099,-0.7591,
9.184498,-0.7782,0.6063,0.3268,-2.1890,3.1370,-1.8630,0.2754,-0.1099,-0.7591,
9.207081,-0.7782,0.6063,0.3268,0.9640,4.2790,-0.2220,0.2754,-0.1099,-0.7591,
9.226867,-1.1420,0.7817,0.1220,0.9640,4.2790,-0.2220,0.2754,-0.1099,-0.7591,
9.230124,-0.8490,1.0340,0.1329,0.9640,4.2790,-0.2220,0.2754,-0.1099,-0.7591,
9.234208,-0.5413,1.1449,0.2827,0.9640,4.2790,-0.2220,0.2754,-0.1099,-0.7591,
9.237347,-0.6978,1.1564,0.4335,0.9640,4.2790,-0.2220,0.2754,-0.1099,-0.7591,
9.240526,-0.6978,1.1564,0.4335,0.9640,4.2790,-0.2220,2.0443,0.9252,-1.7042,
9.244121,-0.6978,1.1564,0.4335,-0.3370,4.5030,1.5350,2.0443,0.9252,-1.7042,
9.247259,-0.6978,1.1564,0.4335,-0.0920,4.0000,1.1600,2.0443,0.9252,-1.7042,
9.266240,-0.6978,1.1564,0.4335,2.7540,4.5340,-1.3340,2.0443,0.9252,-1.7042,
9.287755,-0.6978,1.1564,0.4335,2.7540,4.5340,-1.3340,3.0704,0.2982,-1.0781,
9.290964,-0.6978,1.1564,0.4335,5.6740,5.1520,-1.7850,3.0704,0.2982,-1.0781,
9.305513,-0.7024,1.0941,0.3471,5.6740,5.1520,-1.7850,3.0704,0.2982,-1.0781,
9.308288,-0.4364,1.1400,0.0321,5.6740,5.1520,-1.7850,3.0704,0.2982,-1.0781,
9.309951,-0.1566,1.1960,-0.0669,5.6740,5.1520,-1.7850,3.0704,0.2982,-1.0781,
9.311604,-0.3128,1.1994,0.0341,5.6740,5.1520,-1.7850,3.0704,0.2982,-1.0781,
9.313300,-0.3128,1.1994,0.0341,4.2830,5.2830,-0.3610,3.0704,0.2982,-1.0781,
9.327921,-0.3128,1.1994,0.0341,1.7140,4.4380,-1.1050,3.0704,0.2982,-1.0781,
9.345866,-0.3128,1.1994,0.0341,0.8130,3.1210,-2.5790,3.0704,0.2982,-1.0781,
9.368614,-0.3128,1.1994,0.0341,0.8130,3.1210,-2.5790,2.5953,-0.2777,-1.6461,
9.372694,-0.3128,1.1994,0.0341,0.5990,1.1110,-2.7780,2.5953,-0.2777,-1.6461,
9.389560,-0.5911,1.0976,-0.0855,0.5990,1.1110,-2.7780,2.5953,-0.2777,-1.6461,
9.393113,-0.7016,0.9416,-0.2726,0.5990,1.1110,-2.7780,2.5953,-0.2777,-1.6461,
9.395722,-0.7430,0.7092,-0.3218,0.5990,1.1110,-2.7780,2.5953,-0.2777,-1.6461,
9.398878,-0.6574,0.5300,-0.2097,0.5990,1.1110,-2.7780,2.5953,-0.2777,-1.6461,
9.401209,-0.6574,0.5300,-0.2097,1.6220,-0.3750,-1.4320,2.5953,-0.2777,-1.6461,
9.409344,-0.6574,0.5300,-0.2097,2.8230,-1.0420,0.1890,2.5953,-0.2777,-1.6461,
9.426986,-0.6574,0.5300,-0.2097,2.8230,-1.0420,0.1890,0.9903,1.1762,-1.2402,
9.430749,-0.6574,0.5300,-0.2097,2.9440,-1.3560,0.0670,0.9903,1.1762,-1.2402,
9.449581,-0.6574,0.5300,-0.2097,2.7050,-1.5310,-0.4110,0.9903,1.1762,-1.2402,
9.467685,-0.5477,0.4369,-0.0726,2.7050,-1.5310,-0.4110,0.9903,1.1762,-1.2402,
9.471614,-0.5477,0.4369,-0.0726,2.9770,-1.3990,-1.0920,0.9903,1.1762,-1.2402,
9.474872,-0.5462,0.3817,-0.1156,2.9770,-1.3990,-1.0920,0.9903,1.1762,-1.2402,
9.478194,-0.5797,0.3418,-0.1924,2.9770,-1.3990,-1.0920,0.9903,1.1762,-1.2402,
9.481313,-0.5592,0.3355,-0.2822,2.9770,-1.3990,-1.0920,0.9903,1.1762,-1.2402,
9.489653,-0.5592,0.3355,-0.2822,2.9770,-1.3990,-1.0920,0.0543,0.4972,-0.4771,
9.491660,-0.5592,0.3355,-0.2822,3.6440,-1.1920,-0.9840,0.0543,0.4972,-0.4771,
9.509046,-0.5592,0.3355,-0.2822,4.1790,-1.6930,-0.4040,0.0543,0.4972,-0.4771,
9.530344,-0.5592,0.3355,-0.2822,4.6490,-2.2570,-0.6390,0.0543,0.4972,-0.4771,
9.548856,-0.4956,0.3438,-0.2859,4.6490,-2.2570,-0.6390,0.0543,0.4972,-0.4771,
9.553289,-0.4431,0.2864,-0.2330,4.6490,-2.2570,-0.6390,0.0543,0.4972,-0.4771,
9.556865,-0.3947,0.2316,-0.2552,4.6490,-2.2570,-0.6390,0.0543,0.4972,-0.4771,
9.560451,-0.4247,0.2258,-0.2540,4.6490,-2.2570,-0.6390,0.0543,0.4972,-0.4771,
9.564113,-0.4247,0.2258,-0.2540,4.6490,-2.2570,-0.6390,-0.1526,-0.9569,0.7208,
9.568716,-0.4247,0.2258,-0.2540,4.3280,-2.3940,-0.7350,-0.1526,-0.9569,0.7208,
9.571563,-0.4247,0.2258,-0.2540,3.8690,-2.5930,-1.2850,-0.1526,-0.9569,0.7208,
9.589011,-0.4247,0.2258,-0.2540,3.5570,-2.7750,-2.2830,-0.1526,-0.9569,0.7208,
9.610956,-0.4247,0.2258,-0.2540,3.4550,-2.5230,-3.4290,-0.1526,-0.9569,0.7208,
9.629650,-0.4670,0.2185,-0.2913,3.4550,-2.5230,-3.4290,-0.1526,-0.9569,0.7208,
9.635442,-0.4939,0.2172,-0.3679,3.4550,-2.5230,-3.4290,-0.1526,-0.9569,0.7208,
9.638949,-0.4963,0.2637,-0.4529,3.4550,-2.5230,-3.4290,-0.1526,-0.9569,0.7208,
9.642458,-0.8444,0.4516,-0.4744,3.4550,-2.5230,-3.4290,-0.1526,-0.9569,0.7208,
9.646025,-0.8444,0.4516,-0.4744,3.4550,-2.5230,-3.4290,0.0164,-2.0598,1.0328,
9.650919,-0.8444,0.4516,-0.4744,-0.0270,-0.8620,-3.9830,0.0164,-2.0598,1.0328,
9.653357,-0.8444,0.4516,-0.4744,-7.0020,1.7640,-3.0060,0.0164,-2.0598,1.0328,
9.670137,-0.8444,0.4516,-0.4744,-8.2800,2.8130,-1.7670,0.0164,-2.0598,1.0328,
9.692661,-0.8444,0.4516,-0.4744,-8.2800,2.8130,-1.7670,0.2144,-0.3587,-0.6292,
9.695445,-0.8444,0.4516,-0.4744,-3.3460,0.5890,-5.8800,0.2144,-0.3587,-0.6292,
9.710153,-1.5506,0.7297,-0.3490,-3.3460,0.5890,-5.8800,0.2144,-0.3587,-0.6292,
9.712257,-1.6792,0.8399,-0.2070,-3.3460,0.5890,-5.8800,0.2144,-0.3587,-0.6292,
9.714087,-1.1806,0.6072,-0.6193,-3.3460,0.5890,-5.8800,0.2144,-0.3587,-0.6292,
9.716677,-1.0152,0.4230,-0.8676,-3.3460,0.5890,-5.8800,0.2144,-0.3587,-0.6292,
9.718196,-1.0152,0.4230,-0.8676,-1.6420,-1.0810,-8.3960,0.2144,-0.3587,-0.6292,
9.732886,-1.0152,0.4230,-0.8676,-1.9640,-0.4170,-3.1880,0.2144,-0.3587,-0.6292,
9.750853,-1.0152,0.4230,-0.8676,-1.9640,-0.4170,-3.1880,0.0773,-2.2978,1.5928,
9.754601,-1.0152,0.4230,-0.8676,-2.0370,7.1520,-3.1590,0.0773,-2.2978,1.5928,
9.773933,-1.0152,0.4230,-0.8676,0.8180,16.6120,3.7100,0.0773,-2.2978,1.5928,
9.792616,-1.0516,0.4856,-0.3199,0.8180,16.6120,3.7100,0.0773,-2.2978,1.5928,
9.794763,-1.0489,1.2737,-0.2989,0.8180,16.6120,3.7100,0.0773,-2.2978,1.5928,
9.796498,-0.7361,2.2676,0.4437,0.8180,16.6120,3.7100,0.0773,-2.2978,1.5928,
9.798225,0.1835,1.6284,0.2311,0.8180,16.6120,3.7100,0.0773,-2.2978,1.5928,
9.799814,0.1835,1.6284,0.2311,9.6810,10.1690,1.4790,0.0773,-2.2978,1.5928,
9.813679,0.1835,1.6284,0.2311,9.6810,10.1690,1.4790,0.5444,-1.2028,0.6948,
9.817964,0.1835,1.6284,0.2311,5.4000,-4.1540,1.1300,0.5444,-1.2028,0.6948,
9.832495,0.1835,1.6284,0.2311,7.0700,-5.3910,1.9410,0.5444,-1.2028,0.6948,
9.854902,0.1835,1.6284,0.2311,7.3510,1.6790,0.4030,0.5444,-1.2028,0.6948,
9.872395,-0.2530,0.1647,0.2122,7.3510,1.6790,0.4030,0.5444,-1.2028,0.6948,
9.875005,-0.0718,0.0518,0.3068,7.3510,1.6790,0.4030,0.5444,-1.2028,0.6948,
9.876663,-0.0240,0.7952,0.1590,7.3510,1.6790,0.4030,0.5444,-1.2028,0.6948,
9.878230,-0.5855,1.1291,0.5873,7.3510,1.6790,0.4030,0.5444,-1.2028,0.6948,
9.879905,-0.5855,1.1291,0.5873,1.6700,4.7860,4.3340,0.5444,-1.2028,0.6948,
9.894586,-0.5855,1.1291,0.5873,1.6700,4.7860,4.3340,1.2144,-3.4958,0.3058,
9.896756,-0.5855,1.1291,0.5873,-1.2250,1.4770,5.0990,1.2144,-3.4958,0.3058,
9.912552,-0.5855,1.1291,0.5873,-1.9470,-1.9500,0.7080,1.2144,-3.4958,0.3058,
9.936104,-0.5855,1.1291,0.5873,-0.9110,-1.1990,-7.3140,1.2144,-3.4958,0.3058,
9.953230,-0.8646,0.8011,0.7013,-0.9110,-1.1990,-7.3140,1.2144,-3.4958,0.3058,
9.956673,-0.9231,0.4580,0.2881,-0.9110,-1.1990,-7.3140,1.2144,-3.4958,0.3058,
9.959468,-0.8060,0.5413,-0.5120,-0.9110,-1.1990,-7.3140,1.2144,-3.4958,0.3058,
9.962235,-0.6063,0.7202,-0.0174,-0.9110,-1.1990,-7.3140,1.2144,-3.4958,0.3058,
9.964968,-0.6063,0.7202,-0.0174,-0.9110,-1.1990,-7.3140,0.1154,-0.8228,0.2468,
9.967687,-0.6063,0.7202,-0.0174,0.9510,0.5080,-2.5800,0.1154,-0.8228,0.2468,
9.975161,-0.6063,0.7202,-0.0174,0.9860,-0.8020,3.5440,0.1154,-0.8228,0.2468,
9.993522,-0.6063,0.7202,-0.0174,0.0660,-2.0270,0.8170,0.1154,-0.8228,0.2468,
10.016081,-0.6063,0.7202,-0.0174,0.0660,-2.0270,0.8170,0.9563,-1.5757,0.1088,
10.020502,-0.6063,0.7202,-0.0174,-0.8140,-0.8610,-3.0810,0.9563,-1.5757,0.1088,
10.034105,-0.5951,0.5911,0.6173,-0.8140,-0.8610,-3.0810,0.9563,-1.5757,0.1088,
10.036886,-0.6804,0.4716,0.3496,-0.8140,-0.8610,-3.0810,0.9563,-1.5757,0.1088,
10.038758,-0.7591,0.5965,-0.0389,-0.8140,-0.8610,-3.0810,0.9563,-1.5757,0.1088,
10.041110,-0.7244,0.7024,-0.0494,-0.8140,-0.8610,-3.0810,0.9563,-1.5757,0.1088,
10.043807,-0.7244,0.7024,-0.0494,-0.5690,0.1070,-3.2560,0.9563,-1.5757,0.1088,
10.056424,-0.7244,0.7024,-0.0494,-0.0430,-0.7470,-1.0660,0.9563,-1.5757,0.1088,
10.075972,-0.7244,0.7024,-0.0494,-0.0430,-0.7470,-1.0660,0.6583,-1.1608,0.0858,
10.077957,-0.7244,0.7024,-0.0494,-0.3000,-1.3220,-1.0660,0.6583,-1.1608,0.0858,
10.097279,-0.7244,0.7024,-0.0494,-0.9780,-1.3440,-2.3750,0.6583,-1.1608,0.0858,
10.116329,-0.6623,0.6221,0.1795,-0.9780,-1.3440,-2.3750,0.6583,-1.1608,0.0858,
10.120566,-0.6808,0.5692,0.1835,-0.9780,-1.3440,-2.3750,0.6583,-1.1608,0.0858,
10.123654,-0.7412,0.5716,0.0558,-0.9780,-1.3440,-2.3750,0.6583,-1.1608,0.0858,
10.127467,-0.7129,0.5974,0.0048,-0.9780,-1.3440,-2.3750,0.6583,-1.1608,0.0858,
10.130634,-0.7129,0.5974,0.0048,-0.7690,-1.1460,-2.9290,0.6583,-1.1608,0.0858,
10.137644,-0.7129,0.5974,0.0048,-0.5170,-1.1990,-2.4010,0.6583,-1.1608,0.0858,
10.156513,-0.7129,0.5974,0.0048,-0.5170,-1.1990,-2.4010,0.3623,-0.7088,0.3568,
10.161226,-0.7129,0.5974,0.0048,-0.6480,-1.1260,-2.1200,0.3623,-0.7088,0.3568,
10.178059,-0.7129,0.5974,0.0048,-0.8600,-1.4480,-2.0880,0.3623,-0.7088,0.3568,
10.196027,-0.6789,0.5974,0.0623,-0.8600,-1.4480,-2.0880,0.3623,-0.7088,0.3568,
10.200829,-0.6825,0.6112,0.0940,-0.8600,-1.4480,-2.0880,0.3623,-0.7088,0.3568,
10.204283,-0.6923,0.5855,0.1018,-0.8600,-1.4480,-2.0880,0.3623,-0.7088,0.3568,
10.207557,-0.7547,0.6075,0.1120,-0.8600,-1.4480,-2.0880,0.3623,-0.7088,0.3568,
10.210793,-0.7547,0.6075,0.1120,-1.4500,-1.2490,-1.9040,0.3623,-0.7088,0.3568,
10.219113,-0.7547,0.6075,0.1120,-1.4500,-1.2490,-1.9040,0.3314,-0.6838,0.4408,
10.222098,-0.7547,0.6075,0.1120,-1.8340,-1.6220,-1.2630,0.3314,-0.6838,0.4408,
10.237695,-0.7547,0.6075,0.1120,-1.2930,-2.6280,-0.1110,0.3314,-0.6838,0.4408,
10.259958,-0.7547,0.6075,0.1120,-1.7490,-2.7100,0.2920,0.3314,-0.6838,0.4408,
10.277724,-0.7838,0.5775,0.1810,-1.7490,-2.7100,0.2920,0.3314,-0.6838,0.4408,
10.279959,-0.7192,0.4811,0.2993,-1.7490,-2.7100,0.2920,0.3314,-0.6838,0.4408,
10.281788,-0.7622,0.4778,0.3366,-1.7490,-2.7100,0.2920,0.3314,-0.6838,0.4408,
10.283591,-0.8670,0.5794,0.2658,-1.7490,-2.7100,0.2920,0.3314,-0.6838,0.4408,
10.285209,-0.8670,0.5794,0.2658,-1.7490,-2.7100,0.2920,0.6284,-0.1958,-0.4122,
10.286797,-0.8670,0.5794,0.2658,-2.7530,-1.7270,-0.3380,0.6284,-0.1958,-0.4122,
10.299999,-0.8670,0.5794,0.2658,-2.3970,-0.2050,-1.1050,0.6284,-0.1958,-0.4122,
10.317644,-0.8670,0.5794,0.2658,-1.2910,1.2520,0.6480,0.6284,-0.1958,-0.4122,
10.340231,-0.8670,0.5794,0.2658,-1.2910,1.2520,0.6480,2.0563,0.8162,-1.9172,
10.345279,-0.8670,0.5794,0.2658,-0.7770,4.2740,2.0770,2.0563,0.8162,-1.9172,
10.359234,-0.8380,0.7316,0.1800,-0.7770,4.2740,2.0770,2.0563,0.8162,-1.9172,
10.363014,-0.7390,0.8744,0.3445,-0.7770,4.2740,2.0770,2.0563,0.8162,-1.9172,
10.365719,-0.7090,1.1740,0.4620,-0.7770,4.2740,2.0770,2.0563,0.8162,-1.9172,
10.367696,-0.7090,1.1740,0.4620,-0.4640,7.1840,1.3550,2.0563,0.8162,-1.9172,
10.369782,-0.7097,1.4560,0.3450,-0.4640,7.1840,1.3550,2.0563,0.8162,-1.9172,
10.380012,-0.7097,1.4560,0.3450,1.5990,6.3180,-4.4090,2.0563,0.8162,-1.9172,
10.399412,-0.7097,1.4560,0.3450,3.8590,4.7090,-3.7130,2.0563,0.8162,-1.9172,
10.420228,-0.7097,1.4560,0.3450,3.8590,4.7090,-3.7130,2.9274,0.7362,-0.6402,
10.422803,-0.7097,1.4560,0.3450,4.6930,3.9510,3.1120,2.9274,0.7362,-0.6402,
10.439418,-0.5286,1.3544,-0.3065,4.6930,3.9510,3.1120,2.9274,0.7362,-0.6402,
10.442005,-0.3164,1.1826,-0.2952,4.6930,3.9510,3.1120,2.9274,0.7362,-0.6402,
10.443810,-0.2416,1.0983,0.3510,4.6930,3.9510,3.1120,2.9274,0.7362,-0.6402,
10.445564,-0.6975,1.1053,0.3323,4.6930,3.9510,3.1120,2.9274,0.7362,-0.6402,
10.447277,-0.6975,1.1053,0.3323,0.3480,4.1430,3.4590,2.9274,0.7362,-0.6402,
10.461598,-0.6975,1.1053,0.3323,-3.1120,2.7520,-1.5620,2.9274,0.7362,-0.6402,
10.479419,-0.6975,1.1053,0.3323,-3.1120,2.7520,-1.5620,2.7364,-0.1347,-1.2843,
10.483929,-0.6975,1.1053,0.3323,-1.5270,0.6660,-5.6010,2.7364,-0.1347,-1.2843,
10.503335,-0.6975,1.1053,0.3323,1.2720,-0.8300,-2.6780,2.7364,-0.1347,-1.2843,
10.520823,-1.0648,0.9436,-0.2374,1.2720,-0.8300,-2.6780,2.7364,-0.1347,-1.2843,
10.523818,-0.9189,0.7048,-0.6911,1.2720,-0.8300,-2.6780,2.7364,-0.1347,-1.2843,
10.526799,-0.6515,0.5256,-0.4163,1.2720,-0.8300,-2.6780,2.7364,-0.1347,-1.2843,
10.529630,-0.4881,0.3490,-0.0669,1.2720,-0.8300,-2.6780,2.7364,-0.1347,-1.2843,
10.532575,-0.4881,0.3490,-0.0669,3.0070,-2.3270,0.9260,2.7364,-0.1347,-1.2843,
10.540941,-0.4881,0.3490,-0.0669,3.0070,-2.3270,0.9260,0.7784,0.4632,-0.7893,
10.542574,-0.4881,0.3490,-0.0669,4.5030,-3.6970,1.3130,0.7784,0.4632,-0.7893,
10.561027,-0.4881,0.3490,-0.0669,4.7010,-4.5580,0.5200,0.7784,0.4632,-0.7893,
10.582228,-0.4881,0.3490,-0.0669,4.2310,-4.9250,0.6930,0.7784,0.4632,-0.7893,
10.601605,-0.3458,0.1906,-0.0464,4.2310,-4.9250,0.6930,0.7784,0.4632,-0.7893,
10.603941,-0.3321,0.0902,-0.1405,4.2310,-4.9250,0.6930,0.7784,0.4632,-0.7893,
10.605579,-0.3825,0.0450,-0.1288,4.2310,-4.9250,0.6930,0.7784,0.4632,-0.7893,
10.608161,-0.3077,0.0331,-0.0911,4.2310,-4.9250,0.6930,0.7784,0.4632,-0.7893,
10.610903,-0.3077,0.0331,-0.0911,4.2310,-4.9250,0.6930,0.4184,-0.8649,0.5268,
10.613394,-0.3077,0.0331,-0.0911,4.9680,-5.0560,1.0350,0.4184,-0.8649,0.5268,
10.622599,-0.3077,0.0331,-0.0911,5.6210,-4.5860,0.0210,0.4184,-0.8649,0.5268,
10.642729,-0.3077,0.0331,-0.0911,5.5920,-3.9210,-1.2720,0.4184,-0.8649,0.5268,
10.663141,-0.3077,0.0331,-0.0911,4.3650,-4.0970,-2.2240,0.4184,-0.8649,0.5268,
10.683223,-0.2381,0.0886,-0.1845,4.3650,-4.0970,-2.2240,0.4184,-0.8649,0.5268,
10.685565,-0.2339,0.1722,-0.2996,4.3650,-4.0970,-2.2240,0.4184,-0.8649,0.5268,
10.687148,-0.2339,0.1722,-0.2996,4.3650,-4.0970,-2.2240,-0.3586,-1.3288,1.3678,
10.688766,-0.2339,0.1722,-0.2996,2.6730,-4.4240,-2.2290,-0.3586,-1.3288,1.3678,
10.691203,-0.3485,0.1745,-0.3768,2.6730,-4.4240,-2.2290,-0.3586,-1.3288,1.3678,
10.694089,-0.5081,0.1635,-0.3542,2.6730,-4.4240,-2.2290,-0.3586,-1.3288,1.3678,
10.703983,-0.5081,0.1635,-0.3542,0.8890,-4.5000,-0.9450,-0.3586,-1.3288,1.3678,
10.723119,-0.5081,0.1635,-0.3542,-0.3910,-3.8460,-0.6930,-0.3586,-1.3288,1.3678,
10.744022,-0.5081,0.1635,-0.3542,-0.3910,-3.8460,-0.6930,-0.3207,-0.7549,1.1778,
10.745978,-0.5081,0.1635,-0.3542,0.4890,-1.5150,-3.0570,-0.3207,-0.7549,1.1778,
10.763811,-0.6774,0.1764,-0.1955,0.4890,-1.5150,-3.0570,-0.3207,-0.7549,1.1778,
10.767065,-0.7955,0.2602,-0.1466,0.4890,-1.5150,-3.0570,-0.3207,-0.7549,1.1778,
10.768327,-0.6916,0.5161,-0.3715,0.4890,-1.5150,-3.0570,-0.3207,-0.7549,1.1778,
10.769105,-0.5487,0.9565,-0.3434,0.4890,-1.5150,-3.0570,-0.3207,-0.7549,1.1778,
10.770008,-0.5487,0.9565,-0.3434,1.7530,2.6370,-3.0000,-0.3207,-0.7549,1.1778,
10.784293,-0.5487,0.9565,-0.3434,2.8100,5.1920,-0.0800,-0.3207,-0.7549,1.1778,
10.805262,-0.5487,0.9565,-0.3434,2.8100,5.1920,-0.0800,0.1683,-0.3128,0.3959,
10.807738,-0.5487,0.9565,-0.3434,4.5980,1.3530,-1.6540,0.1683,-0.3128,0.3959,
10.825036,-0.5487,0.9565,-0.3434,5.8190,-5.2830,-2.4670,0.1683,-0.3128,0.3959,
10.844282,-0.4306,1.2293,-0.0218,5.8190,-5.2830,-2.4670,0.1683,-0.3128,0.3959,
10.846118,-0.2412,0.8448,-0.1723,5.8190,-5.2830,-2.4670,0.1683,-0.3128,0.3959,
10.847755,-0.1125,0.1717,-0.2554,5.8190,-5.2830,-2.4670,0.1683,-0.3128,0.3959,
10.850136,-0.2693,-0.0547,0.0092,5.8190,-5.2830,-2.4670,0.1683,-0.3128,0.3959,
10.851820,-0.2693,-0.0547,0.0092,4.2640,-7.5050,0.1310,0.1683,-0.3128,0.3959,
10.866129,-0.2693,-0.0547,0.0092,4.2640,-7.5050,0.1310,-0.1536,-1.8177,-0.4312,
10.869708,-0.2693,-0.0547,0.0092,0.6040,-4.1240,3.0950,-0.1536,-1.8177,-0.4312,
10.883940,-0.2693,-0.0547,0.0092,-3.3000,3.0220,8.4880,-0.1536,-1.8177,-0.4312,
10.904969,-0.2693,-0.0547,0.0092,-8.5930,5.0100,6.5390,-0.1536,-1.8177,-0.4312,
10.925354,-0.6440,0.2903,0.3184,-8.5930,5.0100,6.5390,-0.1536,-1.8177,-0.4312,
10.927803,-1.0492,1.0119,0.8960,-8.5930,5.0100,6.5390,-0.1536,-1.8177,-0.4312,
10.929446,-1.6012,1.2011,0.7057,-8.5930,5.0100,6.5390,-0.1536,-1.8177,-0.4312,
10.931009,-2.9777,0.8429,-1.8530,-8.5930,5.0100,6.5390,-0.1536,-1.8177,-0.4312,
10.933513,-2.9777,0.8429,-1.8530,-21.8240,1.7650,-18.3810,-0.1536,-1.8177,-0.4312,
10.945968,-2.9777,0.8429,-1.8530,-21.8240,1.7650,-18.3810,-0.2676,0.9672,0.1048,
10.947690,-2.9777,0.8429,-1.8530,-5.1690,-0.7390,-2.3700,-0.2676,0.9672,0.1048,
10.965805,-2.9777,0.8429,-1.8530,3.9160,-1.1840,7.3700,-0.2676,0.9672,0.1048,
10.986961,-2.9777,0.8429,-1.8530,-1.7030,1.3230,-1.5790,-0.2676,0.9672,0.1048,
11.006081,-1.2818,0.5836,-0.2283,-1.7030,1.3230,-1.5790,-0.2676,0.9672,0.1048,
11.008793,-0.3483,0.5459,0.7429,-1.7030,1.3230,-1.5790,-0.2676,0.9672,0.1048,
11.011006,-0.9126,0.8108,-0.1943,-1.7030,1.3230,-1.5790,-0.2676,0.9672,0.1048,
11.012873,-1.2771,0.8328,-0.4570,-1.7030,1.3230,-1.5790,-0.2676,0.9672,0.1048,
11.014555,-1.2771,0.8328,-0.4570,-1.7030,1.3230,-1.5790,0.0854,-0.4998,0.4168,
11.016959,-1.2771,0.8328,-0.4570,-5.3510,1.4580,-4.1150,0.0854,-0.4998,0.4168,
11.027314,-1.2771,0.8328,-0.4570,-7.1200,-3.2860,2.3750,0.0854,-0.4998,0.4168,
11.047024,-1.2771,0.8328,-0.4570,-2.1000,-4.8470,2.8660,0.0854,-0.4998,0.4168,
11.067671,-1.2771,0.8328,-0.4570,-2.1000,-4.8470,2.8660,1.2284,1.3922,-0.7092,
11.071200,-1.2771,0.8328,-0.4570,3.4240,-3.1260,1.2360,1.2284,1.3922,-0.7092,
11.087321,-1.4527,0.3534,0.2171,3.4240,-3.1260,1.2360,1.2284,1.3922,-0.7092,
11.089126,-0.9389,0.1969,0.2707,3.4240,-3.1260,1.2360,1.2284,1.3922,-0.7092,
11.090767,-0.3798,0.3668,0.0879,3.4240,-3.1260,1.2360,1.2284,1.3922,-0.7092,
11.092221,-0.0058,0.5391,-0.3262,3.4240,-3.1260,1.2360,1.2284,1.3922,-0.7092,
11.093660,-0.0058,0.5391,-0.3262,7.1660,-1.3090,-2.3370,1.2284,1.3922,-0.7092,
11.108120,-0.0058,0.5391,-0.3262,7.7980,-1.1370,-0.2760,1.2284,1.3922,-0.7092,
11.127879,-0.0058,0.5391,-0.3262,7.7980,-1.1370,-0.2760,1.0714,2.1741,-1.0601,
11.129809,-0.0058,0.5391,-0.3262,6.2080,-1.1970,3.5440,1.0714,2.1741,-1.0601,
11.150706,-0.0058,0.5391,-0.3262,7.4360,-1.1900,8.4880,1.0714,2.1741,-1.0601,
11.168213,0.0538,0.5369,-0.1826,7.4360,-1.1900,8.4880,1.0714,2.1741,-1.0601,
11.170242,-0.1129,0.5079,0.1429,7.4360,-1.1900,8.4880,1.0714,2.1741,-1.0601,
11.172074,0.0103,0.4878,0.6011,7.4360,-1.1900,8.4880,1.0714,2.1741,-1.0601,
11.174646,-0.1976,0.6689,0.3232,7.4360,-1.1900,8.4880,1.0714,2.1741,-1.0601,
11.177670,-0.1976,0.6689,0.3232,5.4760,0.8760,6.1660,1.0714,2.1741,-1.0601,
11.189164,-0.1976,0.6689,0.3232,-1.5740,5.2540,-6.7860,1.0714,2.1741,-1.0601,
11.208503,-0.1976,0.6689,0.3232,-1.5740,5.2540,-6.7860,0.6234,-1.8718,-0.9983,
11.210559,-0.1976,0.6689,0.3232,-4.3300,4.1180,-11.9270,0.6234,-1.8718,-0.9983,
11.229854,-0.1976,0.6689,0.3232,-0.5980,-2.1750,-6.3520,0.6234,-1.8718,-0.9983,
11.249198,-0.9360,1.0811,-1.0184,-0.5980,-2.1750,-6.3520,0.6234,-1.8718,-0.9983,
11.252933,-1.2398,0.9420,-1.5245,-0.5980,-2.1750,-6.3520,0.6234,-1.8718,-0.9983,
11.255818,-0.8726,0.2952,-0.9274,-0.5980,-2.1750,-6.3520,0.6234,-1.8718,-0.9983,
11.258790,-0.9541,-0.1777,-0.2903,-0.5980,-2.1750,-6.3520,0.6234,-1.8718,-0.9983,
11.261700,-0.9541,-0.1777,-0.2903,-1.3520,-6.8750,-0.4170,0.6234,-1.8718,-0.9983,
11.269641,-0.9541,-0.1777,-0.2903,-1.3520,-6.8750,-0.4170,-1.0556,-1.1158,1.6378,
11.271343,-0.9541,-0.1777,-0.2903,-1.7960,-7.5590,0.0370,-1.0556,-1.1158,1.6378,
11.289482,-0.9541,-0.1777,-0.2903,-1.0860,-3.5400,-1.8460,-1.0556,-1.1158,1.6378,
11.310881,-0.9541,-0.1777,-0.2903,-0.7650,2.3180,-2.8680,-1.0556,-1.1158,1.6378,
11.330423,-0.9914,-0.2213,-0.2114,-0.7650,2.3180,-2.8680,-1.0556,-1.1158,1.6378,
11.333470,-0.9914,-0.2213,-0.2114,-0.7650,2.3180,-2.8680,-0.8106,-1.6948,1.5757,
11.335130,-0.9914,-0.2213,-0.2114,1.3420,6.1820,-3.2030,-0.8106,-1.6948,1.5757,
11.336676,-0.9005,0.2278,-0.3742,1.3420,6.1820,-3.2030,-0.8106,-1.6948,1.5757,
11.338177,-0.8404,0.8674,-0.4483,1.3420,6.1820,-3.2030,-0.8106,-1.6948,1.5757,
11.339795,-0.6014,1.2980,-0.4467,1.3420,6.1820,-3.2030,-0.8106,-1.6948,1.5757,
11.350977,-0.6014,1.2980,-0.4467,5.9070,0.9930,-3.1790,-0.8106,-1.6948,1.5757,
11.370349,-0.6014,1.2980,-0.4467,7.9130,-6.6400,0.4930,-0.8106,-1.6948,1.5757,
11.391721,-0.6014,1.2980,-0.4467,7.9130,-6.6400,0.4930,-1.0156,-0.5499,0.3348,
11.395262,-0.6014,1.2980,-0.4467,10.4800,-8.4630,6.6710,-1.0156,-0.5499,0.3348,
11.410988,-0.1200,0.7886,-0.4144,10.4800,-8.4630,6.6710,-1.0156,-0.5499,0.3348,
11.414608,0.0989,0.0257,-0.0225,10.4800,-8.4630,6.6710,-1.0156,-0.5499,0.3348,
11.417578,0.3760,-0.1446,0.6321,10.4800,-8.4630,6.6710,-1.0156,-0.5499,0.3348,
11.420061,0.1703,-0.0738,0.7506,10.4800,-8.4630,6.6710,-1.0156,-0.5499,0.3348,
11.422439,0.1703,-0.0738,0.7506,8.4460,-7.7950,7.6560,-1.0156,-0.5499,0.3348,
11.433202,0.1703,-0.0738,0.7506,-0.6170,-1.9670,3.9900,-1.0156,-0.5499,0.3348,
11.451382,0.1703,-0.0738,0.7506,-15.1260,8.0330,-0.3550,-1.0156,-0.5499,0.3348,
11.472603,0.1703,-0.0738,0.7506,-15.1260,8.0330,-0.3550,2.5204,-2.3679,-1.3491,
11.476241,0.1703,-0.0738,0.7506,-25.0180,9.1270,-3.6930,2.5204,-2.3679,-1.3491,
11.492310,-0.7693,0.5100,0.3926,-25.0180,9.1270,-3.6930,2.5204,-2.3679,-1.3491,
11.494241,-2.2750,1.5040,-0.0494,-25.0180,9.1270,-3.6930,2.5204,-2.3679,-1.3491,
11.495905,-3.3061,1.5926,-0.3901,-25.0180,9.1270,-3.6930,2.5204,-2.3679,-1.3491,
11.497438,-1.4213,0.4423,-0.3881,-25.0180,9.1270,-3.6930,2.5204,-2.3679,-1.3491,
11.499165,-1.4213,0.4423,-0.3881,-6.5580,-2.1410,-3.5020,2.5204,-2.3679,-1.3491,
11.512530,-1.4213,0.4423,-0.3881,-1.0800,-4.1410,2.2030,2.5204,-2.3679,-1.3491,
11.532836,-1.4213,0.4423,-0.3881,-1.0800,-4.1410,2.2030,0.5123,1.0512,0.2199,
11.536158,-1.4213,0.4423,-0.3881,-2.2830,0.0350,1.4860,0.5123,1.0512,0.2199,
11.553409,-1.4213,0.4423,-0.3881,0.3680,0.0710,1.5990,0.5123,1.0512,0.2199,
11.573266,-0.8521,0.2470,0.1604,0.3680,0.0710,1.5990,0.5123,1.0512,0.2199,
11.576677,-0.9680,0.6769,0.0576,0.3680,0.0710,1.5990,0.5123,1.0512,0.2199,
11.579438,-0.6994,0.6764,0.0534,0.3680,0.0710,1.5990,0.5123,1.0512,0.2199,
11.583571,-0.4875,0.3033,0.1737,0.3680,0.0710,1.5990,0.5123,1.0512,0.2199,
11.586535,-0.4875,0.3033,0.1737,2.5540,-3.4310,2.9530,0.5123,1.0512,0.2199,
11.593313,-0.4875,0.3033,0.1737,2.5540,-3.4310,2.9530,1.5863,2.6361,-1.1771,
11.594824,-0.4875,0.3033,0.1737,5.3120,-4.5750,2.8190,1.5863,2.6361,-1.1771,
11.613378,-0.4875,0.3033,0.1737,7.2590,-2.5930,-0.8740,1.5863,2.6361,-1.1771,
11.634170,-0.4875,0.3033,0.1737,6.9240,-0.8770,0.9800,1.5863,2.6361,-1.1771,
11.654888,-0.2167,0.1654,0.1213,6.9240,-0.8770,0.9800,1.5863,2.6361,-1.1771,
11.658753,-0.2167,0.1654,0.1213,6.9240,-0.8770,0.9800,0.9563,1.2792,-1.5221,
11.661548,-0.0203,0.3441,-0.3216,6.9240,-0.8770,0.9800,0.9563,1.2792,-1.5221,
11.664447,-0.0554,0.4927,-0.1909,6.9240,-0.8770,0.9800,0.9563,1.2792,-1.5221,
11.668540,-0.1295,0.4392,0.2723,6.9240,-0.8770,0.9800,0.9563,1.2792,-1.5221,
11.671233,-0.1295,0.4392,0.2723,6.2210,-1.1410,5.9080,0.9563,1.2792,-1.5221,
11.674942,-0.1295,0.4392,0.2723,5.3770,0.1360,3.0170,0.9563,1.2792,-1.5221,
11.694597,-0.1295,0.4392,0.2723,-1.6370,3.5100,-4.0560,0.9563,1.2792,-1.5221,
11.716588,-0.1295,0.4392,0.2723,-7.6430,4.3250,-6.0970,0.9563,1.2792,-1.5221,
11.734847,-0.2241,0.5381,-0.0531,-7.6430,4.3250,-6.0970,0.9563,1.2792,-1.5221,
11.736842,-0.9565,0.8524,-0.7815,-7.6430,4.3250,-6.0970,0.9563,1.2792,-1.5221,
11.738501,-1.5907,0.9164,-0.9693,-7.6430,4.3250,-6.0970,0.9563,1.2792,-1.5221,
11.740511,-1.5460,0.7131,-1.4842,-7.6430,4.3250,-6.0970,0.9563,1.2792,-1.5221,
11.742839,-1.5460,0.7131,-1.4842,-7.6430,4.3250,-6.0970,-0.6416,-1.2438,0.0998,
11.744949,-1.5460,0.7131,-1.4842,-7.1130,2.3160,-11.3960,-0.6416,-1.2438,0.0998,
11.755602,-1.5460,0.7131,-1.4842,-6.1430,-0.9620,-8.4390,-0.6416,-1.2438,0.0998,
11.775209,-1.5460,0.7131,-1.4842,-5.1970,-2.9350,-1.9380,-0.6416,-1.2438,0.0998,
11.796720,-1.5460,0.7131,-1.4842,-5.1970,-2.9350,-1.9380,-1.0757,-2.3478,2.6118,
11.798954,-1.5460,0.7131,-1.4842,-2.6010,-1.2390,-1.0280,-1.0757,-2.3478,2.6118,
11.816859,-1.4470,0.4024,-1.1431,-2.6010,-1.2390,-1.0280,-1.0757,-2.3478,2.6118,
11.820807,-1.3439,0.2390,-0.4292,-2.6010,-1.2390,-1.0280,-1.0757,-2.3478,2.6118,
11.823829,-1.0616,0.4557,-0.2847,-2.6010,-1.2390,-1.0280,-1.0757,-2.3478,2.6118,
11.826852,-0.5217,0.7962,-0.1540,-2.6010,-1.2390,-1.0280,-1.0757,-2.3478,2.6118,
11.829735,-0.5217,0.7962,-0.1540,2.4160,1.6320,-0.2210,-1.0757,-2.3478,2.6118,
11.837679,-0.5217,0.7962,-0.1540,8.6940,-0.3750,1.4880,-1.0757,-2.3478,2.6118,
11.856603,-0.5217,0.7962,-0.1540,8.6940,-0.3750,1.4880,-1.0036,0.2552,1.0819,
11.861828,-0.5217,0.7962,-0.1540,8.4020,-7.7730,-1.0810,-1.0036,0.2552,1.0819,
11.876747,-0.5217,0.7962,-0.1540,8.7800,-10.8010,-1.8840,-1.0036,0.2552,1.0819,
11.896614,0.1436,0.6258,0.0675,8.7800,-10.8010,-1.8840,-1.0036,0.2552,1.0819,
11.901316,0.1292,-0.1123,-0.1745,8.7800,-10.8010,-1.8840,-1.0036,0.2552,1.0819,
11.904511,0.1840,-0.4024,-0.2471,8.7800,-10.8010,-1.8840,-1.0036,0.2552,1.0819,
11.907350,0.3621,-0.1190,0.4293,8.7800,-10.8010,-1.8840,-1.0036,0.2552,1.0819,
11.908896,0.3621,-0.1190,0.4293,10.3320,-8.2140,4.6890,-1.0036,0.2552,1.0819,
11.918185,0.3621,-0.1190,0.4293,10.3320,-8.2140,4.6890,0.1034,-0.7109,-0.3212,
11.920696,0.3621,-0.1190,0.4293,7.0390,-2.8900,7.0180,0.1034,-0.7109,-0.3212,
11.937609,0.3621,-0.1190,0.4293,2.3990,-0.6630,6.0430,0.1034,-0.7109,-0.3212,
11.958902,0.3621,-0.1190,0.4293,-2.5650,3.8510,3.1420,0.1034,-0.7109,-0.3212,
11.978068,0.0354,0.4343,0.6597,-2.5650,3.8510,3.1420,0.1034,-0.7109,-0.3212,
11.983601,-0.4453,0.6574,0.5715,-2.5650,3.8510,3.1420,0.1034,-0.7109,-0.3212,
11.986784,-0.9660,1.1037,0.2974,-2.5650,3.8510,3.1420,0.1034,-0.7109,-0.3212,
11.989913,-3.2399,1.6713,0.3596,-2.5650,3.8510,3.1420,0.1034,-0.7109,-0.3212,
11.993128,-3.2399,1.6713,0.3596,-24.5170,9.7500,3.6850,0.1034,-0.7109,-0.3212,
11.999943,-3.2399,1.6713,0.3596,-24.5170,9.7500,3.6850,3.6754,-2.8528,-0.5431,
12.003930,-3.2399,1.6713,0.3596,-21.5930,0.5290,-9.1310,3.6754,-2.8528,-0.5431,
12.018653,-3.2399,1.6713,0.3596,-3.2920,-7.2930,-5.6070,3.6754,-2.8528,-0.5431,
12.039079,-3.2399,1.6713,0.3596,-1.5760,-5.5330,0.2610,3.6754,-2.8528,-0.5431,
12.058552,-2.9566,0.7131,-0.9527,-1.5760,-5.5330,0.2610,3.6754,-2.8528,-0.5431,
12.061746,-1.0834,-0.0796,-0.6142,-1.5760,-5.5330,0.2610,3.6754,-2.8528,-0.5431,
12.064462,-0.9030,0.1042,-0.0418,-1.5760,-5.5330,0.2610,3.6754,-2.8528,-0.5431,
12.067251,-0.8221,0.6242,0.2767,-1.5760,-5.5330,0.2610,3.6754,-2.8528,-0.5431,
12.069763,-0.8221,0.6242,0.2767,-1.5760,-5.5330,0.2610,-0.0887,2.4861,-0.9482,
12.072342,-0.8221,0.6242,0.2767,-0.7490,-0.3590,3.6850,-0.0887,2.4861,-0.9482,
12.078775,-0.8221,0.6242,0.2767,2.6570,-0.5070,7.1680,-0.0887,2.4861,-0.9482,
12.099540,-0.8221,0.6242,0.2767,6.3310,-0.1080,4.3430,-0.0887,2.4861,-0.9482,
12.121011,-0.8221,0.6242,0.2767,6.3310,-0.1080,4.3430,1.2793,2.4142,-1.9172,
12.124463,-0.8221,0.6242,0.2767,9.6210,-0.0320,-1.3820,1.2793,2.4142,-1.9172,
12.139925,-0.4844,0.5899,0.5891,9.6210,-0.0320,-1.3820,1.2793,2.4142,-1.9172,
12.142892,-0.1146,0.6019,0.2250,9.6210,-0.0320,-1.3820,1.2793,2.4142,-1.9172,
12.145229,0.2201,0.5767,-0.4343,9.6210,-0.0320,-1.3820,1.2793,2.4142,-1.9172,
12.147664,-0.0386,0.4606,-0.1542,9.6210,-0.0320,-1.3820,1.2793,2.4142,-1.9172,
12.151205,-0.0386,0.4606,-0.1542,7.1870,-0.7990,1.8040,1.2793,2.4142,-1.9172,
12.160555,-0.0386,0.4606,-0.1542,2.9710,0.9170,1.4120,1.2793,2.4142,-1.9172,
12.180584,-0.0386,0.4606,-0.1542,2.9710,0.9170,1.4120,-0.0936,-1.2988,-0.3642,
12.185670,-0.0386,0.4606,-0.1542,-0.7340,3.6950,-2.4830,-0.0936,-1.2988,-0.3642,
12.202056,-0.0386,0.4606,-0.1542,-2.4060,2.9860,-4.3110,-0.0936,-1.2988,-0.3642,
12.220039,-0.4729,0.6056,-0.2288,-2.4060,2.9860,-4.3110,-0.0936,-1.2988,-0.3642,
12.223876,-0.8621,0.8712,-0.6274,-2.4060,2.9860,-4.3110,-0.0936,-1.2988,-0.3642,
12.227113,-1.0462,0.7938,-0.7913,-2.4060,2.9860,-4.3110,-0.0936,-1.2988,-0.3642,
12.230170,-1.1068,0.4819,-1.1189,-2.4060,2.9860,-4.3110,-0.0936,-1.2988,-0.3642,
12.234500,-1.1068,0.4819,-1.1189,-2.9060,-0.1490,-7.8720,-0.0936,-1.2988,-0.3642,
12.241675,-1.1068,0.4819,-1.1189,-6.3550,-3.3740,-5.7660,-0.0936,-1.2988,-0.3642,
12.260175,-1.1068,0.4819,-1.1189,-6.3550,-3.3740,-5.7660,-2.0606,-1.3588,1.5388,
12.262292,-1.1068,0.4819,-1.1189,-7.4370,-3.9400,-1.3120,-2.0606,-1.3588,1.5388,
12.282974,-1.1068,0.4819,-1.1189,-2.5060,-0.7780,-2.3240,-2.0606,-1.3588,1.5388,
12.301295,-1.4641,0.1713,-0.8568,-2.5060,-0.7780,-2.3240,-2.0606,-1.3588,1.5388,
12.305484,-1.5670,0.1470,-0.3565,-2.5060,-0.7780,-2.3240,-2.0606,-1.3588,1.5388,
12.308815,-1.0445,0.5112,-0.4196,-2.5060,-0.7780,-2.3240,-2.0606,-1.3588,1.5388,
12.312366,-0.5484,0.8492,-0.2677,-2.5060,-0.7780,-2.3240,-2.0606,-1.3588,1.5388,
12.317861,-0.5484,0.8492,-0.2677,2.1160,2.1070,-1.3010,-2.0606,-1.3588,1.5388,
12.323536,-0.5484,0.8492,-0.2677,2.1160,2.1070,-1.3010,-1.5077,-1.1898,1.5808,
12.324902,-0.5484,0.8492,-0.2677,6.2990,1.7000,1.3730,-1.5077,-1.1898,1.5808,
12.342658,-0.5484,0.8492,-0.2677,8.7470,-4.1150,-1.7200,-1.5077,-1.1898,1.5808,
12.363835,-0.5484,0.8492,-0.2677,9.2770,-8.2950,-1.7930,-1.5077,-1.1898,1.5808,
12.382504,-0.1004,0.8390,0.0519,9.2770,-8.2950,-1.7930,-1.5077,-1.1898,1.5808,
12.386743,0.1668,0.2666,-0.2447,9.2770,-8.2950,-1.7930,-1.5077,-1.1898,1.5808,
12.390185,0.2409,-0.1404,-0.2466,9.2770,-8.2950,-1.7930,-1.5077,-1.1898,1.5808,
12.393501,0.3790,-0.0209,0.3880,9.2770,-8.2950,-1.7930,-1.5077,-1.1898,1.5808,
12.396922,0.3790,-0.0209,0.3880,9.2770,-8.2950,-1.7930,-1.3966,1.7262,0.6028,
12.401525,0.3790,-0.0209,0.3880,10.4340,-7.3130,4.3820,-1.3966,1.7262,0.6028,
12.405060,0.3790,-0.0209,0.3880,2.6760,-3.1720,4.8030,-1.3966,1.7262,0.6028,
12.422019,0.3790,-0.0209,0.3880,-2.8480,1.2220,8.8540,-1.3966,1.7262,0.6028,
12.444886,0.3790,-0.0209,0.3880,-2.8480,1.2220,8.8540,3.3004,-2.5659,-1.9211,
12.447082,0.3790,-0.0209,0.3880,-10.5410,6.5130,6.9660,3.3004,-2.5659,-1.9211,
12.463281,-0.4120,0.4044,0.4234,-10.5410,6.5130,6.9660,3.3004,-2.5659,-1.9211,
12.466345,-0.9895,0.8409,0.8599,-10.5410,6.5130,6.9660,3.3004,-2.5659,-1.9211,
12.468018,-1.7931,1.3621,0.6879,-10.5410,6.5130,6.9660,3.3004,-2.5659,-1.9211,
12.469538,-2.7631,1.2507,-1.1829,-10.5410,6.5130,6.9660,3.3004,-2.5659,-1.9211,
12.471147,-2.7631,1.2507,-1.1829,-19.8310,5.6420,-11.3190,3.3004,-2.5659,-1.9211,
12.486161,-2.7631,1.2507,-1.1829,-3.3470,-1.5710,0.0840,3.3004,-2.5659,-1.9211,
12.503102,-2.7631,1.2507,-1.1829,-2.9550,-2.1900,2.7540,3.3004,-2.5659,-1.9211,
12.525670,-2.7631,1.2507,-1.1829,-2.9550,-2.1900,2.7540,0.8954,0.5292,0.0568,
12.529421,-2.7631,1.2507,-1.1829,-4.1660,1.0800,-2.2400,0.8954,0.5292,0.0568,
12.544016,-1.0795,0.5161,-0.0280,-4.1660,1.0800,-2.2400,0.8954,0.5292,0.0568,
12.547703,-1.0333,0.4565,0.2088,-4.1660,1.0800,-2.2400,0.8954,0.5292,0.0568,
12.552185,-1.1542,0.7896,-0.3278,-4.1660,1.0800,-2.2400,0.8954,0.5292,0.0568,
12.555399,-0.8199,0.6225,0.0211,-4.1660,1.0800,-2.2400,0.8954,0.5292,0.0568,
12.558341,-0.8199,0.6225,0.0211,-0.8050,-0.4770,1.1910,0.8954,0.5292,0.0568,
12.566131,-0.8199,0.6225,0.0211,1.8300,-3.4550,1.8120,0.8954,0.5292,0.0568,
12.584802,-0.8199,0.6225,0.0211,1.8300,-3.4550,1.8120,1.3893,1.9052,-0.9412,
12.588641,-0.8199,0.6225,0.0211,4.6630,-4.8280,1.4900,1.3893,1.9052,-0.9412,
12.606680,-0.8199,0.6225,0.0211,5.8690,-3.4740,0.5740,1.3893,1.9052,-0.9412,
12.625746,-0.5608,0.3035,0.0691,5.8690,-3.4740,0.5740,1.3893,1.9052,-0.9412,
12.627679,-0.2798,0.1470,0.0006,5.8690,-3.4740,0.5740,1.3893,1.9052,-0.9412,
12.629373,-0.1601,0.2630,-0.1535,5.8690,-3.4740,0.5740,1.3893,1.9052,-0.9412,
12.631161,-0.1766,0.5095,-0.0396,5.8690,-3.4740,0.5740,1.3893,1.9052,-0.9412,
12.633672,-0.1766,0.5095,-0.0396,5.6950,-0.8110,2.3460,1.3893,1.9052,-0.9412,
12.648130,-0.1766,0.5095,-0.0396,5.6950,-0.8110,2.3460,1.2554,2.3911,-2.0032,
12.653140,-0.1766,0.5095,-0.0396,5.0890,1.4120,4.0070,1.2554,2.3911,-2.0032,
12.665766,-0.1766,0.5095,-0.0396,0.4080,3.9570,-1.2340,1.2554,2.3911,-2.0032,
12.691993,-0.1766,0.5095,-0.0396,-5.0110,4.7270,-4.4600,1.2554,2.3911,-2.0032,
12.705381,-0.2365,0.7060,0.0686,-5.0110,4.7270,-4.4600,1.2554,2.3911,-2.0032,
12.709024,-0.7258,0.9240,-0.5049,-5.0110,4.7270,-4.4600,1.2554,2.3911,-2.0032,
12.712030,-1.3009,0.9646,-0.8376,-5.0110,4.7270,-4.4600,1.2554,2.3911,-2.0032,
12.714957,-1.0821,0.6232,-0.8325,-5.0110,4.7270,-4.4600,1.2554,2.3911,-2.0032,
12.719193,-1.0821,0.6232,-0.8325,-5.0110,4.7270,-4.4600,-0.5357,-0.8949,-0.6082,
12.722224,-1.0821,0.6232,-0.8325,-2.6920,1.5800,-4.5050,-0.5357,-0.8949,-0.6082,
12.728173,-1.0821,0.6232,-0.8325,0.4600,-1.6450,-5.5550,-0.5357,-0.8949,-0.6082,
12.745541,-1.0821,0.6232,-0.8325,-1.3160,-4.2120,-2.2770,-0.5357,-0.8949,-0.6082,
12.769115,-1.0821,0.6232,-0.8325,-3.6540,-5.3920,1.2990,-0.5357,-0.8949,-0.6082,
12.786724,-0.7722,0.2898,-0.9182,-3.6540,-5.3920,1.2990,-0.5357,-0.8949,-0.6082,
12.790513,-0.9604,0.0394,-0.5482,-3.6540,-5.3920,1.2990,-0.5357,-0.8949,-0.6082,
12.793582,-1.1967,-0.0549,-0.1459,-3.6540,-5.3920,1.2990,-0.5357,-0.8949,-0.6082,
12.796769,-1.2694,0.3462,-0.4220,-3.6540,-5.3920,1.2990,-0.5357,-0.8949,-0.6082,
12.799891,-1.2694,0.3462,-0.4220,-3.6540,-5.3920,1.2990,-0.9016,-1.1509,2.4868,
12.803065,-1.2694,0.3462,-0.4220,-4.5350,-1.8880,-1.7020,-0.9016,-1.1509,2.4868,
12.808859,-1.2694,0.3462,-0.4220,-3.2130,2.9880,-6.1570,-0.9016,-1.1509,2.4868,
12.826609,-1.2694,0.3462,-0.4220,1.1450,5.2670,-3.7270,-0.9016,-1.1509,2.4868,
12.851013,-1.2694,0.3462,-0.4220,1.1450,5.2670,-3.7270,-2.4727,-1.1308,1.4547,
12.855027,-1.2694,0.3462,-0.4220,4.2410,0.1480,0.7500,-2.4727,-1.1308,1.4547,
12.867809,-1.1034,0.8996,-0.8505,4.2410,0.1480,0.7500,-2.4727,-1.1308,1.4547,
12.871532,-0.6266,1.1860,-0.5548,4.2410,0.1480,0.7500,-2.4727,-1.1308,1.4547,
12.873542,-0.2903,0.6980,-0.0435,4.2410,0.1480,0.7500,-2.4727,-1.1308,1.4547,
12.875514,-0.0867,0.0147,-0.0968,4.2410,0.1480,0.7500,-2.4727,-1.1308,1.4547,
12.877636,-0.0867,0.0147,-0.0968,6.0400,-6.7980,-0.1180,-2.4727,-1.1308,1.4547,
12.890438,-0.0867,0.0147,-0.0968,8.6790,-9.0870,-0.7010,-2.4727,-1.1308,1.4547,
12.908026,-0.0867,0.0147,-0.0968,8.6790,-9.0870,-0.7010,-1.6287,0.1682,0.9878,
12.909976,-0.0867,0.0147,-0.0968,9.9360,-8.2180,5.0510,-1.6287,0.1682,0.9878,
12.930369,-0.0867,0.0147,-0.0968,9.4820,-6.1190,10.6410,-1.6287,0.1682,0.9878,
12.949725,0.2074,-0.1959,-0.1361,9.4820,-6.1190,10.6410,-1.6287,0.1682,0.9878,
12.953687,0.3577,-0.0850,0.4738,9.4820,-6.1190,10.6410,-1.6287,0.1682,0.9878,
12.956625,0.3577,-0.0850,0.4738,2.0460,-1.5510,-0.9230,-1.6287,0.1682,0.9878,
12.959841,0.3213,0.1402,1.0608,2.0460,-1.5510,-0.9230,-1.6287,0.1682,0.9878,
12.962912,-0.4477,0.5974,-0.1293,2.0460,-1.5510,-0.9230,-1.6287,0.1682,0.9878,
12.970579,-0.4477,0.5974,-0.1293,2.0460,-1.5510,-0.9230,-0.0396,0.2842,-0.8122,
12.972108,-0.4477,0.5974,-0.1293,-5.4220,5.0940,-1.2240,-0.0396,0.2842,-0.8122,
12.989348,-0.4477,0.5974,-0.1293,-15.7030,7.5240,5.1100,-0.0396,0.2842,-0.8122,
13.011401,-0.4477,0.5974,-0.1293,-24.2520,1.3990,-6.2860,-0.0396,0.2842,-0.8122,
13.029774,-1.2253,1.2623,-0.1412,-24.2520,1.3990,-6.2860,-0.0396,0.2842,-0.8122,
13.034308,-2.2911,1.4949,0.5006,-24.2520,1.3990,-6.2860,-0.0396,0.2842,-0.8122,
13.037959,-3.1834,0.8497,-0.6762,-24.2520,1.3990,-6.2860,-0.0396,0.2842,-0.8122,
13.041466,-1.2852,0.3578,-0.2363,-24.2520,1.3990,-6.2860,-0.0396,0.2842,-0.8122,
13.045329,-1.2852,0.3578,-0.2363,-5.7170,-3.4810,-1.8090,-0.0396,0.2842,-0.8122,
13.051820,-1.2852,0.3578,-0.2363,-5.7170,-3.4810,-1.8090,-0.3986,1.9772,0.4748,
13.053927,-1.2852,0.3578,-0.2363,-2.9170,-2.7560,2.0170,-0.3986,1.9772,0.4748,
13.070310,-1.2852,0.3578,-0.2363,-3.0240,-0.1330,1.7100,-0.3986,1.9772,0.4748,
13.092717,-1.2852,0.3578,-0.2363,-1.4130,-2.0740,2.4580,-0.3986,1.9772,0.4748,
13.110779,-0.9890,0.4396,0.1321,-1.4130,-2.0740,2.4580,-0.3986,1.9772,0.4748,
13.112708,-0.9956,0.7104,0.0969,-1.4130,-2.0740,2.4580,-0.3986,1.9772,0.4748,
13.114342,-0.8383,0.5049,0.1673,-1.4130,-2.0740,2.4580,-0.3986,1.9772,0.4748,
13.116417,-0.5557,0.2784,-0.0851,-1.4130,-2.0740,2.4580,-0.3986,1.9772,0.4748,
13.118066,-0.5557,0.2784,-0.0851,-1.4130,-2.0740,2.4580,0.9823,2.1442,-1.2672,
13.119749,-0.5557,0.2784,-0.0851,1.4790,-4.1360,0.3100,0.9823,2.1442,-1.2672,
13.134591,-0.5557,0.2784,-0.0851,3.4700,-4.6420,0.1720,0.9823,2.1442,-1.2672,
13.151113,-0.5557,0.2784,-0.0851,7.1780,-2.8640,-1.8800,0.9823,2.1442,-1.2672,
13.173751,-0.5557,0.2784,-0.0851,7.1780,-2.8640,-1.8800,-0.0047,3.2381,-2.0452,
13.178020,-0.5557,0.2784,-0.0851,7.3760,-2.3410,2.9270,-0.0047,3.2381,-2.0452,
13.194247,-0.3653,0.2029,-0.1547,7.3760,-2.3410,2.9270,-0.0047,3.2381,-2.0452,
13.197814,0.0100,0.3576,-0.4318,7.3760,-2.3410,2.9270,-0.0047,3.2381,-2.0452,
13.202030,0.0289,0.3846,0.0020,7.3760,-2.3410,2.9270,-0.0047,3.2381,-2.0452,
13.205108,-0.1764,0.3761,0.4093,7.3760,-2.3410,2.9270,-0.0047,3.2381,-2.0452,
13.207921,-0.1764,0.3761,0.4093,5.4680,-2.1210,7.3090,-0.0047,3.2381,-2.0452,
13.214181,-0.1764,0.3761,0.4093,4.2600,0.7660,5.0580,-0.0047,3.2381,-2.0452,
13.233038,-0.1764,0.3761,0.4093,4.2600,0.7660,5.0580,0.1194,-0.9888,-2.0802,
13.237121,-0.1764,0.3761,0.4093,-3.8980,4.7730,-7.0720,0.1194,-0.9888,-2.0802,
13.255013,-0.1764,0.3761,0.4093,-7.9200,1.0850,-8.8430,0.1194,-0.9888,-2.0802,
13.272794,-0.3089,0.6398,0.1509,-7.9200,1.0850,-8.8430,0.1194,-0.9888,-2.0802,
13.275430,-0.3089,0.6398,0.1509,1.1980,-3.7680,-1.8560,0.1194,-0.9888,-2.0802,
13.277241,-1.1620,1.0117,-1.1019,1.1980,-3.7680,-1.8560,0.1194,-0.9888,-2.0802,
13.279030,-1.5993,0.6058,-1.2687,1.1980,-3.7680,-1.8560,0.1194,-0.9888,-2.0802,
13.280768,-0.6813,0.1034,-0.5345,1.1980,-3.7680,-1.8560,0.1194,-0.9888,-2.0802,
13.294704,-0.6813,0.1034,-0.5345,1.5240,-4.7840,-0.0830,0.1194,-0.9888,-2.0802,
13.313077,-0.6813,0.1034,-0.5345,1.5240,-4.7840,-0.0830,-1.9356,-0.7408,0.7228,
13.319225,-0.6813,0.1034,-0.5345,0.7320,-4.7860,0.4320,-1.9356,-0.7408,0.7228,
13.335745,-0.6813,0.1034,-0.5345,0.5780,-3.2120,-0.6610,-1.9356,-0.7408,0.7228,
13.353696,-0.6559,0.0066,-0.3270,0.5780,-3.2120,-0.6610,-1.9356,-0.7408,0.7228,
13.358108,-0.7351,0.0274,-0.2437,0.5780,-3.2120,-0.6610,-1.9356,-0.7408,0.7228,
13.361811,-0.7419,0.2185,-0.3199,0.5780,-3.2120,-0.6610,-1.9356,-0.7408,0.7228,
13.363704,-0.8553,0.4198,-0.2847,0.5780,-3.2120,-0.6610,-1.9356,-0.7408,0.7228,
13.365391,-0.8553,0.4198,-0.2847,-0.6960,-1.6210,-0.7020,-1.9356,-0.7408,0.7228,
13.375281,-0.8553,0.4198,-0.2847,-0.6960,-1.6210,-0.7020,-1.7427,-1.9429,2.5779,
13.377284,-0.8553,0.4198,-0.2847,-0.1630,-0.0410,-3.0910,-1.7427,-1.9429,2.5779,
13.393550,-0.8553,0.4198,-0.2847,-0.7730,0.1280,-5.5280,-1.7427,-1.9429,2.5779,
13.416817,-0.8553,0.4198,-0.2847,-0.6870,0.5700,-3.1900,-1.7427,-1.9429,2.5779,
13.435566,-0.7779,0.6265,-0.4800,-0.6870,0.5700,-3.1900,-1.7427,-1.9429,2.5779,
13.439296,-0.8129,0.6864,-0.6778,-0.6870,0.5700,-3.1900,-1.7427,-1.9429,2.5779,
13.441991,-0.7769,0.7630,-0.4103,-0.6870,0.5700,-3.1900,-1.7427,-1.9429,2.5779,
13.444913,-0.9143,1.0762,0.0092,-0.6870,0.5700,-3.1900,-1.7427,-1.9429,2.5779,
13.447985,-0.9143,1.0762,0.0092,-0.6870,0.5700,-3.1900,-1.2957,2.1152,-0.1412,
13.451194,-0.9143,1.0762,0.0092,-2.1340,3.5500,1.0050,-1.2957,2.1152,-0.1412,
13.456496,-0.9143,1.0762,0.0092,-1.1440,5.6180,9.6770,-1.2957,2.1152,-0.1412,
13.476413,-0.9143,1.0762,0.0092,-2.3600,8.5140,3.5640,-1.2957,2.1152,-0.1412,
13.497280,-0.9143,1.0762,0.0092,-2.3600,8.5140,3.5640,1.4044,0.4252,0.3739,
13.501131,-0.9143,1.0762,0.0092,-7.6590,14.9560,7.7740,1.4044,0.4252,0.3739,
13.516674,-0.8141,1.2854,0.8816,-7.6590,14.9560,7.7740,1.4044,0.4252,0.3739,
13.521381,-0.9448,1.5694,0.2340,-7.6590,14.9560,7.7740,1.4044,0.4252,0.3739,
13.525029,-1.4888,2.2235,0.6630,-7.6590,14.9560,7.7740,1.4044,0.4252,0.3739,
13.528617,-0.9392,1.1212,0.1441,-7.6590,14.9560,7.7740,1.4044,0.4252,0.3739,
13.533554,-0.9392,1.1212,0.1441,-2.3090,4.1580,2.9070,1.4044,0.4252,0.3739,
13.539320,-0.9392,1.1212,0.1441,-10.4920,-6.7850,-2.2780,1.4044,0.4252,0.3739,
13.556399,-0.9392,1.1212,0.1441,-9.6950,-0.4110,2.8350,1.4044,0.4252,0.3739,
13.578056,-0.9392,1.1212,0.1441,-9.6950,-0.4110,2.8350,-2.2056,-0.8909,0.8998,
13.580252,-0.9392,1.1212,0.1441,-2.8560,5.2830,3.4220,-2.2056,-0.8909,0.8998,
13.595981,-1.7728,0.0028,-0.4008,-2.8560,5.2830,3.4220,-2.2056,-0.8909,0.8998,
13.600341,-1.6804,0.6682,0.1455,-2.8560,5.2830,3.4220,-2.2056,-0.8909,0.8998,
