
time,gFx,gFy,gFz,ax,ay,az,wx,wy,wz,
0.024090,-0.0401,0.2741,0.7236,0.0000,0.0000,0.0000,0.0000,0.0000,0.0000,
0.026681,-0.0401,0.2741,0.7236,0.0000,0.0000,0.0000,-0.3553,-0.5172,0.5353,
0.045425,-0.0401,0.2741,0.7236,0.0000,0.0000,0.0000,-0.3553,-0.5172,0.5353,
0.063775,-0.0567,0.2919,0.7468,0.0000,0.0000,0.0000,-0.3553,-0.5172,0.5353,
0.065448,-0.0567,0.2919,0.7468,0.1360,-0.7004,-1.7918,-0.3553,-0.5172,0.5353,
0.066792,-0.0567,0.2919,0.7468,0.1360,-0.7004,-1.7918,-0.3553,-0.5172,0.5353,
0.083513,-0.0567,0.2919,0.7468,0.1360,-0.7004,-1.7918,-0.3553,-0.5172,0.5353,
0.104388,-0.0024,0.2729,0.8077,0.1360,-0.7004,-1.7918,-0.3553,-0.5172,0.5353,
0.106211,-0.0024,0.2729,0.8077,0.3733,-0.7024,-1.2832,-0.3553,-0.5172,0.5353,
0.107816,-0.0024,0.2729,0.8077,0.3733,-0.7024,-1.2832,0.1097,0.4048,0.1577,
0.124124,-0.0024,0.2729,0.8077,0.3733,-0.7024,-1.2832,0.1411,0.4224,0.0836,
0.143644,0.0997,0.2949,0.9491,0.3733,-0.7024,-1.2832,0.1411,0.4224,0.0836,
0.145960,0.0997,0.2949,0.9491,0.7168,-0.2659,0.0201,0.1411,0.4224,0.0836,
0.147968,0.0997,0.2949,0.9491,0.7168,-0.2659,0.0201,0.3132,0.3739,-0.0815,
0.163898,0.0997,0.2949,0.9491,0.7168,-0.2659,0.0201,0.5316,0.2029,-0.3787,
0.183446,0.1309,0.3562,0.9530,0.7168,-0.2659,0.0201,0.5316,0.2029,-0.3787,
0.186017,0.1309,0.3562,0.9530,0.5633,0.2151,0.1245,0.5316,0.2029,-0.3787,
0.187781,0.1309,0.3562,0.9530,0.5633,0.2151,0.1245,0.5678,-0.0655,-0.6147,
0.203973,0.1309,0.3562,0.9530,0.5633,0.2151,0.1245,0.6551,0.0016,-0.6839,
0.223557,0.0371,0.4253,0.9528,0.5633,0.2151,0.1245,0.6551,0.0016,-0.6839,
0.225554,0.0371,0.4253,0.9528,-0.1886,0.5636,0.2340,0.6551,0.0016,-0.6839,
0.227423,0.0371,0.4253,0.9528,-0.1886,0.5636,0.2340,0.7739,0.2908,-0.5768,
0.243755,0.0371,0.4253,0.9528,-0.1886,0.5636,0.2340,0.8533,0.5934,-0.5246,
0.263896,-0.0230,0.3933,1.0471,-0.1886,0.5636,0.2340,0.8533,0.5934,-0.5246,
0.266825,-0.0230,0.3933,1.0471,-0.4312,0.3194,1.1166,0.8533,0.5934,-0.5246,
0.268965,-0.0230,0.3933,1.0471,-0.4312,0.3194,1.1166,0.8352,0.6056,-0.5262,
0.283125,-0.0230,0.3933,1.0471,-0.4312,0.3194,1.1166,0.7782,0.2061,-0.5619,
0.302618,0.0713,0.3919,1.0261,-0.4312,0.3194,1.1166,0.7782,0.2061,-0.5619,
0.304847,0.0713,0.3919,1.0261,0.3029,0.3236,0.9098,0.7782,0.2061,-0.5619,
0.306080,0.0713,0.3919,1.0261,0.3029,0.3236,0.9098,0.7207,-0.3201,-0.7420,
0.323454,0.0713,0.3919,1.0261,0.3029,0.3236,0.9098,0.6551,-0.3606,-0.9795,
0.342841,-0.0498,0.5069,0.9042,0.3029,0.3236,0.9098,0.6551,-0.3606,-0.9795,
0.344939,-0.0498,0.5069,0.9042,-0.8752,1.1819,-0.1771,0.6551,-0.3606,-0.9795,
0.346783,-0.0498,0.5069,0.9042,-0.8752,1.1819,-0.1771,0.4847,-0.1587,-1.0232,
0.362997,-0.0498,0.5069,0.9042,-0.8752,1.1819,-0.1771,0.3116,-0.0085,-0.9625,
0.383072,-0.1053,0.4608,1.1143,-0.8752,1.1819,-0.1771,0.3116,-0.0085,-0.9625,
0.386131,-0.1053,0.4608,1.1143,-1.2953,0.5730,1.9446,0.3116,-0.0085,-0.9625,
0.388079,-0.1053,0.4608,1.1143,-1.2953,0.5730,1.9446,0.3840,-0.0463,-0.9896,
0.403525,-0.1053,0.4608,1.1143,-1.2953,0.5730,1.9446,0.6163,-0.0053,-1.0653,
0.423204,-0.1143,0.3946,1.1011,-1.2953,0.5730,1.9446,0.6163,-0.0053,-1.0653,
0.425367,-0.1143,0.3946,1.1011,-1.2278,-0.2620,1.8961,0.6163,-0.0053,-1.0653,
0.427048,-0.1143,0.3946,1.1011,-1.2278,-0.2620,1.8961,0.9135,0.1720,-1.1878,
0.443433,-0.1143,0.3946,1.1011,-1.2278,-0.2620,1.8961,1.2187,0.2988,-1.2251,
0.463556,-0.1615,0.4275,0.8228,-1.2278,-0.2620,1.8961,1.2187,0.2988,-1.2251,
0.465789,-0.1615,0.4275,0.8228,-1.3834,-0.3024,-0.6513,1.2187,0.2988,-1.2251,
0.467878,-0.1615,0.4275,0.8228,-1.3834,-0.3024,-0.6513,1.3630,0.3121,-1.1675,
0.483278,-0.1615,0.4275,0.8228,-1.3834,-0.3024,-0.6513,1.3161,0.3712,-1.1143,
0.503243,-0.2253,0.4722,0.6704,-1.3834,-0.3024,-0.6513,1.3161,0.3712,-1.1143,
0.505974,-0.2253,0.4722,0.6704,-1.6503,-0.2994,-1.8909,1.3161,0.3712,-1.1143,
0.507836,-0.2253,0.4722,0.6704,-1.6503,-0.2994,-1.8909,1.1244,0.4213,-1.0525,
0.523436,-0.2253,0.4722,0.6704,-1.6503,-0.2994,-1.8909,0.9055,0.4666,-0.8661,
0.543181,-0.3352,0.5079,0.6704,-1.6503,-0.2994,-1.8909,0.9055,0.4666,-0.8661,
0.546076,-0.3352,0.5079,0.6704,-2.3672,-0.2589,-1.6710,0.9055,0.4666,-0.8661,
0.548319,-0.3352,0.5079,0.6704,-2.3672,-0.2589,-1.6710,0.6876,0.5758,-0.6157,
0.563053,-0.3352,0.5079,0.6704,-2.3672,-0.2589,-1.6710,0.5582,0.6727,-0.4309,
0.582800,-0.3689,0.5016,0.7187,-2.3672,-0.2589,-1.6710,0.5582,0.6727,-0.4309,
0.585656,-0.3689,0.5016,0.7187,-2.3570,-0.4988,-1.0355,0.5582,0.6727,-0.4309,
0.587775,-0.3689,0.5016,0.7187,-2.3570,-0.4988,-1.0355,0.5369,0.5124,-0.2615,
0.602808,-0.3689,0.5016,0.7187,-2.3570,-0.4988,-1.0355,0.5412,0.3659,-0.1204,
0.623159,-0.2695,0.5091,0.5778,-2.3570,-0.4988,-1.0355,0.5412,0.3659,-0.1204,
0.626924,-0.2695,0.5091,0.5778,-1.2002,-0.5867,-2.2750,0.5412,0.3659,-0.1204,
0.629358,-0.2695,0.5091,0.5778,-1.2002,-0.5867,-2.2750,0.5369,0.3925,-0.0485,
0.642647,-0.2695,0.5091,0.5778,-1.2002,-0.5867,-2.2750,0.5033,0.6424,0.0634,
0.662653,-0.2641,0.5590,0.5402,-1.2002,-0.5867,-2.2750,0.5033,0.6424,0.0634,
0.664915,-0.2641,0.5590,0.5402,-0.9870,-0.2622,-2.4948,0.5033,0.6424,0.0634,
0.666883,-0.2641,0.5590,0.5402,-0.9870,-0.2622,-2.4948,0.4080,0.7638,0.1459,
0.682993,-0.2641,0.5590,0.5402,-0.9870,-0.2622,-2.4948,0.2349,0.5934,0.1816,
0.702507,-0.2086,0.5631,0.5829,-0.9870,-0.2622,-2.4948,0.2349,0.5934,0.1816,
0.705122,-0.2086,0.5631,0.5829,-0.2721,-0.3319,-1.9556,0.2349,0.5934,0.1816,
0.706835,-0.2086,0.5631,0.5829,-0.2721,-0.3319,-1.9556,0.0426,0.3377,0.1103,
0.723394,-0.2086,0.5631,0.5829,-0.2721,-0.3319,-1.9556,-0.0607,0.2924,0.0581,
0.742759,-0.2824,0.6408,0.6858,-0.2721,-0.3319,-1.9556,-0.0607,0.2924,0.0581,
0.745083,-0.2824,0.6408,0.6858,-0.9175,0.4256,-0.9263,-0.0607,0.2924,0.0581,
0.746931,-0.2824,0.6408,0.6858,-0.9175,0.4256,-0.9263,0.0208,0.5412,0.1641,
0.763034,-0.2824,0.6408,0.6858,-0.9175,0.4256,-0.9263,0.2455,0.7340,0.2818,
0.783122,-0.1693,0.6166,0.7410,-0.9175,0.4256,-0.9263,0.2455,0.7340,0.2818,
0.785347,-0.1693,0.6166,0.7410,0.3371,0.1261,-0.2998,0.2455,0.7340,0.2818,
0.787154,-0.1693,0.6166,0.7410,0.3371,0.1261,-0.2998,0.3947,0.6104,0.1827,
0.802493,-0.1693,0.6166,0.7410,0.3371,0.1261,-0.2998,0.4964,0.4330,-0.0399,
0.822693,-0.2314,0.7065,0.6477,0.3371,0.1261,-0.2998,0.4964,0.4330,-0.0399,
0.824791,-0.2314,0.7065,0.6477,-0.1275,0.8556,-1.0533,0.4964,0.4330,-0.0399,
0.826677,-0.2314,0.7065,0.6477,-0.1275,0.8556,-1.0533,0.6003,0.4277,-0.1411,
0.842622,-0.2314,0.7065,0.6477,-0.1275,0.8556,-1.0533,0.7356,0.6956,-0.1625,
0.862330,-0.3562,0.7652,0.5836,-0.1275,0.8556,-1.0533,0.7356,0.6956,-0.1625,
0.864381,-0.3562,0.7652,0.5836,-1.1341,1.2246,-1.4394,0.7356,0.6956,-0.1625,
0.865811,-0.3562,0.7652,0.5836,-1.1341,1.2246,-1.4394,0.8144,0.9550,-0.1310,
0.882094,-0.3562,0.7652,0.5836,-1.1341,1.2246,-1.4394,0.7159,1.0280,-0.1060,
0.902489,-0.4007,0.7354,0.6000,-1.1341,1.2246,-1.4394,0.7159,1.0280,-0.1060,
0.905197,-0.4007,0.7354,0.6000,-1.2377,0.7080,-0.9543,0.7159,1.0280,-0.1060,
0.906905,-0.4007,0.7354,0.6000,-1.2377,0.7080,-0.9543,0.5955,0.8272,-0.1497,
0.922551,-0.4007,0.7354,0.6000,-1.2377,0.7080,-0.9543,0.4698,0.5965,-0.1582,
0.941981,-0.5678,0.8196,0.5646,-1.2377,0.7080,-0.9543,0.4698,0.5965,-0.1582,
0.944159,-0.5678,0.8196,0.5646,-2.6238,1.3995,-1.0645,0.4698,0.5965,-0.1582,
0.946040,-0.5678,0.8196,0.5646,-2.6238,1.3995,-1.0645,0.1161,0.4735,-0.0037,
0.961689,-0.5678,0.8196,0.5646,-2.6238,1.3995,-1.0645,0.1752,0.5752,0.0581,
0.981944,-0.4823,0.7676,0.7850,-2.6238,1.3995,-1.0645,0.1752,0.5752,0.0581,
0.984156,-0.4823,0.7676,0.7850,-1.6559,0.8482,1.1967,0.1752,0.5752,0.0581,
0.985700,-0.4823,0.7676,0.7850,-1.6559,0.8482,1.1967,0.5619,0.6951,-0.0213,
1.002362,-0.4823,0.7676,0.7850,-1.6559,0.8482,1.1967,0.8597,0.7180,-0.0900,
1.022736,-0.5194,0.8634,0.5590,-1.6559,0.8482,1.1967,0.8597,0.7180,-0.0900,
1.025046,-0.5194,0.8634,0.5590,-1.8251,1.6134,-0.7365,0.8597,0.7180,-0.0900,
1.026878,-0.5194,0.8634,0.5590,-1.8251,1.6134,-0.7365,0.8591,0.7318,-0.1838,
1.042617,-0.5194,0.8634,0.5590,-1.8251,1.6134,-0.7365,0.5699,0.6301,-0.1289,
1.063157,-0.5651,0.7984,0.5196,-1.8251,1.6134,-0.7365,0.5699,0.6301,-0.1289,
1.066153,-0.5651,0.7984,0.5196,-2.0646,0.8242,-0.8327,0.5699,0.6301,-0.1289,
1.068004,-0.5651,0.7984,0.5196,-2.0646,0.8242,-0.8327,0.3505,0.5316,-0.0575,
1.082166,-0.5651,0.7984,0.5196,-2.0646,0.8242,-0.8327,0.3686,0.5902,0.0740,
1.102908,-0.4705,0.6804,0.6291,-2.0646,0.8242,-0.8327,0.3686,0.5902,0.0740,
1.105389,-0.4705,0.6804,0.6291,-1.0031,-0.4153,0.4222,0.3686,0.5902,0.0740,
1.107097,-0.4705,0.6804,0.6291,-1.0031,-0.4153,0.4222,0.5529,0.5177,0.1747,
1.122204,-0.4705,0.6804,0.6291,-1.0031,-0.4153,0.4222,0.7926,0.6738,0.1832,
1.142012,-0.5712,0.6310,0.4195,-1.0031,-0.4153,0.4222,0.7926,0.6738,0.1832,
1.145031,-0.5712,0.6310,0.4195,-1.8614,-1.0609,-1.3406,0.7926,0.6738,0.1832,
1.146898,-0.5712,0.6310,0.4195,-1.8614,-1.0609,-1.3406,0.6796,0.7984,0.3846,
1.162121,-0.5712,0.6310,0.4195,-1.8614,-1.0609,-1.3406,0.3936,0.7691,0.3345,
1.182241,-0.5626,0.6626,0.4962,-1.8614,-1.0609,-1.3406,0.3936,0.7691,0.3345,
1.184616,-0.5626,0.6626,0.4962,-1.6626,-0.8958,-0.3087,0.3936,0.7691,0.3345,
1.186628,-0.5626,0.6626,0.4962,-1.6626,-0.8958,-0.3087,0.1443,0.6061,0.2216,
1.202117,-0.5626,0.6626,0.4962,-1.6626,-0.8958,-0.3087,0.1055,0.5795,0.1119,
1.222626,-0.5226,0.6423,0.6374,-1.6626,-0.8958,-0.3087,0.1055,0.5795,0.1119,
1.225781,-0.5226,0.6423,0.6374,-1.1601,-1.1162,1.1905,0.1055,0.5795,0.1119,
1.227634,-0.5226,0.6423,0.6374,-1.1601,-1.1162,1.1905,0.3244,0.8325,-0.0485,
1.243581,-0.5226,0.6423,0.6374,-1.1601,-1.1162,1.1905,0.6184,0.8911,0.0192,
1.262168,-0.5419,0.7661,0.5546,-1.1601,-1.1162,1.1905,0.6184,0.8911,0.0192,
1.265197,-0.5419,0.7661,0.5546,-1.1573,0.0237,0.6489,0.6184,0.8911,0.0192,
1.266906,-0.5419,0.7661,0.5546,-1.1573,0.0237,0.6489,0.9017,0.8794,0.1598,
1.282716,-0.5419,0.7661,0.5546,-1.1573,0.0237,0.6489,1.0504,0.9715,0.2152,
1.302640,-0.4481,0.7959,0.3384,-1.1573,0.0237,0.6489,1.0504,0.9715,0.2152,
1.304802,-0.4481,0.7959,0.3384,-0.1052,0.1221,-1.0255,1.0504,0.9715,0.2152,
1.306625,-0.4481,0.7959,0.3384,-0.1052,0.1221,-1.0255,0.9806,1.1047,0.2482,
1.322091,-0.4481,0.7959,0.3384,-0.1052,0.1221,-1.0255,0.8133,1.4328,0.3121,
1.341699,-0.3838,0.8641,0.2724,-0.1052,0.1221,-1.0255,0.8133,1.4328,0.3121,
1.344596,-0.3838,0.8641,0.2724,0.6443,0.5943,-1.1726,0.8133,1.4328,0.3121,
1.346629,-0.3838,0.8641,0.2724,0.6443,0.5943,-1.1726,0.8549,2.2312,0.3095,
1.361614,-0.3838,0.8641,0.2724,0.6443,0.5943,-1.1726,0.9971,2.6552,0.2919,
1.382011,-0.4314,0.8495,0.2802,0.6443,0.5943,-1.1726,0.9971,2.6552,0.2919,
1.385530,-0.4314,0.8495,0.2802,0.4110,0.2657,-0.3687,0.9971,2.6552,0.2919,
1.387169,-0.4314,0.8495,0.2802,0.4110,0.2657,-0.3687,1.5766,2.4538,0.1071,
1.401403,-0.4314,0.8495,0.2802,0.4110,0.2657,-0.3687,2.0490,0.9854,0.3531,
1.422120,-0.3506,0.8170,0.0787,0.4110,0.2657,-0.3687,2.0490,0.9854,0.3531,
1.424242,-0.3506,0.8170,0.0787,1.3080,-0.2897,-1.4305,2.0490,0.9854,0.3531,
1.426227,-0.3506,0.8170,0.0787,1.3080,-0.2897,-1.4305,2.1130,0.5816,0.6035,
1.442133,-0.3506,0.8170,0.0787,1.3080,-0.2897,-1.4305,2.0176,0.8943,0.9950,
1.461564,-0.4708,0.9293,0.3103,1.3080,-0.2897,-1.4305,2.0176,0.8943,0.9950,
1.464281,-0.4708,0.9293,0.3103,-0.0990,0.5178,1.6246,2.0176,0.8943,0.9950,
1.466320,-0.4708,0.9293,0.3103,-0.0990,0.5178,1.6246,2.2083,1.1952,1.3124,
1.481583,-0.4708,0.9293,0.3103,-0.0990,0.5178,1.6246,2.3814,0.2429,1.5292,
1.502167,-0.4581,0.8226,0.0176,-0.0990,0.5178,1.6246,2.3814,0.2429,1.5292,
1.505415,-0.4581,0.8226,0.0176,-0.4276,-0.8497,-0.3455,2.3814,0.2429,1.5292,
1.507430,-0.4581,0.8226,0.0176,-0.4276,-0.8497,-0.3455,2.1614,-0.9513,1.4701,
1.522015,-0.4581,0.8226,0.0176,-0.4276,-0.8497,-0.3455,1.7097,-0.7047,1.3891,
1.541937,-0.5179,0.9100,0.1417,-0.4276,-0.8497,-0.3455,1.7097,-0.7047,1.3891,
1.544323,-0.5179,0.9100,0.1417,-1.4939,-0.2107,1.3850,1.7097,-0.7047,1.3891,
1.546259,-0.5179,0.9100,0.1417,-1.4939,-0.2107,1.3850,1.3465,-0.9220,1.5617,
1.561950,-0.5179,0.9100,0.1417,-1.4939,-0.2107,1.3850,1.1409,-1.6213,1.4307,
1.581954,-0.5700,0.8658,-0.0774,-1.4939,-0.2107,1.3850,1.1409,-1.6213,1.4307,
1.584232,-0.5700,0.8658,-0.0774,-2.4746,-0.8114,-0.4981,1.1409,-1.6213,1.4307,
1.586219,-0.5700,0.8658,-0.0774,-2.4746,-0.8114,-0.4981,0.6967,-1.5691,1.0535,
1.602170,-0.5700,0.8658,-0.0774,-2.4746,-0.8114,-0.4981,-0.0421,-1.7864,0.9033,
1.622048,-0.5927,0.8541,0.2106,-2.4746,-0.8114,-0.4981,-0.0421,-1.7864,0.9033,
1.623905,-0.5927,0.8541,0.2106,-2.9873,-1.0207,2.2207,-0.0421,-1.7864,0.9033,
1.625409,-0.5927,0.8541,0.2106,-2.9873,-1.0207,2.2207,-0.3595,-2.0320,0.7888,
1.641547,-0.5927,0.8541,0.2106,-2.9873,-1.0207,2.2207,-0.1113,-1.6703,0.6109,
1.661091,-0.5783,0.8617,0.0489,-2.9873,-1.0207,2.2207,-0.1113,-1.6703,0.6109,
1.664094,-0.5783,0.8617,0.0489,-3.0490,-1.0052,0.3332,-0.1113,-1.6703,0.6109,
1.666141,-0.5783,0.8617,0.0489,-3.0490,-1.0052,0.3332,-0.2392,-1.7960,0.3313,
1.681285,-0.5783,0.8617,0.0489,-3.0490,-1.0052,0.3332,-0.5444,-2.1098,-0.0011,
1.701391,-0.5174,0.8861,-0.0239,-3.0490,-1.0052,0.3332,-0.5444,-2.1098,-0.0011,
1.704555,-0.5174,0.8861,-0.0239,-2.4726,-0.7596,-0.7261,-0.5444,-2.1098,-0.0011,
1.706492,-0.5174,0.8861,-0.0239,-2.4726,-0.7596,-0.7261,-0.8549,-2.0400,-0.3814,
1.721825,-0.5174,0.8861,-0.0239,-2.4726,-0.7596,-0.7261,-1.3710,-1.8418,-0.6221,
1.741625,-0.4852,0.9247,0.0244,-2.4726,-0.7596,-0.7261,-1.3710,-1.8418,-0.6221,
1.743904,-0.4852,0.9247,0.0244,-1.9698,-0.2768,-0.8562,-1.3710,-1.8418,-0.6221,
1.745902,-0.4852,0.9247,0.0244,-1.9698,-0.2768,-0.8562,-1.7854,-1.7960,-0.8693,
1.761242,-0.4852,0.9247,0.0244,-1.9698,-0.2768,-0.8562,-1.5319,-1.2165,-0.8986,
1.781838,-0.4784,1.0144,-0.0024,-1.9698,-0.2768,-0.8562,-1.5319,-1.2165,-0.8986,
1.785326,-0.4784,1.0144,-0.0024,-1.6451,0.8059,-1.8859,-1.5319,-1.2165,-0.8986,
1.787080,-0.4784,1.0144,-0.0024,-1.6451,0.8059,-1.8859,-1.3795,-1.1750,-0.6930,
1.801343,-0.4784,1.0144,-0.0024,-1.6451,0.8059,-1.8859,-1.3065,-1.3113,-0.5305,
1.821728,-0.5165,0.8463,-0.1029,-1.6451,0.8059,-1.8859,-1.3065,-1.3113,-0.5305,
1.824002,-0.5165,0.8463,-0.1029,-1.8721,-0.6504,-3.4587,-1.3065,-1.3113,-0.5305,
1.826015,-0.5165,0.8463,-0.1029,-1.8721,-0.6504,-3.4587,-1.3992,-1.4131,-0.7436,
1.841336,-0.5165,0.8463,-0.1029,-1.8721,-0.6504,-3.4587,-1.2240,-1.1500,-1.1936,
1.861273,-0.5235,0.7229,0.1119,-1.8721,-0.6504,-3.4587,-1.2240,-1.1500,-1.1936,
1.863900,-0.5235,0.7229,0.1119,-1.7003,-1.5905,-1.9279,-1.2240,-1.1500,-1.1936,
1.865719,-0.5235,0.7229,0.1119,-1.7003,-1.5905,-1.9279,-0.6381,-0.8788,-1.6341,
1.880977,-0.5235,0.7229,0.1119,-1.7003,-1.5905,-1.9279,0.0240,-0.9231,-1.7705,
1.901783,-0.4747,0.5907,-0.0120,-1.7003,-1.5905,-1.9279,0.0240,-0.9231,-1.7705,
1.904201,-0.4747,0.5907,-0.0120,-0.7564,-2.5987,-3.3789,0.0240,-0.9231,-1.7705,
1.906251,-0.4747,0.5907,-0.0120,-0.7564,-2.5987,-3.3789,0.6722,-0.7446,-1.8285,
1.921679,-0.4747,0.5907,-0.0120,-0.7564,-2.5987,-3.3789,1.1116,-0.5944,-1.9825,
1.940738,-0.5001,0.6743,0.0550,-0.7564,-2.5987,-3.3789,1.1116,-0.5944,-1.9825,
1.943098,-0.5001,0.6743,0.0550,-0.4603,-1.5761,-2.5391,1.1116,-0.5944,-1.9825,
1.944820,-0.5001,0.6743,0.0550,-0.4603,-1.5761,-2.5391,1.5564,-0.9246,-2.2871,
1.960593,-0.5001,0.6743,0.0550,-0.4603,-1.5761,-2.5391,1.8381,-0.7084,-2.4959,
1.981006,-0.4285,0.6391,0.0059,-0.4603,-1.5761,-2.5391,1.8381,-0.7084,-2.4959,
1.984187,-0.4285,0.6391,0.0059,0.9160,-1.6605,-2.6290,1.8381,-0.7084,-2.4959,
1.986013,-0.4285,0.6391,0.0059,0.9160,-1.6605,-2.6290,2.0144,-0.5470,-2.4219,
2.001008,-0.4285,0.6391,0.0059,0.9160,-1.6605,-2.6290,2.4027,-0.7739,-1.8312,
2.021461,-0.3188,0.3977,-0.1964,0.9160,-1.6605,-2.6290,2.4027,-0.7739,-1.8312,
2.023937,-0.3188,0.3977,-0.1964,2.5899,-3.7781,-4.0693,2.4027,-0.7739,-1.8312,
2.025846,-0.3188,0.3977,-0.1964,2.5899,-3.7781,-4.0693,2.6946,-0.4511,-1.2922,
2.040664,-0.3188,0.3977,-0.1964,2.5899,-3.7781,-4.0693,2.7239,0.0501,-0.9944,
2.060685,-0.3787,0.6127,0.0972,2.5899,-3.7781,-4.0693,2.7239,0.0501,-0.9944,
2.063615,-0.3787,0.6127,0.0972,2.3359,-1.5942,-0.4115,2.7239,0.0501,-0.9944,
2.065403,-0.3787,0.6127,0.0972,2.3359,-1.5942,-0.4115,2.3787,-0.0671,-0.6253,
2.080685,-0.3787,0.6127,0.0972,2.3359,-1.5942,-0.4115,2.1710,0.0144,-0.2514,
2.100912,-0.6181,0.7195,0.0916,2.3359,-1.5942,-0.4115,2.1710,0.0144,-0.2514,
2.104127,-0.6181,0.7195,0.0916,0.1211,-0.5341,0.2164,2.1710,0.0144,-0.2514,
2.106248,-0.6181,0.7195,0.0916,0.1211,-0.5341,0.2164,2.2658,0.4298,-0.0463,
2.120491,-0.6181,0.7195,0.0916,0.1211,-0.5341,0.2164,2.3106,-0.0107,0.4511,
2.140651,-0.6320,0.7578,-0.1879,0.1211,-0.5341,0.2164,2.3106,-0.0107,0.4511,
2.141721,-0.6320,0.7578,-0.1879,-0.0731,-0.2349,-1.7750,2.3106,-0.0107,0.4511,
2.142727,-0.6320,0.7578,-0.1879,-0.0731,-0.2349,-1.7750,2.0890,-0.6743,0.8730,
2.161024,-0.6320,0.7578,-0.1879,-0.0731,-0.2349,-1.7750,1.8887,-0.5193,1.3481,
2.181034,-0.6364,0.8983,-0.2013,-0.0731,-0.2349,-1.7750,1.8887,-0.5193,1.3481,
2.183225,-0.6364,0.8983,-0.2013,-0.4517,0.9050,-1.4105,1.8887,-0.5193,1.3481,
2.185203,-0.6364,0.8983,-0.2013,-0.4517,0.9050,-1.4105,1.6847,-0.1103,1.8759,
2.200847,-0.6364,0.8983,-0.2013,-0.4517,0.9050,-1.4105,1.7135,0.6589,2.1332,
2.220956,-1.3127,0.7732,-0.0963,-0.4517,0.9050,-1.4105,1.7135,0.6589,2.1332,
2.223052,-1.3127,0.7732,-0.0963,-7.7385,-0.7008,0.2255,1.7135,0.6589,2.1332,
2.224987,-1.3127,0.7732,-0.0963,-7.7385,-0.7008,0.2255,1.8615,0.9614,3.0248,
2.239884,-1.3127,0.7732,-0.0963,-7.7385,-0.7008,0.2255,1.7044,0.6120,5.6081,
2.260499,0.5485,0.1644,-0.6767,-7.7385,-0.7008,0.2255,1.7044,0.6120,5.6081,
2.262517,0.5485,0.1644,-0.6767,8.9697,-7.3083,-4.7112,1.7044,0.6120,5.6081,
2.264365,0.5485,0.1644,-0.6767,8.9697,-7.3083,-4.7112,0.9694,-1.2037,5.9996,
2.280238,0.5485,0.1644,-0.6767,8.9697,-7.3083,-4.7112,-0.7569,-4.2770,4.0629,
2.300768,0.5394,1.0280,-0.3894,8.9697,-7.3083,-4.7112,-0.7569,-4.2770,4.0629,
2.304346,0.5394,1.0280,-0.3894,7.2389,0.6141,-2.1271,-0.7569,-4.2770,4.0629,
2.306291,0.5394,1.0280,-0.3894,7.2389,0.6141,-2.1271,-0.9401,-2.9758,3.3007,
2.320864,0.5394,1.0280,-0.3894,7.2389,0.6141,-2.1271,-1.0429,-1.3966,1.0157,
2.340879,0.5661,3.3795,0.0286,7.2389,0.6141,-2.1271,-1.0429,-1.3966,1.0157,
2.342920,0.5661,3.3795,0.0286,6.8041,23.4641,1.4524,-1.0429,-1.3966,1.0157,
2.344807,0.5661,3.3795,0.0286,6.8041,23.4641,1.4524,-1.1462,-0.9816,-1.7966,
2.360437,0.5661,3.3795,0.0286,6.8041,23.4641,1.4524,-1.2602,-0.4037,-1.0844,
2.381244,-0.4217,0.5436,0.0090,6.8041,23.4641,1.4524,-1.2602,-0.4037,-1.0844,
2.385020,-0.4217,0.5436,0.0090,-2.2945,-4.2827,0.7559,-1.2602,-0.4037,-1.0844,
2.386962,-0.4217,0.5436,0.0090,-2.2945,-4.2827,0.7559,-1.5345,0.6759,-0.2024,
2.400918,-0.4217,0.5436,0.0090,-2.2945,-4.2827,0.7559,-1.6032,1.2980,-0.0101,
2.420961,-0.4825,0.6848,0.1422,-2.2945,-4.2827,0.7559,-1.6032,1.2980,-0.0101,
2.423051,-0.4825,0.6848,0.1422,-2.8626,-2.9156,1.5305,-1.6032,1.2980,-0.0101,
2.424984,-0.4825,0.6848,0.1422,-2.8626,-2.9156,1.5305,-1.3635,1.0701,0.0421,
2.440395,-0.4825,0.6848,0.1422,-2.8626,-2.9156,1.5305,-0.9758,0.1337,0.0639,
2.461823,-0.3819,0.8348,0.1107,-2.8626,-2.9156,1.5305,-0.9758,0.1337,0.0639,
2.465094,-0.3819,0.8348,0.1107,-1.8591,-1.4392,0.8092,-0.9758,0.1337,0.0639,
2.467301,-0.3819,0.8348,0.1107,-1.8591,-1.4392,0.8092,-0.6807,-0.7894,-0.0197,
2.480604,-0.3819,0.8348,0.1107,-1.8591,-1.4392,0.8092,-0.6088,-0.9598,-0.1001,
2.500671,-0.3667,0.8942,0.0493,-1.8591,-1.4392,0.8092,-0.6088,-0.9598,-0.1001,
2.502893,-0.3667,0.8942,0.0493,-1.6596,-0.8334,-0.1018,-0.6088,-0.9598,-0.1001,
2.504959,-0.3667,0.8942,0.0493,-1.6596,-0.8334,-0.1018,-0.6120,-0.8304,-0.0820,
2.520356,-0.3667,0.8942,0.0493,-1.6596,-0.8334,-0.1018,-0.5369,-0.7792,-0.0357,
2.540231,-0.3059,0.9894,0.0638,-1.6596,-0.8334,-0.1018,-0.5369,-0.7792,-0.0357,
2.544688,-0.3059,0.9894,0.0638,-1.0202,0.1294,-0.2303,-0.5369,-0.7792,-0.0357,
2.546797,-0.3059,0.9894,0.0638,-1.0202,0.1294,-0.2303,-0.3925,-0.8037,0.0112,
2.560141,-0.3059,0.9894,0.0638,-1.0202,0.1294,-0.2303,-0.2551,-0.8203,0.0538,
2.580270,-0.2702,1.0600,0.0200,-1.0202,0.1294,-0.2303,-0.2551,-0.8203,0.0538,
2.582342,-0.2702,1.0600,0.0200,-0.6941,0.8334,-0.8307,-0.2551,-0.8203,0.0538,
2.584268,-0.2702,1.0600,0.0200,-0.6941,0.8334,-0.8307,-0.1119,-0.7537,0.1380,
2.600380,-0.2702,1.0600,0.0200,-0.6941,0.8334,-0.8307,0.0325,-0.5736,0.2221,
2.620498,-0.2397,1.1546,-0.0486,-0.6941,0.8334,-0.8307,0.0325,-0.5736,0.2221,
2.623722,-0.2397,1.1546,-0.0486,-0.4917,1.7480,-1.5689,0.0325,-0.5736,0.2221,
2.625674,-0.2397,1.1546,-0.0486,-0.4917,1.7480,-1.5689,0.1449,-0.3361,0.2913,
2.639726,-0.2397,1.1546,-0.0486,-0.4917,1.7480,-1.5689,0.2104,-0.0559,0.3558,
2.659846,-0.2636,1.2704,-0.1424,-0.4917,1.7480,-1.5689,0.2104,-0.0559,0.3558,
2.662009,-0.2636,1.2704,-0.1424,-0.8586,2.8521,-2.4345,0.2104,-0.0559,0.3558,
2.663914,-0.2636,1.2704,-0.1424,-0.8586,2.8521,-2.4345,0.2141,0.0953,0.4245,
2.679708,-0.2636,1.2704,-0.1424,-0.8586,2.8521,-2.4345,0.2461,0.1880,0.4874,
2.700187,-0.3354,1.2863,-0.1393,-0.8586,2.8521,-2.4345,0.2461,0.1880,0.4874,
2.702284,-0.3354,1.2863,-0.1393,-1.7321,2.9687,-2.3058,0.2461,0.1880,0.4874,
2.704211,-0.3354,1.2863,-0.1393,-1.7321,2.9687,-2.3058,0.2322,-0.0234,0.5625,
2.719902,-0.3354,1.2863,-0.1393,-1.7321,2.9687,-2.3058,0.1438,-0.4868,0.5704,
2.739802,-0.4485,1.4009,0.0340,-1.7321,2.9687,-2.3058,0.1438,-0.4868,0.5704,
2.742929,-0.4485,1.4009,0.0340,-3.0683,4.0521,-0.5500,0.1438,-0.4868,0.5704,
2.745452,-0.4485,1.4009,0.0340,-3.0683,4.0521,-0.5500,-0.0458,-0.8703,0.5167,
2.759782,-0.4485,1.4009,0.0340,-3.0683,4.0521,-0.5500,-0.4091,-1.4493,0.4799,
2.780132,-0.0687,0.9912,0.1180,-3.0683,4.0521,-0.5500,-0.4091,-1.4493,0.4799,
2.782534,-0.0687,0.9912,0.1180,0.4184,0.0217,0.1303,-0.4091,-1.4493,0.4799,
2.784191,-0.0687,0.9912,0.1180,0.4184,0.0217,0.1303,-0.7739,-1.7257,0.4922,
2.800183,-0.0687,0.9912,0.1180,0.4184,0.0217,0.1303,-1.1627,-1.6187,0.3989,
2.820482,0.1329,0.8170,0.3657,0.4184,0.0217,0.1303,-1.1627,-1.6187,0.3989,
2.822338,0.1329,0.8170,0.3657,2.1378,-1.6539,2.1163,-1.1627,-1.6187,0.3989,
2.824166,0.1329,0.8170,0.3657,2.1378,-1.6539,2.1163,-1.2384,-1.2485,0.3041,
2.839904,0.1329,0.8170,0.3657,2.1378,-1.6539,2.1163,-0.8234,-0.5374,0.2679,
2.859819,0.1610,1.1859,0.6374,2.1378,-1.6539,2.1163,-0.8234,-0.5374,0.2679,
2.862775,0.1610,1.1859,0.6374,2.2439,2.0220,4.3549,-0.8234,-0.5374,0.2679,
2.864963,0.1610,1.1859,0.6374,2.2439,2.0220,4.3549,-0.0831,0.3324,0.2024,
2.879920,0.1610,1.1859,0.6374,2.2439,2.0220,4.3549,0.6578,0.8842,0.1731,
2.900005,-0.0103,1.1727,0.2973,2.2439,2.0220,4.3549,0.6578,0.8842,0.1731,
2.901935,-0.0103,1.1727,0.2973,0.5385,1.8669,1.1482,0.6578,0.8842,0.1731,
2.903536,-0.0103,1.1727,0.2973,0.5385,1.8669,1.1482,0.9832,1.1105,0.1646,
2.920016,-0.0103,1.1727,0.2973,0.5385,1.8669,1.1482,1.3566,1.7113,-0.1422,
2.939558,-0.4556,1.2230,0.1356,0.5385,1.8669,1.1482,1.3566,1.7113,-0.1422,
2.941409,-0.4556,1.2230,0.1356,-3.7449,2.2888,0.0525,1.3566,1.7113,-0.1422,
2.943198,-0.4556,1.2230,0.1356,-3.7449,2.2888,0.0525,1.9212,2.2988,-0.1129,
2.960039,-0.4556,1.2230,0.1356,-3.7449,2.2888,0.0525,2.0453,2.0112,0.4261,
2.980186,-0.2389,0.7007,0.0303,-3.7449,2.2888,0.0525,2.0453,2.0112,0.4261,
2.982147,-0.2389,0.7007,0.0303,-1.5535,-2.8964,-0.1866,2.0453,2.0112,0.4261,
2.984199,-0.2389,0.7007,0.0303,-1.5535,-2.8964,-0.1866,1.8765,1.2517,1.0440,
2.999898,-0.2389,0.7007,0.0303,-1.5535,-2.8964,-0.1866,1.5638,0.3633,1.3694,
3.020105,-0.0540,0.7263,-0.1451,-1.5535,-2.8964,-0.1866,1.5638,0.3633,1.3694,
3.021865,-0.0540,0.7263,-0.1451,-0.2059,-2.6811,-1.2129,1.5638,0.3633,1.3694,
3.023210,-0.0540,0.7263,-0.1451,-0.2059,-2.6811,-1.2129,1.1601,-0.1875,1.3662,
3.039131,-0.0540,0.7263,-0.1451,-0.2059,-2.6811,-1.2129,0.7132,-0.0740,1.1137,
3.059003,0.2035,0.5893,-0.3054,-0.2059,-2.6811,-1.2129,0.7132,-0.0740,1.1137,
3.061866,0.2035,0.5893,-0.3054,1.8343,-4.0137,-2.4177,0.7132,-0.0740,1.1137,
3.064024,0.2035,0.5893,-0.3054,1.8343,-4.0137,-2.4177,0.1875,-0.1225,0.8906,
3.079866,0.2035,0.5893,-0.3054,1.8343,-4.0137,-2.4177,-0.1108,-0.0666,0.7766,
3.099490,0.1573,0.5971,-0.1673,1.8343,-4.0137,-2.4177,-0.1108,-0.0666,0.7766,
3.102813,0.1573,0.5971,-0.1673,1.0584,-3.9254,-1.0488,-0.1108,-0.0666,0.7766,
3.104947,0.1573,0.5971,-0.1673,1.0584,-3.9254,-1.0488,-0.2376,-0.1017,0.7366,
3.119565,0.1573,0.5971,-0.1673,1.0584,-3.9254,-1.0488,-0.2839,-0.1646,0.7238,
3.140015,0.1615,0.7527,-0.1126,1.0584,-3.9254,-1.0488,-0.2839,-0.1646,0.7238,
3.142149,0.1615,0.7527,-0.1126,0.8169,-2.3877,-0.6109,-0.2839,-0.1646,0.7238,
3.144098,0.1615,0.7527,-0.1126,0.8169,-2.3877,-0.6109,-0.2951,-0.2589,0.6599,
3.159176,0.1615,0.7527,-0.1126,0.8169,-2.3877,-0.6109,-0.2722,-0.2637,0.4746,
3.179325,0.1041,0.9775,-0.1600,0.8169,-2.3877,-0.6109,-0.2722,-0.2637,0.4746,
3.181884,0.1041,0.9775,-0.1600,0.0378,-0.1703,-1.1767,-0.2722,-0.2637,0.4746,
3.183818,0.1041,0.9775,-0.1600,0.0378,-0.1703,-1.1767,-0.1891,-0.3025,0.1656,
3.199246,0.1041,0.9775,-0.1600,0.0378,-0.1703,-1.1767,0.0767,-0.2929,-0.0298,
3.220051,0.0865,1.0151,-0.3132,0.0378,-0.1703,-1.1767,0.0767,-0.2929,-0.0298,
3.222123,0.0865,1.0151,-0.3132,-0.1572,0.2015,-2.6599,0.0767,-0.2929,-0.0298,
3.224109,0.0865,1.0151,-0.3132,-0.1572,0.2015,-2.6599,0.2019,-0.3350,-0.1992,
3.239570,0.0865,1.0151,-0.3132,-0.1572,0.2015,-2.6599,0.0383,-0.3025,-0.3851,
3.258880,-0.0364,1.5350,-0.2194,-0.1572,0.2015,-2.6599,0.0383,-0.3025,-0.3851,
3.261177,-0.0364,1.5350,-0.2194,-1.2420,5.2874,-1.6816,0.0383,-0.3025,-0.3851,
3.263024,-0.0364,1.5350,-0.2194,-1.2420,5.2874,-1.6816,-0.1912,-0.4597,-0.3276,
3.279891,-0.0364,1.5350,-0.2194,-1.2420,5.2874,-1.6816,-0.5843,-0.9923,0.0618,
3.298590,0.3127,1.3510,-0.1126,-1.2420,5.2874,-1.6816,-0.5843,-0.9923,0.0618,
3.300762,0.3127,1.3510,-0.1126,2.2430,3.4737,-0.7626,-0.5843,-0.9923,0.0618,
3.302248,0.3127,1.3510,-0.1126,2.2430,3.4737,-0.7626,-1.2741,-1.6362,0.3318,
3.319318,0.3127,1.3510,-0.1126,2.2430,3.4737,-0.7626,-1.5436,-1.0306,-0.0442,
3.338379,0.3931,0.8614,0.0547,2.2430,3.4737,-0.7626,-1.5436,-1.0306,-0.0442,
3.340445,0.3931,0.8614,0.0547,2.9817,-1.3246,0.3736,-1.5436,-1.0306,-0.0442,
3.342221,0.3931,0.8614,0.0547,2.9817,-1.3246,0.3736,-1.8062,-0.6216,-0.6828,
3.358528,0.3931,0.8614,0.0547,2.9817,-1.3246,0.3736,-2.1641,-0.4559,-1.3231,
3.378890,0.2443,0.7832,0.2062,2.9817,-1.3246,0.3736,-2.1641,-0.4559,-1.3231,
3.382125,0.2443,0.7832,0.2062,1.8320,-2.0728,1.1158,-2.1641,-0.4559,-1.3231,
3.383611,0.2443,0.7832,0.2062,1.8320,-2.0728,1.1158,-2.5375,-0.3446,-1.9819,
3.398850,0.2443,0.7832,0.2062,1.8320,-2.0728,1.1158,-2.6403,-0.7228,-2.3526,
3.418669,-0.3892,0.9279,0.7002,1.8320,-2.0728,1.1158,-2.6403,-0.7228,-2.3526,
3.421398,-0.3892,0.9279,0.7002,-3.5696,-0.5131,4.9048,-2.6403,-0.7228,-2.3526,
3.423149,-0.3892,0.9279,0.7002,-3.5696,-0.5131,4.9048,-2.1486,-0.8314,-2.1572,
3.440584,-0.3892,0.9279,0.7002,-3.5696,-0.5131,4.9048,-1.4903,-0.2647,-1.3998,
3.458838,-0.7923,1.1324,0.7114,-3.5696,-0.5131,4.9048,-1.4903,-0.2647,-1.3998,
3.461286,-0.7923,1.1324,0.7114,-6.8936,1.6982,4.3126,-1.4903,-0.2647,-1.3998,
3.463008,-0.7923,1.1324,0.7114,-6.8936,1.6982,4.3126,-0.9486,1.2528,-0.6195,
3.479695,-0.7923,1.1324,0.7114,-6.8936,1.6982,4.3126,-0.5257,2.5092,-0.1459,
3.498781,-0.4131,0.8209,0.3293,-6.8936,1.6982,4.3126,-0.5257,2.5092,-0.1459,
3.501855,-0.4131,0.8209,0.3293,-2.8198,-1.2564,0.3720,-0.5257,2.5092,-0.1459,
3.503717,-0.4131,0.8209,0.3293,-2.8198,-1.2564,0.3720,-0.2828,2.7218,-0.0602,
3.518519,-0.4131,0.8209,0.3293,-2.8198,-1.2564,0.3720,-0.1470,2.0517,-0.1742,
3.539407,-0.2697,0.6044,0.1019,-2.8198,-1.2564,0.3720,-0.1470,2.0517,-0.1742,
3.541814,-0.2697,0.6044,0.1019,-1.0956,-3.3455,-1.8061,-0.1470,2.0517,-0.1742,
3.543934,-0.2697,0.6044,0.1019,-1.0956,-3.3455,-1.8061,-0.0250,0.9566,-0.2477,
3.559584,-0.2697,0.6044,0.1019,-1.0956,-3.3455,-1.8061,0.0437,0.0708,-0.2642,
3.578606,-0.1815,0.6477,0.0440,-1.0956,-3.3455,-1.8061,0.0437,0.0708,-0.2642,
3.581255,-0.1815,0.6477,0.0440,-0.0793,-2.9061,-2.3371,0.0437,0.0708,-0.2642,
3.583229,-0.1815,0.6477,0.0440,-0.0793,-2.9061,-2.3371,0.0474,-0.4080,-0.1816,
3.598331,-0.1815,0.6477,0.0440,-0.0793,-2.9061,-2.3371,0.0069,-0.5566,-0.0788,
3.619055,-0.0239,0.6731,0.0718,-0.0793,-2.9061,-2.3371,0.0069,-0.5566,-0.0788,
3.621580,-0.0239,0.6731,0.0718,1.4596,-2.6512,-2.0870,0.0069,-0.5566,-0.0788,
3.623534,-0.0239,0.6731,0.0718,1.4596,-2.6512,-2.0870,-0.0064,-0.4229,-0.0245,
3.641179,-0.0239,0.6731,0.0718,1.4596,-2.6512,-2.0870,0.0304,-0.1065,0.0154,
3.659567,-0.0716,0.8258,0.1268,1.4596,-2.6512,-2.0870,0.0304,-0.1065,0.0154,
3.663324,-0.0716,0.8258,0.1268,0.9648,-1.1559,-1.5616,0.0304,-0.1065,0.0154,
3.665388,-0.0716,0.8258,0.1268,0.9648,-1.1559,-1.5616,0.0186,0.1433,0.1204,
3.678647,-0.0716,0.8258,0.1268,0.9648,-1.1559,-1.5616,-0.0975,0.6051,0.2104,
3.699490,-0.2878,1.0481,0.2091,0.9648,-1.1559,-1.5616,-0.0975,0.6051,0.2104,
3.703015,-0.2878,1.0481,0.2091,-1.1703,1.0147,-0.7375,-0.0975,0.6051,0.2104,
3.705196,-0.2878,1.0481,0.2091,-1.1703,1.0147,-0.7375,-0.2493,1.0104,0.2338,
3.718480,-0.2878,1.0481,0.2091,-1.1703,1.0147,-0.7375,-0.2573,1.0796,0.2045,
3.738908,-0.5819,1.2694,0.3259,-1.1703,1.0147,-0.7375,-0.2573,1.0796,0.2045,
3.741378,-0.5819,1.2694,0.3259,-4.0171,3.1976,0.3829,-0.2573,1.0796,0.2045,
3.743099,-0.5819,1.2694,0.3259,-4.0171,3.1976,0.3829,-0.0234,0.8581,0.2791,
3.759155,-0.5819,1.2694,0.3259,-4.0171,3.1976,0.3829,0.3617,0.5965,0.4256,
3.778402,-0.5609,1.3381,0.1805,-4.0171,3.1976,0.3829,0.3617,0.5965,0.4256,
3.781426,-0.5609,1.3381,0.1805,-3.8608,3.8284,-0.9304,0.3617,0.5965,0.4256,
3.783627,-0.5609,1.3381,0.1805,-3.8608,3.8284,-0.9304,0.6780,0.5113,0.4101,
3.799209,-0.5609,1.3381,0.1805,-3.8608,3.8284,-0.9304,0.8096,0.4346,0.2418,
3.817915,-0.4214,1.4031,0.2973,-3.8608,3.8284,-0.9304,0.8096,0.4346,0.2418,
3.820241,-0.4214,1.4031,0.2973,-2.5668,4.3689,0.5213,0.8096,0.4346,0.2418,
3.821986,-0.4214,1.4031,0.2973,-2.5668,4.3689,0.5213,0.7942,-0.2290,0.2024,
3.838883,-0.4214,1.4031,0.2973,-2.5668,4.3689,0.5213,0.6716,-1.1132,0.1577,
3.858278,0.0042,0.9887,0.3357,-2.5668,4.3689,0.5213,0.6716,-1.1132,0.1577,
3.860591,0.0042,0.9887,0.3357,1.4766,0.2311,1.1332,0.6716,-1.1132,0.1577,
3.862216,0.0042,0.9887,0.3357,1.4766,0.2311,1.1332,0.5103,-1.3151,0.1023,
3.879627,0.0042,0.9887,0.3357,1.4766,0.2311,1.1332,0.3462,-1.0024,0.0581,
3.898498,0.2157,0.9176,0.4229,1.4766,0.2311,1.1332,0.3462,-1.0024,0.0581,
3.901764,0.2157,0.9176,0.4229,3.4221,-0.5061,2.0866,0.3462,-1.0024,0.0581,
3.903440,0.2157,0.9176,0.4229,3.4221,-0.5061,2.0866,0.2317,-0.5673,0.0799,
3.918676,0.2157,0.9176,0.4229,3.4221,-0.5061,2.0866,0.2642,-0.1278,0.1135,
3.938860,0.2426,1.0351,0.3557,3.4221,-0.5061,2.0866,0.2642,-0.1278,0.1135,
3.942175,0.2426,1.0351,0.3557,3.6205,0.6206,1.5046,0.2642,-0.1278,0.1135,
3.943873,0.2426,1.0351,0.3557,3.6205,0.6206,1.5046,0.4043,0.2434,0.0937,
3.958992,0.2426,1.0351,0.3557,3.6205,0.6206,1.5046,0.4874,0.4421,0.0298,
3.978709,0.0115,1.0161,0.1605,3.6205,0.6206,1.5046,0.4874,0.4421,0.0298,
3.980992,0.0115,1.0161,0.1605,1.3353,0.3960,-0.2308,0.4874,0.4421,0.0298,
3.982722,0.0115,1.0161,0.1605,1.3353,0.3960,-0.2308,0.4852,0.4820,0.0357,
3.997837,0.0115,1.0161,0.1605,1.3353,0.3960,-0.2308,0.5028,0.3718,0.0969,
4.018032,-0.0767,0.8922,0.0667,1.3353,0.3960,-0.2308,0.5028,0.3718,0.0969,
4.020641,-0.0767,0.8922,0.0667,0.4336,-0.8584,-0.9481,0.5028,0.3718,0.0969,
4.022530,-0.0767,0.8922,0.0667,0.4336,-0.8584,-0.9481,0.5412,0.1566,0.1385,
4.040206,-0.0767,0.8922,0.0667,0.4336,-0.8584,-0.9481,0.6173,0.0618,0.1742,
4.058045,-0.1383,0.7566,0.0423,0.4336,-0.8584,-0.9481,0.6173,0.0618,0.1742,
4.060472,-0.1383,0.7566,0.0423,-0.2233,-2.2289,-0.9598,0.6173,0.0618,0.1742,
4.062406,-0.1383,0.7566,0.0423,-0.2233,-2.2289,-0.9598,0.8400,0.1838,0.1790,
4.078649,-0.1383,0.7566,0.0423,-0.2233,-2.2289,-0.9598,0.9918,0.0874,0.1145,
4.098016,-0.2817,0.8245,0.0518,-0.2233,-2.2289,-0.9598,0.9918,0.0874,0.1145,
4.101358,-0.2817,0.8245,0.0518,-1.6786,-1.6135,-0.5066,0.9918,0.0874,0.1145,
4.103156,-0.2817,0.8245,0.0518,-1.6786,-1.6135,-0.5066,1.2682,0.3659,-0.1774,
4.117865,-0.2817,0.8245,0.0518,-1.6786,-1.6135,-0.5066,1.2586,0.1497,-0.3254,
4.138338,-0.3337,0.7041,-0.0066,-1.6786,-1.6135,-0.5066,1.2586,0.1497,-0.3254,
4.140717,-0.3337,0.7041,-0.0066,-2.0827,-2.8209,-0.5773,1.2586,0.1497,-0.3254,
4.142703,-0.3337,0.7041,-0.0066,-2.0827,-2.8209,-0.5773,0.8810,-0.4160,-0.1193,
4.158692,-0.3337,0.7041,-0.0066,-2.0827,-2.8209,-0.5773,0.4096,-0.6786,0.2615,
4.178153,-0.2773,0.6088,0.0039,-2.0827,-2.8209,-0.5773,0.4096,-0.6786,0.2615,
4.182182,-0.2773,0.6088,0.0039,-1.5652,-3.7681,-0.2498,0.4096,-0.6786,0.2615,
4.184473,-0.2773,0.6088,0.0039,-1.5652,-3.7681,-0.2498,0.0794,-0.4091,0.5870,
4.197631,-0.2773,0.6088,0.0039,-1.5652,-3.7681,-0.2498,-0.0836,-0.0080,0.9518,
4.217981,-0.1405,0.6831,0.0679,-1.5652,-3.7681,-0.2498,-0.0836,-0.0080,0.9518,
4.220566,-0.1405,0.6831,0.0679,-0.5264,-3.0710,0.3676,-0.0836,-0.0080,0.9518,
4.222493,-0.1405,0.6831,0.0679,-0.5264,-3.0710,0.3676,-0.0767,0.2354,1.2432,
4.239254,-0.1405,0.6831,0.0679,-0.5264,-3.0710,0.3676,0.0437,0.3467,1.3790,
4.258287,0.0105,1.0891,0.0525,-0.5264,-3.0710,0.3676,0.0437,0.3467,1.3790,
4.260709,0.0105,1.0891,0.0525,0.4444,0.8772,0.2171,0.0437,0.3467,1.3790,
4.262406,0.0105,1.0891,0.0525,0.4444,0.8772,0.2171,0.2940,0.5939,1.1537,
4.277852,0.0105,1.0891,0.0525,0.4444,0.8772,0.2171,0.7569,0.6706,0.5081,
4.297687,0.0970,1.0901,-0.2519,0.4444,0.8772,0.2171,0.7569,0.6706,0.5081,
4.300224,0.0970,1.0901,-0.2519,0.9775,0.8765,-2.5331,0.7569,0.6706,0.5081,
4.301886,0.0970,1.0901,-0.2519,0.9775,0.8765,-2.5331,1.1249,-0.0810,-0.0133,
4.317502,0.0970,1.0901,-0.2519,0.9775,0.8765,-2.5331,0.8203,-0.6866,-0.0783,
4.337937,0.0914,1.3994,-0.4329,0.9775,0.8765,-2.5331,0.8203,-0.6866,-0.0783,
4.340252,0.0914,1.3994,-0.4329,0.9437,3.9125,-3.9268,0.8203,-0.6866,-0.0783,
4.342007,0.0914,1.3994,-0.4329,0.9437,3.9125,-3.9268,-0.0921,-1.2932,-0.1523,
4.358492,0.0914,1.3994,-0.4329,0.9437,3.9125,-3.9268,-0.7899,-1.2469,-0.1268,
4.377095,0.2081,1.3698,-0.0880,0.9437,3.9125,-3.9268,-0.7899,-1.2469,-0.1268,
4.379646,0.2081,1.3698,-0.0880,2.1561,3.6193,-0.7230,-0.7899,-1.2469,-0.1268,
4.381105,0.2081,1.3698,-0.0880,2.1561,3.6193,-0.7230,-1.3337,-1.4269,-0.0511,
4.396864,0.2081,1.3698,-0.0880,2.1561,3.6193,-0.7230,-1.6517,-1.3364,-0.2727,
4.417675,0.3218,0.8917,0.0288,2.1561,3.6193,-0.7230,-1.6517,-1.3364,-0.2727,
4.419312,0.3218,0.8917,0.0288,3.3252,-1.0558,-0.1705,-1.6517,-1.3364,-0.2727,
4.420648,0.3218,0.8917,0.0288,3.3252,-1.0558,-0.1705,-1.8845,-0.9310,-0.8432,
4.439612,0.3218,0.8917,0.0288,3.3252,-1.0558,-0.1705,-2.2493,-0.8330,-1.5473,
4.457214,-0.1835,0.8741,0.4053,3.3252,-1.0558,-0.1705,-2.2493,-0.8330,-1.5473,
4.459936,-0.1835,0.8741,0.4053,-1.2246,-1.1408,2.7025,-2.2493,-0.8330,-1.5473,
4.461787,-0.1835,0.8741,0.4053,-1.2246,-1.1408,2.7025,-2.3020,-1.1776,-1.6591,
4.477095,-0.1835,0.8741,0.4053,-1.2246,-1.1408,2.7025,-1.8046,-0.8884,-0.8975,
4.497158,-0.8174,1.2069,0.8372,-1.2246,-1.1408,2.7025,-1.8046,-0.8884,-0.8975,
4.500124,-0.8174,1.2069,0.8372,-7.0153,2.2982,6.1136,-1.8046,-0.8884,-0.8975,
4.501683,-0.8174,1.2069,0.8372,-7.0153,2.2982,6.1136,-1.0386,0.4565,-0.0836,
4.517788,-0.8174,1.2069,0.8372,-7.0153,2.2982,6.1136,-0.2887,1.9830,0.1886,
4.537948,-0.3557,0.8008,0.4058,-7.0153,2.2982,6.1136,-0.2887,1.9830,0.1886,
4.540332,-0.3557,0.8008,0.4058,-2.3996,-1.6247,1.6846,-0.2887,1.9830,0.1886,
4.542265,-0.3557,0.8008,0.4058,-2.3996,-1.6247,1.6846,-0.0085,2.3143,-0.0437,
4.557543,-0.3557,0.8008,0.4058,-2.3996,-1.6247,1.6846,-0.0021,1.6890,-0.2029,
4.577984,-0.3386,0.6274,0.1258,-2.3996,-1.6247,1.6846,-0.0021,1.6890,-0.2029,
4.580521,-0.3386,0.6274,0.1258,-1.9759,-3.3110,-0.9783,-0.0021,1.6890,-0.2029,
4.582524,-0.3386,0.6274,0.1258,-1.9759,-3.3110,-0.9783,-0.1065,1.1185,-0.3143,
4.597007,-0.3386,0.6274,0.1258,-1.9759,-3.3110,-0.9783,-0.2248,0.7286,-0.3132,
4.618042,-0.2756,0.6232,0.0354,-1.9759,-3.3110,-0.9783,-0.2248,0.7286,-0.3132,
4.620716,-0.2756,0.6232,0.0354,-1.1584,-3.3189,-1.8736,-0.2248,0.7286,-0.3132,
4.622708,-0.2756,0.6232,0.0354,-1.1584,-3.3189,-1.8736,-0.3228,0.4352,-0.2429,
4.637355,-0.2756,0.6232,0.0354,-1.1584,-3.3189,-1.8736,-0.3446,0.1433,-0.1923,
4.657488,-0.0897,0.6499,0.0701,-1.1584,-3.3189,-1.8736,-0.3446,0.1433,-0.1923,
4.661275,-0.0897,0.6499,0.0701,0.7714,-3.0138,-1.6407,-0.3446,0.1433,-0.1923,
4.663062,-0.0897,0.6499,0.0701,0.7714,-3.0138,-1.6407,-0.3100,-0.0943,-0.1603,
4.677802,-0.0897,0.6499,0.0701,0.7714,-3.0138,-1.6407,-0.2642,-0.1843,-0.1039,
4.697675,-0.0235,0.6772,0.0814,0.7714,-3.0138,-1.6407,-0.2642,-0.1843,-0.1039,
4.700157,-0.0235,0.6772,0.0814,1.4563,-2.7095,-1.6473,-0.2642,-0.1843,-0.1039,
4.702009,-0.0235,0.6772,0.0814,1.4563,-2.7095,-1.6473,-0.2067,0.0458,-0.0554,
4.717649,-0.0235,0.6772,0.0814,1.4563,-2.7095,-1.6473,-0.2221,0.2115,0.0277,
4.737627,-0.1295,0.8309,0.1405,1.4563,-2.7095,-1.6473,-0.2221,0.2115,0.0277,
4.740600,-0.1295,0.8309,0.1405,0.4352,-1.1813,-1.1391,-0.2221,0.2115,0.0277,
4.742584,-0.1295,0.8309,0.1405,0.4352,-1.1813,-1.1391,-0.3494,0.3292,0.1736,
4.757940,-0.1295,0.8309,0.1405,0.4352,-1.1813,-1.1391,-0.5433,0.7212,0.2413,
4.777973,-0.3454,1.0161,0.2822,0.4352,-1.1813,-1.1391,-0.5433,0.7212,0.2413,
4.780407,-0.3454,1.0161,0.2822,-1.7004,0.6653,0.1219,-0.5433,0.7212,0.2413,
4.782197,-0.3454,1.0161,0.2822,-1.7004,0.6653,0.1219,-0.5960,0.9433,0.2429,
4.796602,-0.3454,1.0161,0.2822,-1.7004,0.6653,0.1219,-0.3526,0.7803,0.2823,
4.817190,-0.5311,1.1910,0.3066,-1.7004,0.6653,0.1219,-0.3526,0.7803,0.2823,
4.819569,-0.5311,1.1910,0.3066,-3.5190,2.4135,0.2456,-0.3526,0.7803,0.2823,
4.821328,-0.5311,1.1910,0.3066,-3.5190,2.4135,0.2456,0.0522,0.5896,0.3744,
4.837376,-0.5311,1.1910,0.3066,-3.5190,2.4135,0.2456,0.4069,0.5401,0.3606,
4.856824,-0.4407,1.2672,0.1581,-3.5190,2.4135,0.2456,0.4069,0.5401,0.3606,
4.859047,-0.4407,1.2672,0.1581,-2.7081,3.1116,-1.0878,0.4069,0.5401,0.3606,
4.861032,-0.4407,1.2672,0.1581,-2.7081,3.1116,-1.0878,0.7100,0.4416,0.2961,
4.877075,-0.4407,1.2672,0.1581,-2.7081,3.1116,-1.0878,0.9332,0.2328,0.2509,
4.896791,-0.4351,1.4302,0.1305,-2.7081,3.1116,-1.0878,0.9332,0.2328,0.2509,
4.899080,-0.4351,1.4302,0.1305,-2.7215,4.6102,-1.0298,0.9332,0.2328,0.2509,
4.901014,-0.4351,1.4302,0.1305,-2.7215,4.6102,-1.0298,0.8895,-0.0932,0.2695,
4.916830,-0.4351,1.4302,0.1305,-2.7215,4.6102,-1.0298,0.5433,-0.4613,0.3009,
4.937300,-0.2704,1.2533,0.3110,-2.7215,4.6102,-1.0298,0.5433,-0.4613,0.3009,
4.939589,-0.2704,1.2533,0.3110,-1.2390,2.7976,0.9935,0.5433,-0.4613,0.3009,
4.941348,-0.2704,1.2533,0.3110,-1.2390,2.7976,0.9935,-0.0011,-0.6200,0.2605,
4.956140,-0.2704,1.2533,0.3110,-1.2390,2.7976,0.9935,0.0399,-0.6519,0.2445,
4.976214,-0.0090,0.9880,0.4713,-1.2390,2.7976,0.9935,0.0399,-0.6519,0.2445,
4.977997,-0.0090,0.9880,0.4713,1.1745,0.1824,2.5376,0.0399,-0.6519,0.2445,
4.978934,-0.0090,0.9880,0.4713,1.1745,0.1824,2.5376,0.4522,-0.5641,0.1103,
4.996831,-0.0090,0.9880,0.4713,1.1745,0.1824,2.5376,0.7617,-0.5076,0.0996,
5.017019,0.1275,0.8822,0.2885,1.1745,0.1824,2.5376,0.7617,-0.5076,0.0996,
5.020172,0.1275,0.8822,0.2885,2.4246,-0.9063,0.9422,0.7617,-0.5076,0.0996,
5.022081,0.1275,0.8822,0.2885,2.4246,-0.9063,0.9422,0.7798,-0.4772,0.1374,
5.039866,0.1275,0.8822,0.2885,2.4246,-0.9063,0.9422,0.6328,-0.4085,0.1316,
5.057318,0.1476,0.9775,0.2228,2.4246,-0.9063,0.9422,0.6328,-0.4085,0.1316,
5.059581,0.1476,0.9775,0.2228,2.5078,-0.0279,0.5260,0.6328,-0.4085,0.1316,
5.061350,0.1476,0.9775,0.2228,2.5078,-0.0279,0.5260,0.4906,-0.3041,0.1145,
5.076393,0.1476,0.9775,0.2228,2.5078,-0.0279,0.5260,0.4240,-0.1332,0.1033,
5.097270,-0.0132,1.0341,0.1507,2.5078,-0.0279,0.5260,0.4240,-0.1332,0.1033,
5.099638,-0.0132,1.0341,0.1507,0.8511,0.4939,-0.0277,0.4240,-0.1332,0.1033,
5.101376,-0.0132,1.0341,0.1507,0.8511,0.4939,-0.0277,0.4027,0.0149,0.1172,
5.116260,-0.0132,1.0341,0.1507,0.8511,0.4939,-0.0277,0.4117,0.1337,0.1353,
5.137556,-0.1356,0.9430,0.0633,0.8511,0.4939,-0.0277,0.4117,0.1337,0.1353,
5.141108,-0.1356,0.9430,0.0633,-0.4096,-0.4279,-0.7315,0.4117,0.1337,0.1353,
5.142991,-0.1356,0.9430,0.0633,-0.4096,-0.4279,-0.7315,0.5151,0.3627,0.1140,
5.156844,-0.1356,0.9430,0.0633,-0.4096,-0.4279,-0.7315,0.8543,0.8538,0.1039,
5.176584,-0.2939,0.9267,0.1026,-0.4096,-0.4279,-0.7315,0.8543,0.8538,0.1039,
5.179805,-0.2939,0.9267,0.1026,-1.9528,-0.6223,-0.0674,0.8543,0.8538,0.1039,
5.181735,-0.2939,0.9267,0.1026,-1.9528,-0.6223,-0.0674,1.5004,1.4536,-0.1566,
5.196228,-0.2939,0.9267,0.1026,-1.9528,-0.6223,-0.0674,1.9244,1.3044,-0.4389,
5.217078,-0.4053,0.7832,-0.0523,-1.9528,-0.6223,-0.0674,1.9244,1.3044,-0.4389,
5.220984,-0.4053,0.7832,-0.0523,-2.8716,-2.0624,-0.8674,1.9244,1.3044,-0.4389,
5.223208,-0.4053,0.7832,-0.0523,-2.8716,-2.0624,-0.8674,1.7263,0.3968,-0.4357,
5.236108,-0.4053,0.7832,-0.0523,-2.8716,-2.0624,-0.8674,1.3976,-0.1747,-0.1049,
5.256081,-0.2893,0.6894,-0.0665,-2.8716,-2.0624,-0.8674,1.3976,-0.1747,-0.1049,
5.258662,-0.2893,0.6894,-0.0665,-1.6273,-2.9722,-0.3940,1.3976,-0.1747,-0.1049,
5.260776,-0.2893,0.6894,-0.0665,-1.6273,-2.9722,-0.3940,1.1010,-0.2178,0.2083,
5.276126,-0.2893,0.6894,-0.0665,-1.6273,-2.9722,-0.3940,0.7547,-0.1220,0.4948,
5.297484,-0.2072,0.6362,-0.1192,-1.6273,-2.9722,-0.3940,0.7547,-0.1220,0.4948,
5.301459,-0.2072,0.6362,-0.1192,-0.9566,-3.4941,-0.5585,0.7547,-0.1220,0.4948,
5.303741,-0.2072,0.6362,-0.1192,-0.9566,-3.4941,-0.5585,0.4687,0.1300,0.6722,
5.316149,-0.2072,0.6362,-0.1192,-0.9566,-3.4941,-0.5585,0.2951,0.2328,0.8735,
5.336636,-0.0662,0.6667,-0.1808,-0.9566,-3.4941,-0.5585,0.2951,0.2328,0.8735,
5.339041,-0.0662,0.6667,-0.1808,0.1193,-3.2128,-1.0069,0.2951,0.2328,0.8735,
5.340936,-0.0662,0.6667,-0.1808,0.1193,-3.2128,-1.0069,0.2823,0.0085,1.0125,
5.356036,-0.0662,0.6667,-0.1808,0.1193,-3.2128,-1.0069,0.1321,-0.0783,0.9209,
5.375891,0.1715,0.8389,-0.2634,0.1193,-3.2128,-1.0069,0.1321,-0.0783,0.9209,
5.378288,0.1715,0.8389,-0.2634,2.0733,-1.5406,-1.7360,0.1321,-0.0783,0.9209,
5.380304,0.1715,0.8389,-0.2634,2.0733,-1.5406,-1.7360,-0.0559,-0.0240,0.6892,
5.395455,0.1715,0.8389,-0.2634,2.0733,-1.5406,-1.7360,-0.1901,-0.0676,0.2956,
5.416781,-0.0335,0.9782,-0.3042,2.0733,-1.5406,-1.7360,-0.1901,-0.0676,0.2956,
5.419192,-0.0335,0.9782,-0.3042,-0.1261,-0.1858,-2.1843,-0.1901,-0.0676,0.2956,
5.421277,-0.0335,0.9782,-0.3042,-0.1261,-0.1858,-2.1843,-0.1859,-0.2253,-0.0852,
5.438206,-0.0335,0.9782,-0.3042,-0.1261,-0.1858,-2.1843,-0.0479,-0.1555,-0.3830,
5.456624,-0.1236,0.9108,-0.4141,-0.1261,-0.1858,-2.1843,-0.0479,-0.1555,-0.3830,
5.459169,-0.1236,0.9108,-0.4141,-0.9069,-0.8452,-3.2778,-0.0479,-0.1555,-0.3830,
5.461013,-0.1236,0.9108,-0.4141,-0.9069,-0.8452,-3.2778,0.0921,-0.2541,-0.4927,
5.475808,-0.1236,0.9108,-0.4141,-0.9069,-0.8452,-3.2778,-0.1135,-0.3696,-0.4511,
5.495666,-0.1090,1.4177,-0.2360,-0.9069,-0.8452,-3.2778,-0.1135,-0.3696,-0.4511,
5.498215,-0.1090,1.4177,-0.2360,-0.5693,4.1300,-1.5417,-0.1135,-0.3696,-0.4511,
5.500258,-0.1090,1.4177,-0.2360,-0.5693,4.1300,-1.5417,-0.2466,-0.2317,-0.4176,
5.516274,-0.1090,1.4177,-0.2360,-0.5693,4.1300,-1.5417,0.3878,0.5763,-0.5875,
5.535833,-0.1788,1.3383,-0.1180,-0.5693,4.1300,-1.5417,0.3878,0.5763,-0.5875,
5.538237,-0.1788,1.3383,-0.1180,-1.0635,3.3661,-0.3529,0.3878,0.5763,-0.5875,
5.540073,-0.1788,1.3383,-0.1180,-1.0635,3.3661,-0.3529,-0.3862,-2.2813,-0.8511,
5.555689,-0.1788,1.3383,-0.1180,-1.0635,3.3661,-0.3529,-0.7111,-2.1199,-0.1539,
5.575476,0.2453,0.9516,-0.1231,-1.0635,3.3661,-0.3529,-0.7111,-2.1199,-0.1539,
5.578475,0.2453,0.9516,-0.1231,3.3479,-0.4221,-0.6913,-0.7111,-2.1199,-0.1539,
5.580378,0.2453,0.9516,-0.1231,3.3479,-0.4221,-0.6913,-0.6024,-0.5310,-0.4655,
5.595860,0.2453,0.9516,-0.1231,3.3479,-0.4221,-0.6913,-0.8756,-0.7260,-1.0706,
5.615775,-0.1300,0.9841,-0.0132,3.3479,-0.4221,-0.6913,-0.8756,-0.7260,-1.0706,
5.618698,-0.1300,0.9841,-0.0132,-0.0384,-0.0823,0.0856,-0.8756,-0.7260,-1.0706,
5.620876,-0.1300,0.9841,-0.0132,-0.0384,-0.0823,0.0856,-1.4093,-1.6368,-1.3790,
5.640450,-0.1300,0.9841,-0.0132,-0.0384,-0.0823,0.0856,-1.9643,-2.0954,-0.9529,
5.655543,-0.7034,0.8834,0.2228,-0.0384,-0.0823,0.0856,-1.9643,-2.0954,-0.9529,
5.658828,-0.7034,0.8834,0.2228,-5.1780,-0.9828,1.6400,-1.9643,-2.0954,-0.9529,
5.661288,-0.7034,0.8834,0.2228,-5.1780,-0.9828,1.6400,-2.3324,-1.6751,-0.1332,
5.675570,-0.7034,0.8834,0.2228,-5.1780,-0.9828,1.6400,-2.1758,-0.2754,0.4123,
5.694980,-0.2897,0.9633,0.6279,-5.1780,-0.9828,1.6400,-2.1758,-0.2754,0.4123,
5.696711,-0.2897,0.9633,0.6279,-1.1909,-0.1105,4.6585,-2.1758,-0.2754,0.4123,
5.697946,-0.2897,0.9633,0.6279,-1.1909,-0.1105,4.6585,-1.6315,0.7952,0.3361,
5.714582,-0.2897,0.9633,0.6279,-1.1909,-0.1105,4.6585,-0.8059,1.2725,-0.1033,
5.735244,-0.3335,0.8118,0.4962,-1.1909,-0.1105,4.6585,-0.8059,1.2725,-0.1033,
5.737612,-0.3335,0.8118,0.4962,-1.5510,-1.5021,2.9217,-0.8059,1.2725,-0.1033,
5.739489,-0.3335,0.8118,0.4962,-1.5510,-1.5021,2.9217,-0.0985,1.2996,-0.2940,
5.756306,-0.3335,0.8118,0.4962,-1.5510,-1.5021,2.9217,0.2232,1.0946,-0.2812,
5.775680,-0.2541,0.7361,0.1283,-1.5510,-1.5021,2.9217,0.2232,1.0946,-0.2812,
5.779022,-0.2541,0.7361,0.1283,-0.5632,-2.2241,-0.5828,0.2232,1.0946,-0.2812,
5.781498,-0.2541,0.7361,0.1283,-0.5632,-2.2241,-0.5828,0.2573,0.8464,-0.2621,
5.795308,-0.2541,0.7361,0.1283,-0.5632,-2.2241,-0.5828,0.1369,0.7148,-0.2168,
5.815502,-0.2118,0.7319,-0.0638,-0.5632,-2.2241,-0.5828,0.1369,0.7148,-0.2168,
5.818706,-0.2118,0.7319,-0.0638,-0.0036,-2.2597,-2.3280,0.1369,0.7148,-0.2168,
5.820938,-0.2118,0.7319,-0.0638,-0.0036,-2.2597,-2.3280,-0.0629,0.6977,-0.1939,
5.835647,-0.2118,0.7319,-0.0638,-0.0036,-2.2597,-2.3280,-0.3073,0.7510,-0.1246,
5.855951,-0.1652,0.6655,-0.0735,-0.0036,-2.2597,-2.3280,-0.3073,0.7510,-0.1246,
5.858410,-0.1652,0.6655,-0.0735,0.5627,-2.8848,-2.4317,-0.3073,0.7510,-0.1246,
5.860381,-0.1652,0.6655,-0.0735,0.5627,-2.8848,-2.4317,-0.5364,0.6354,-0.0506,
5.875777,-0.1652,0.6655,-0.0735,0.5627,-2.8848,-2.4317,-0.6839,0.3361,-0.0016,
5.895704,-0.2013,0.6709,0.0239,0.5627,-2.8848,-2.4317,-0.6839,0.3361,-0.0016,
5.898131,-0.2013,0.6709,0.0239,0.2527,-2.7860,-1.6624,-0.6839,0.3361,-0.0016,
5.900078,-0.2013,0.6709,0.0239,0.2527,-2.7860,-1.6624,-0.7068,0.1912,-0.0021,
5.915691,-0.2013,0.6709,0.0239,0.2527,-2.7860,-1.6624,-0.6434,-0.1065,0.0277,
5.935682,-0.2529,0.8614,0.1244,0.2527,-2.7860,-1.6624,-0.6434,-0.1065,0.0277,
5.937811,-0.2529,0.8614,0.1244,-0.2542,-0.8653,-0.9263,-0.6434,-0.1065,0.0277,
5.939906,-0.2529,0.8614,0.1244,-0.2542,-0.8653,-0.9263,-0.5113,-0.2663,0.1289,
5.955193,-0.2529,0.8614,0.1244,-0.2542,-0.8653,-0.9263,-0.3851,0.0314,0.2088,
5.975675,-0.3237,0.9704,0.2057,-0.2542,-0.8653,-0.9263,-0.3851,0.0314,0.2088,
5.978974,-0.3237,0.9704,0.2057,-1.0188,0.2277,-0.3027,-0.3851,0.0314,0.2088,
5.980943,-0.3237,0.9704,0.2057,-1.0188,0.2277,-0.3027,-0.2924,0.4048,0.2626,
5.995400,-0.3237,0.9704,0.2057,-1.0188,0.2277,-0.3027,-0.2344,0.5055,0.2855,
6.015268,-0.4278,1.1619,0.2719,-1.0188,0.2277,-0.3027,-0.2344,0.5055,0.2855,
6.019537,-0.4278,1.1619,0.2719,-2.0815,2.1075,0.2964,-0.2344,0.5055,0.2855,
6.021356,-0.4278,1.1619,0.2719,-2.0815,2.1075,0.2964,-0.0911,0.3084,0.3430,
6.037679,-0.4278,1.1619,0.2719,-2.0815,2.1075,0.2964,0.1907,0.1028,0.3787,
6.055724,-0.4148,1.2965,0.1507,-2.0815,2.1075,0.2964,0.1907,0.1028,0.3787,
6.057976,-0.4148,1.2965,0.1507,-2.0691,3.3924,-0.8556,0.1907,0.1028,0.3787,
6.059908,-0.4148,1.2965,0.1507,-2.0691,3.3924,-0.8556,0.5555,0.1140,0.3755,
6.075127,-0.4148,1.2965,0.1507,-2.0691,3.3924,-0.8556,0.9582,0.2407,0.3467,
6.094483,-0.4827,1.4658,-0.0266,-2.0691,3.3924,-0.8556,0.9582,0.2407,0.3467,
6.096963,-0.4827,1.4658,-0.0266,-2.8542,4.9576,-2.2970,0.9582,0.2407,0.3467,
6.098791,-0.4827,1.4658,-0.0266,-2.8542,4.9576,-2.2970,1.1430,0.1747,0.3127,
6.115015,-0.4827,1.4658,-0.0266,-2.8542,4.9576,-2.2970,0.9289,-0.0953,0.3361,
6.135105,-0.3696,1.3517,0.1043,-2.8542,4.9576,-2.2970,0.9289,-0.0953,0.3361,
6.137535,-0.3696,1.3517,0.1043,-1.8648,3.7400,-0.6196,0.9289,-0.0953,0.3361,
6.139446,-0.3696,1.3517,0.1043,-1.8648,3.7400,-0.6196,0.4804,-0.3404,0.2306,
6.154700,-0.3696,1.3517,0.1043,-1.8648,3.7400,-0.6196,0.2919,-0.8687,0.1119,
6.175275,-0.0958,1.0635,0.4036,-1.8648,3.7400,-0.6196,0.2919,-0.8687,0.1119,
6.177753,-0.0958,1.0635,0.4036,0.7162,0.8787,2.4194,0.2919,-0.8687,0.1119,
6.179478,-0.0958,1.0635,0.4036,0.7162,0.8787,2.4194,0.3547,-1.4402,0.0383,
6.194997,-0.0958,1.0635,0.4036,0.7162,0.8787,2.4194,0.4389,-1.7635,-0.0021,
6.215247,0.1700,0.9252,0.4666,0.7162,0.8787,2.4194,0.4389,-1.7635,-0.0021,
6.217505,0.1700,0.9252,0.4666,3.2174,-0.5016,3.0861,0.4389,-1.7635,-0.0021,
6.219259,0.1700,0.9252,0.4666,3.2174,-0.5016,3.0861,0.4314,-1.6229,0.0016,
6.237671,0.1700,0.9252,0.4666,3.2174,-0.5016,3.0861,0.3856,-0.9816,0.0053,
6.255172,0.2587,1.0337,0.3677,3.2174,-0.5016,3.0861,0.3856,-0.9816,0.0053,
6.257593,0.2587,1.0337,0.3677,4.0095,0.5376,2.1942,0.3856,-0.9816,0.0053,
6.259202,0.2587,1.0337,0.3677,4.0095,0.5376,2.1942,0.4320,-0.3936,-0.0485,
6.274502,0.2587,1.0337,0.3677,4.0095,0.5376,2.1942,0.5390,-0.0133,-0.0937,
6.294950,-0.0506,0.9999,0.1102,4.0095,0.5376,2.1942,0.5390,-0.0133,-0.0937,
6.297200,-0.0506,0.9999,0.1102,0.9707,0.1840,-0.1706,0.5390,-0.0133,-0.0937,
6.298990,-0.0506,0.9999,0.1102,0.9707,0.1840,-0.1706,0.6205,0.2413,-0.0165,
6.315218,-0.0506,0.9999,0.1102,0.9707,0.1840,-0.1706,0.6727,0.2892,0.0346,
6.335267,-0.2519,0.8299,-0.0354,0.9707,0.1840,-0.1706,0.6727,0.2892,0.0346,
6.337597,-0.2519,0.8299,-0.0354,-1.0047,-1.5127,-1.3402,0.6727,0.2892,0.0346,
6.339636,-0.2519,0.8299,-0.0354,-1.0047,-1.5127,-1.3402,0.7132,0.2770,0.1380,
6.354704,-0.2519,0.8299,-0.0354,-1.0047,-1.5127,-1.3402,0.8192,0.6216,0.2503,
6.375104,-0.3308,0.7207,-0.0567,-1.0047,-1.5127,-1.3402,0.8192,0.6216,0.2503,
6.377718,-0.3308,0.7207,-0.0567,-1.8385,-2.6196,-1.2270,0.8192,0.6216,0.2503,
6.379809,-0.3308,0.7207,-0.0567,-1.8385,-2.6196,-1.2270,1.1004,1.1702,0.2003,
6.394732,-0.3308,0.7207,-0.0567,-1.8385,-2.6196,-1.2270,1.4291,1.2559,-0.1992,
6.415564,-0.4832,0.7742,-0.0799,-1.8385,-2.6196,-1.2270,1.4291,1.2559,-0.1992,
6.419130,-0.4832,0.7742,-0.0799,-3.3131,-2.1150,-0.8970,1.4291,1.2559,-0.1992,
6.421300,-0.4832,0.7742,-0.0799,-3.3131,-2.1150,-0.8970,1.4237,0.6599,-0.3217,
6.435842,-0.4832,0.7742,-0.0799,-3.3131,-2.1150,-0.8970,1.1963,0.0415,-0.0682,
6.454447,-0.2954,0.5819,-0.0926,-3.3131,-2.1150,-0.8970,1.1963,0.0415,-0.0682,
6.456938,-0.2954,0.5819,-0.0926,-1.3971,-3.9798,-0.4938,1.1963,0.0415,-0.0682,
6.458922,-0.2954,0.5819,-0.0926,-1.3971,-3.9798,-0.4938,0.8788,-0.2812,0.2866,
6.473782,-0.2954,0.5819,-0.0926,-1.3971,-3.9798,-0.4938,0.5177,-0.2668,0.6626,
6.494493,-0.2438,0.5993,-0.0840,-1.3971,-3.9798,-0.4938,0.5177,-0.2668,0.6626,
6.497027,-0.2438,0.5993,-0.0840,-1.0694,-3.8214,-0.1555,0.5177,-0.2668,0.6626,
6.498903,-0.2438,0.5993,-0.0840,-1.0694,-3.8214,-0.1555,0.3100,0.0980,0.9545,
6.514028,-0.2438,0.5993,-0.0840,-1.0694,-3.8214,-0.1555,0.2738,0.1694,1.2101,
6.533620,-0.0503,0.7859,-0.1143,-1.0694,-3.8214,-0.1555,0.2738,0.1694,1.2101,
6.535496,-0.0503,0.7859,-0.1143,0.4029,-2.0317,-0.3332,0.2738,0.1694,1.2101,
6.536577,-0.0503,0.7859,-0.1143,0.4029,-2.0317,-0.3332,0.3409,-0.0101,1.3263,
6.554686,-0.0503,0.7859,-0.1143,0.4029,-2.0317,-0.3332,0.3111,-0.1353,1.2810,
6.574381,0.2709,1.0114,-0.3384,0.4029,-2.0317,-0.3332,0.3111,-0.1353,1.2810,
6.577544,0.2709,1.0114,-0.3384,3.0462,0.1557,-2.4034,0.3111,-0.1353,1.2810,
6.579466,0.2709,1.0114,-0.3384,3.0462,0.1557,-2.4034,0.1465,-0.1268,0.8256,
6.594630,0.2709,1.0114,-0.3384,3.0462,0.1557,-2.4034,-0.0037,-0.1103,-0.1310,
6.614062,-0.0621,0.9792,-0.4876,3.0462,0.1557,-2.4034,-0.0037,-0.1103,-0.1310,
6.616755,-0.0621,0.9792,-0.4876,-0.3491,-0.1569,-3.7860,-0.0037,-0.1103,-0.1310,
6.618830,-0.0621,0.9792,-0.4876,-0.3491,-0.1569,-3.7860,-0.0059,-0.2354,-0.6306,
6.638645,-0.0621,0.9792,-0.4876,-0.3491,-0.1569,-3.7860,-0.1720,-0.2977,-0.6440,
6.654595,-0.1615,1.5401,-0.2465,-0.3491,-0.1569,-3.7860,-0.1720,-0.2977,-0.6440,
6.657155,-0.1615,1.5401,-0.2465,-1.0649,5.3466,-1.4617,-0.1720,-0.2977,-0.6440,
6.659043,-0.1615,1.5401,-0.2465,-1.0649,5.3466,-1.4617,-0.3419,-0.2818,-0.5582,
6.674036,-0.1615,1.5401,-0.2465,-1.0649,5.3466,-1.4617,-0.1497,-0.4432,-0.8416,
6.693875,-0.0493,1.2181,-0.1065,-1.0649,5.3466,-1.4617,-0.1497,-0.4432,-0.8416,
6.696832,-0.0493,1.2181,-0.1065,0.3194,2.2007,-0.1951,-0.1497,-0.4432,-0.8416,
6.698436,-0.0493,1.2181,-0.1065,0.3194,2.2007,-0.1951,-0.9859,-2.6898,-0.8048,
6.713314,-0.0493,1.2181,-0.1065,0.3194,2.2007,-0.1951,-1.1180,-2.1412,-0.2013,
6.733241,0.2343,0.9535,-0.0672,0.3194,2.2007,-0.1951,-1.1180,-2.1412,-0.2013,
6.733951,0.2343,0.9535,-0.0672,3.3541,-0.3986,-0.3109,-1.1180,-2.1412,-0.2013,
6.734406,0.2343,0.9535,-0.0672,3.3541,-0.3986,-0.3109,-1.0653,-1.0530,-0.8187,
6.754039,0.2343,0.9535,-0.0672,3.3541,-0.3986,-0.3109,-1.4514,-1.3673,-1.4312,
6.773483,-0.6384,1.1309,0.1781,3.3541,-0.3986,-0.3109,-1.4514,-1.3673,-1.4312,
6.775447,-0.6384,1.1309,0.1781,-4.7576,1.3934,1.5432,-1.4514,-1.3673,-1.4312,
6.776933,-0.6384,1.1309,0.1781,-4.7576,1.3934,1.5432,-1.8429,-1.8184,-1.0818,
6.794444,-0.6384,1.1309,0.1781,-4.7576,1.3934,1.5432,-1.9068,-1.3843,-0.1609,
6.814524,-0.5069,1.0752,0.5968,-4.7576,1.3934,1.5432,-1.9068,-1.3843,-0.1609,
6.816583,-0.5069,1.0752,0.5968,-3.2672,0.9338,4.8198,-1.9068,-1.3843,-0.1609,
6.817977,-0.5069,1.0752,0.5968,-3.2672,0.9338,4.8198,-1.3518,0.7276,0.5076,
6.835521,-0.5069,1.0752,0.5968,-3.2672,0.9338,4.8198,-0.6796,1.5899,0.0836,
6.853972,-0.2788,0.7842,0.5016,-3.2672,0.9338,4.8198,-0.6796,1.5899,0.0836,
6.856251,-0.2788,0.7842,0.5016,-1.0727,-1.8834,3.5531,-0.6796,1.5899,0.0836,
6.858179,-0.2788,0.7842,0.5016,-1.0727,-1.8834,3.5531,-0.0937,1.1393,-0.2370,
6.874208,-0.2788,0.7842,0.5016,-1.0727,-1.8834,3.5531,0.0879,0.8021,-0.3009,
6.893770,-0.2697,0.7935,0.1444,-1.0727,-1.8834,3.5531,0.0879,0.8021,-0.3009,
6.897425,-0.2697,0.7935,0.1444,-0.7927,-1.7606,0.0763,0.0879,0.8021,-0.3009,
6.899101,-0.2697,0.7935,0.1444,-0.7927,-1.7606,0.0763,0.0847,0.8117,-0.3473,
6.913684,-0.2697,0.7935,0.1444,-0.7927,-1.7606,0.0763,-0.0128,0.9177,-0.3292,
6.933967,-0.2172,0.7251,-0.0274,-0.7927,-1.7606,0.0763,-0.0128,0.9177,-0.3292,
6.937642,-0.2172,0.7251,-0.0274,-0.1046,-2.4067,-1.5261,-0.0128,0.9177,-0.3292,
6.939862,-0.2172,0.7251,-0.0274,-0.1046,-2.4067,-1.5261,-0.1507,1.0248,-0.2716,
6.955622,-0.2172,0.7251,-0.0274,-0.1046,-2.4067,-1.5261,-0.3153,0.9630,-0.2242,
6.974520,-0.1248,0.5678,-0.0647,-0.1046,-2.4067,-1.5261,-0.3153,0.9630,-0.2242,
6.977172,-0.1248,0.5678,-0.0647,0.9442,-3.9162,-1.8975,-0.3153,0.9630,-0.2242,
6.979037,-0.1248,0.5678,-0.0647,0.9442,-3.9162,-1.8975,-0.4724,0.7814,-0.1795,
6.993762,-0.1248,0.5678,-0.0647,0.9442,-3.9162,-1.8975,-0.5742,0.4996,-0.1268,
7.013965,-0.0977,0.5646,-0.0144,0.9442,-3.9162,-1.8975,-0.5742,0.4996,-0.1268,
7.016625,-0.0977,0.5646,-0.0144,1.3016,-3.9060,-1.5454,-0.5742,0.4996,-0.1268,
7.018428,-0.0977,0.5646,-0.0144,1.3016,-3.9060,-1.5454,-0.5848,0.2338,-0.0607,
7.034829,-0.0977,0.5646,-0.0144,1.3016,-3.9060,-1.5454,-0.5358,0.1981,-0.0165,
7.053816,-0.1805,0.7422,0.0799,1.3016,-3.9060,-1.5454,-0.5358,0.1981,-0.0165,
7.056217,-0.1805,0.7422,0.0799,0.5174,-2.1283,-0.8124,-0.5358,0.1981,-0.0165,
7.058079,-0.1805,0.7422,0.0799,0.5174,-2.1283,-0.8124,-0.4916,0.0559,0.0298,
7.073899,-0.1805,0.7422,0.0799,0.5174,-2.1283,-0.8124,-0.4517,0.1039,0.1241,
7.093377,-0.3555,0.9252,0.1402,0.5174,-2.1283,-0.8124,-0.4517,0.1039,0.1241,
7.096995,-0.3555,0.9252,0.1402,-1.2203,-0.3104,-0.3907,-0.4517,0.1039,0.1241,
7.099019,-0.3555,0.9252,0.1402,-1.2203,-0.3104,-0.3907,-0.4581,0.4373,0.2093,
7.113298,-0.3555,0.9252,0.1402,-1.2203,-0.3104,-0.3907,-0.4900,0.8192,0.2892,
7.134575,-0.4935,1.0649,0.2267,-1.2203,-0.3104,-0.3907,-0.4900,0.8192,0.2892,
7.138759,-0.4935,1.0649,0.2267,-2.5750,1.0795,0.3492,-0.4900,0.8192,0.2892,
7.140758,-0.4935,1.0649,0.2267,-2.5750,1.0795,0.3492,-0.4107,0.8405,0.3537,
7.154689,-0.4935,1.0649,0.2267,-2.5750,1.0795,0.3492,-0.1662,0.6365,0.3957,
7.173386,-0.4830,1.2570,0.1314,-2.5750,1.0795,0.3492,-0.1662,0.6365,0.3957,
7.176287,-0.4830,1.2570,0.1314,-2.5561,2.9499,-0.6267,-0.1662,0.6365,0.3957,
7.178352,-0.4830,1.2570,0.1314,-2.5561,2.9499,-0.6267,0.1518,0.6072,0.4133,
7.193010,-0.4830,1.2570,0.1314,-2.5561,2.9499,-0.6267,0.4330,0.7057,0.4069,
7.213700,-0.4798,1.3083,-0.0452,-2.5561,2.9499,-0.6267,0.4330,0.7057,0.4069,
7.216165,-0.4798,1.3083,-0.0452,-2.6305,3.3966,-2.1922,0.4330,0.7057,0.4069,
7.218045,-0.4798,1.3083,-0.0452,-2.6305,3.3966,-2.1922,0.6269,0.6860,0.3840,
7.234446,-0.4798,1.3083,-0.0452,-2.6305,3.3966,-2.1922,0.6977,0.4128,0.2434,
7.253433,-0.5025,1.3767,0.0322,-2.6305,3.3966,-2.1922,0.6977,0.4128,0.2434,
7.256470,-0.5025,1.3767,0.0322,-2.9360,3.9993,-1.1385,0.6977,0.4128,0.2434,
7.258371,-0.5025,1.3767,0.0322,-2.9360,3.9993,-1.1385,0.6402,-0.0490,0.2280,
7.273241,-0.5025,1.3767,0.0322,-2.9360,3.9993,-1.1385,0.4645,-0.6791,0.1827,
7.294308,-0.2370,1.3449,0.2868,-2.9360,3.9993,-1.1385,0.4645,-0.6791,0.1827,
7.298035,-0.2370,1.3449,0.2868,-0.4306,3.6421,1.5383,0.4645,-0.6791,0.1827,
7.300028,-0.2370,1.3449,0.2868,-0.4306,3.6421,1.5383,0.2860,-1.3385,0.0815,
7.313088,-0.2370,1.3449,0.2868,-0.4306,3.6421,1.5383,0.2354,-1.4983,0.0000,
7.333808,0.0484,1.0210,0.4226,-0.4306,3.6421,1.5383,0.2354,-1.4983,0.0000,
7.336967,0.0484,1.0210,0.4226,2.2782,0.4511,2.8644,0.2354,-1.4983,0.0000,
7.338606,0.0484,1.0210,0.4226,2.2782,0.4511,2.8644,0.1971,-1.0930,-0.0107,
7.355209,0.0484,1.0210,0.4226,2.2782,0.4511,2.8644,0.1353,-0.5774,0.0186,
7.373935,0.2333,0.9474,0.4354,2.2782,0.4511,2.8644,0.1353,-0.5774,0.0186,
7.376163,0.2333,0.9474,0.4354,4.0465,-0.2783,2.9929,0.1353,-0.5774,0.0186,
7.377879,0.2333,0.9474,0.4354,4.0465,-0.2783,2.9929,0.2216,-0.2147,0.0080,
7.393527,0.2333,0.9474,0.4354,4.0465,-0.2783,2.9929,0.3899,-0.0256,-0.0346,
7.414322,0.0564,0.9843,0.1818,4.0465,-0.2783,2.9929,0.3899,-0.0256,-0.0346,
7.416611,0.0564,0.9843,0.1818,2.2911,0.0673,0.6011,0.3899,-0.0256,-0.0346,
7.418252,0.0564,0.9843,0.1818,2.2911,0.0673,0.6011,0.4751,0.1518,0.0037,
7.436079,0.0564,0.9843,0.1818,2.2911,0.0673,0.6011,0.4517,0.3025,0.0623,
7.453670,-0.1283,0.9074,0.0002,2.2911,0.0673,0.6011,0.4517,0.3025,0.0623,
7.455944,-0.1283,0.9074,0.0002,0.4295,-0.7158,-1.0054,0.4517,0.3025,0.0623,
7.457870,-0.1283,0.9074,0.0002,0.4295,-0.7158,-1.0054,0.3984,0.4373,0.0889,
7.474025,-0.1283,0.9074,0.0002,0.4295,-0.7158,-1.0054,0.3739,0.5438,0.1454,
7.493629,-0.2130,0.7894,-0.0508,0.4295,-0.7158,-1.0054,0.3739,0.5438,0.1454,
7.496207,-0.2130,0.7894,-0.0508,-0.4298,-1.8944,-1.3244,0.3739,0.5438,0.1454,
7.498252,-0.2130,0.7894,-0.0508,-0.4298,-1.8944,-1.3244,0.4197,0.6120,0.2093,
7.513508,-0.2130,0.7894,-0.0508,-0.4298,-1.8944,-1.3244,0.6141,0.7398,0.2003,
7.533909,-0.2480,0.6819,-0.0445,-0.4298,-1.8944,-1.3244,0.6141,0.7398,0.2003,
7.536631,-0.2480,0.6819,-0.0445,-0.8319,-2.9757,-1.0191,0.6141,0.7398,0.2003,
7.538618,-0.2480,0.6819,-0.0445,-0.8319,-2.9757,-1.0191,0.8895,0.7686,0.1901,
7.553118,-0.2480,0.6819,-0.0445,-0.8319,-2.9757,-1.0191,1.1856,0.7505,-0.0698,
7.573861,-0.4031,0.7363,-0.0743,-0.8319,-2.9757,-1.0191,1.1856,0.7505,-0.0698,
7.576503,-0.4031,0.7363,-0.0743,-2.3641,-2.4604,-0.8624,1.1856,0.7505,-0.0698,
7.578540,-0.4031,0.7363,-0.0743,-2.3641,-2.4604,-0.8624,1.2842,0.4309,-0.3489,
7.593167,-0.4031,0.7363,-0.0743,-2.3641,-2.4604,-0.8624,1.1611,0.0059,-0.3318,
7.613537,-0.3430,0.6736,-0.0586,-2.3641,-2.4604,-0.8624,1.1611,0.0059,-0.3318,
7.618455,-0.3430,0.6736,-0.0586,-1.6438,-3.0478,-0.2231,1.1611,0.0059,-0.3318,
7.620764,-0.3430,0.6736,-0.0586,-1.6438,-3.0478,-0.2231,0.9140,-0.1843,-0.1023,
7.634171,-0.3430,0.6736,-0.0586,-1.6438,-3.0478,-0.2231,0.5715,-0.0415,0.2439,
7.653983,-0.3411,0.7222,-0.0567,-1.6438,-3.0478,-0.2231,0.5715,-0.0415,0.2439,
7.657270,-0.3411,0.7222,-0.0567,-1.6498,-2.5617,0.0743,0.5715,-0.0415,0.2439,
7.659935,-0.3411,0.7222,-0.0567,-1.6498,-2.5617,0.0743,0.1992,0.2258,0.5843,
7.672203,-0.3411,0.7222,-0.0567,-1.6498,-2.5617,0.0743,-0.0011,0.6168,0.8943,
7.693321,-0.2358,0.7955,-0.0491,-1.6498,-2.5617,0.0743,-0.0011,0.6168,0.8943,
7.695846,-0.2358,0.7955,-0.0491,-0.9147,-1.8865,0.2124,-0.0011,0.6168,0.8943,
7.697628,-0.2358,0.7955,-0.0491,-0.9147,-1.8865,0.2124,-0.0453,0.8176,1.2416,
7.712683,-0.2358,0.7955,-0.0491,-0.9147,-1.8865,0.2124,0.0410,0.2972,1.2634,
7.733396,0.1209,0.9982,-0.2641,-0.9147,-1.8865,0.2124,0.0410,0.2972,1.2634,
7.737474,0.1209,0.9982,-0.2641,2.0793,0.0435,-1.8685,0.0410,0.2972,1.2634,
7.739459,0.1209,0.9982,-0.2641,2.0793,0.0435,-1.8685,0.0820,-0.1257,0.9140,
7.753178,0.1209,0.9982,-0.2641,2.0793,0.0435,-1.8685,0.1454,-0.0160,0.3009,
7.773177,-0.0337,1.0283,-0.4913,2.0793,0.0435,-1.8685,0.1454,-0.0160,0.3009,
7.775582,-0.0337,1.0283,-0.4913,0.3334,0.3284,-3.9837,0.1454,-0.0160,0.3009,
7.777346,-0.0337,1.0283,-0.4913,0.3334,0.3284,-3.9837,0.1150,-0.2333,-0.2237,
7.792896,-0.0337,1.0283,-0.4913,0.3334,0.3284,-3.9837,-0.1326,-0.3185,-0.2136,
7.812593,-0.0552,1.0708,-0.3745,0.3334,0.3284,-3.9837,-0.1326,-0.3185,-0.2136,
7.814872,-0.0552,1.0708,-0.3745,0.2148,0.7550,-2.8013,-0.1326,-0.3185,-0.2136,
7.816645,-0.0552,1.0708,-0.3745,0.2148,0.7550,-2.8013,-0.4346,-0.1411,-0.1784,
7.832537,-0.0552,1.0708,-0.3745,0.2148,0.7550,-2.8013,-0.0703,0.5001,-0.3973,
7.852013,-0.2240,1.5733,-0.0691,0.2148,0.7550,-2.8013,-0.0703,0.5001,-0.3973,
7.854185,-0.2240,1.5733,-0.0691,-1.3330,5.6810,0.0994,-0.0703,0.5001,-0.3973,
7.855913,-0.2240,1.5733,-0.0691,-1.3330,5.6810,0.0994,-0.4804,-1.4589,-1.0610,
7.871869,-0.2240,1.5733,-0.0691,-1.3330,5.6810,0.0994,-1.1201,-2.5577,-0.3755,
7.892526,0.1309,0.9396,-0.0435,-1.3330,5.6810,0.0994,-1.1201,-2.5577,-0.3755,
7.894665,0.1309,0.9396,-0.0435,2.4721,-0.5188,-0.0469,-1.1201,-2.5577,-0.3755,
7.896601,0.1309,0.9396,-0.0435,2.4721,-0.5188,-0.0469,-0.7872,-0.5768,-0.2738,
7.912081,0.1309,0.9396,-0.0435,2.4721,-0.5188,-0.0469,-1.0434,-0.6754,-0.9832,
7.932575,-0.0533,0.9237,0.0391,2.4721,-0.5188,-0.0469,-1.0434,-0.6754,-0.9832,
7.936722,-0.0533,0.9237,0.0391,0.8860,-0.6526,0.3917,-1.0434,-0.6754,-0.9832,
7.938294,-0.0533,0.9237,0.0391,0.8860,-0.6526,0.3917,-1.4797,-1.5004,-1.5457,
7.953704,-0.0533,0.9237,0.0391,0.8860,-0.6526,0.3917,-1.7987,-1.8706,-1.2213,
7.972113,-0.8006,1.0070,0.2392,0.8860,-0.6526,0.3917,-1.7987,-1.8706,-1.2213,
7.975195,-0.8006,1.0070,0.2392,-5.9205,0.2813,1.6076,-1.7987,-1.8706,-1.2213,
7.977148,-0.8006,1.0070,0.2392,-5.9205,0.2813,1.6076,-1.8200,-1.4024,-0.2296,
7.992173,-0.8006,1.0070,0.2392,-5.9205,0.2813,1.6076,-1.6522,-0.4043,0.4756,
8.012753,-0.3007,1.0107,0.5001,-5.9205,0.2813,1.6076,-1.6522,-0.4043,0.4756,
8.016267,-0.3007,1.0107,0.5001,-1.1050,0.3853,3.4325,-1.6522,-0.4043,0.4756,
8.018421,-0.3007,1.0107,0.5001,-1.1050,0.3853,3.4325,-1.3273,0.2711,0.3792,
8.033243,-0.3007,1.0107,0.5001,-1.1050,0.3853,3.4325,-0.8783,0.8639,-0.0527,
8.052291,-0.3821,0.8766,0.4119,-1.1050,0.3853,3.4325,-0.8783,0.8639,-0.0527,
8.054566,-0.3821,0.8766,0.4119,-1.9067,-0.8612,2.1767,-0.8783,0.8639,-0.0527,
8.056548,-0.3821,0.8766,0.4119,-1.9067,-0.8612,2.1767,-0.4352,1.2512,-0.1678,
8.071993,-0.3821,0.8766,0.4119,-1.9067,-0.8612,2.1767,-0.1268,1.2943,-0.1268,
8.092426,-0.3095,0.7664,0.1146,-1.9067,-0.8612,2.1767,-0.1268,1.2943,-0.1268,
8.096283,-0.3095,0.7664,0.1146,-1.0068,-1.8980,-0.7590,-0.1268,1.2943,-0.1268,
8.098043,-0.3095,0.7664,0.1146,-1.0068,-1.8980,-0.7590,0.0229,1.2155,-0.1422,
8.111881,-0.3095,0.7664,0.1146,-1.0068,-1.8980,-0.7590,0.0719,1.0056,-0.1811,
8.132806,-0.2849,0.7393,-0.0340,-1.0068,-1.8980,-0.7590,0.0719,1.0056,-0.1811,
8.135497,-0.2849,0.7393,-0.0340,-0.6231,-2.1536,-2.1040,0.0719,1.0056,-0.1811,
8.137514,-0.2849,0.7393,-0.0340,-0.6231,-2.1536,-2.1040,0.0128,0.7377,-0.1864,
8.151601,-0.2849,0.7393,-0.0340,-0.6231,-2.1536,-2.1040,-0.1539,0.5763,-0.1119,
8.172811,-0.1920,0.6745,-0.0366,-0.6231,-2.1536,-2.1040,-0.1539,0.5763,-0.1119,
8.176203,-0.1920,0.6745,-0.0366,0.3885,-2.7699,-2.0984,-0.1539,0.5763,-0.1119,
8.178214,-0.1920,0.6745,-0.0366,0.3885,-2.7699,-2.0984,-0.3665,0.3499,-0.0708,
8.192617,-0.1920,0.6745,-0.0366,0.3885,-2.7699,-2.0984,-0.5545,0.0506,-0.0660,
8.211899,-0.1930,0.6633,0.0811,0.3885,-2.7699,-2.0984,-0.5545,0.0506,-0.0660,
8.214822,-0.1930,0.6633,0.0811,0.4187,-2.8405,-1.0983,-0.5545,0.0506,-0.0660,
8.216629,-0.1930,0.6633,0.0811,0.4187,-2.8405,-1.0983,-0.5689,-0.1342,-0.0650,
8.232170,-0.1930,0.6633,0.0811,0.4187,-2.8405,-1.0983,-0.4506,-0.3483,-0.0037,
8.252676,-0.2079,0.7862,0.1634,0.4187,-2.8405,-1.0983,-0.4506,-0.3483,-0.0037,
8.255111,-0.2079,0.7862,0.1634,0.2659,-1.5924,-0.5034,-0.4506,-0.3483,-0.0037,
8.256840,-0.2079,0.7862,0.1634,0.2659,-1.5924,-0.5034,-0.2919,-0.2338,0.0373,
8.271860,-0.2079,0.7862,0.1634,0.2659,-1.5924,-0.5034,-0.1561,0.1933,0.0687,
8.292053,-0.3452,0.9420,0.1972,0.2659,-1.5924,-0.5034,-0.1561,0.1933,0.0687,
8.294488,-0.3452,0.9420,0.1972,-1.1008,-0.0505,-0.2580,-0.1561,0.1933,0.0687,
8.296642,-0.3452,0.9420,0.1972,-1.1008,-0.0505,-0.2580,-0.0714,0.5369,0.1209,
8.311655,-0.3452,0.9420,0.1972,-1.1008,-0.0505,-0.2580,-0.0517,0.5539,0.1715,
8.332307,-0.4402,1.0955,0.2094,-1.1008,-0.0505,-0.2580,-0.0517,0.5539,0.1715,
8.336325,-0.4402,1.0955,0.2094,-2.0047,1.4499,-0.0958,-0.0517,0.5539,0.1715,
8.338325,-0.4402,1.0955,0.2094,-2.0047,1.4499,-0.0958,0.0160,0.2967,0.2498,
8.353808,-0.4402,1.0955,0.2094,-2.0047,1.4499,-0.0958,0.2317,0.0756,0.3079,
8.372068,-0.4168,1.2413,0.1207,-2.0047,1.4499,-0.0958,0.2317,0.0756,0.3079,
8.374461,-0.4168,1.2413,0.1207,-1.8626,2.8436,-0.9019,0.2317,0.0756,0.3079,
8.376583,-0.4168,1.2413,0.1207,-1.8626,2.8436,-0.9019,0.5699,0.0304,0.3143,
8.391232,-0.4168,1.2413,0.1207,-1.8626,2.8436,-0.9019,0.7989,0.1220,0.2605,
8.410970,-0.5353,1.3967,0.0198,-1.8626,2.8436,-0.9019,0.7989,0.1220,0.2605,
8.413321,-0.5353,1.3967,0.0198,-3.1253,4.2880,-1.6282,0.7989,0.1220,0.2605,
8.414559,-0.5353,1.3967,0.0198,-3.1253,4.2880,-1.6282,0.7436,0.0474,0.2290,
8.431815,-0.5353,1.3967,0.0198,-3.1253,4.2880,-1.6282,0.5097,-0.4538,0.3633,
8.452085,-0.2626,1.3713,0.2521,-3.1253,4.2880,-1.6282,0.5097,-0.4538,0.3633,
8.454417,-0.2626,1.3713,0.2521,-0.5783,3.9719,0.8682,0.5097,-0.4538,0.3633,
8.456141,-0.2626,1.3713,0.2521,-0.5783,3.9719,0.8682,0.1854,-1.3177,0.3340,
8.472068,-0.2626,1.3713,0.2521,-0.5783,3.9719,0.8682,0.0463,-1.8797,0.2977,
8.492007,0.0210,1.0009,0.4307,-0.5783,3.9719,0.8682,0.0463,-1.8797,0.2977,
8.494354,0.0210,1.0009,0.4307,1.9769,0.3108,2.5424,0.0463,-1.8797,0.2977,
8.496103,0.0210,1.0009,0.4307,1.9769,0.3108,2.5424,0.0208,-1.6703,0.2631,
8.512366,0.0210,1.0009,0.4307,1.9769,0.3108,2.5424,0.0767,-1.2426,0.2929,
8.532089,0.2416,0.9352,0.4466,1.9769,0.3108,2.5424,0.0767,-1.2426,0.2929,
8.534520,0.2416,0.9352,0.4466,3.9330,-0.3551,2.6191,0.0767,-1.2426,0.2929,
8.536584,0.2416,0.9352,0.4466,3.9330,-0.3551,2.6191,0.1848,-0.8980,0.2807,
8.551963,0.2416,0.9352,0.4466,3.9330,-0.3551,2.6191,0.3377,-0.4517,0.1507,
8.571440,0.0064,1.0442,0.2636,3.9330,-0.3551,2.6191,0.3377,-0.4517,0.1507,
8.573715,0.0064,1.0442,0.2636,1.4982,0.6817,0.8849,0.3377,-0.4517,0.1507,
8.575302,0.0064,1.0442,0.2636,1.4982,0.6817,0.8849,0.4591,0.1342,0.1758,
8.591840,0.0064,1.0442,0.2636,1.4982,0.6817,0.8849,0.5023,0.5577,0.2061,
8.611813,-0.1637,0.9616,0.1002,1.4982,0.6817,0.8849,0.5023,0.5577,0.2061,
8.613936,-0.1637,0.9616,0.1002,-0.2360,-0.1692,-0.5278,0.5023,0.5577,0.2061,
8.615883,-0.1637,0.9616,0.1002,-0.2360,-0.1692,-0.5278,0.5390,0.6541,0.1774,
8.631253,-0.1637,0.9616,0.1002,-0.2360,-0.1692,-0.5278,0.7095,0.7744,0.1896,
8.651117,-0.3259,0.9037,0.0643,-0.2360,-0.1692,-0.5278,0.7095,0.7744,0.1896,
8.654111,-0.3259,0.9037,0.0643,-1.8400,-0.7769,-0.6123,0.7095,0.7744,0.1896,
8.656573,-0.3259,0.9037,0.0643,-1.8400,-0.7769,-0.6123,1.2613,1.4839,0.1438,
8.671159,-0.3259,0.9037,0.0643,-1.8400,-0.7769,-0.6123,2.0293,2.0181,-0.0272,
8.691174,-0.4361,0.9037,-0.1204,-1.8400,-0.7769,-0.6123,2.0293,2.0181,-0.0272,
8.694179,-0.4361,0.9037,-0.1204,-2.8290,-0.8303,-1.6865,2.0293,2.0181,-0.0272,
8.696216,-0.4361,0.9037,-0.1204,-2.8290,-0.8303,-1.6865,2.0682,1.0195,0.1012,
8.711270,-0.4361,0.9037,-0.1204,-2.8290,-0.8303,-1.6865,1.8738,0.2131,0.1635,
8.731732,-0.3056,0.8089,-0.1097,-2.8290,-0.8303,-1.6865,1.8738,0.2131,0.1635,
8.735264,-0.3056,0.8089,-0.1097,-1.5738,-1.7715,-0.7824,1.8738,0.2131,0.1635,
8.737849,-0.3056,0.8089,-0.1097,-1.5738,-1.7715,-0.7824,1.7060,0.0043,0.3776,
8.750812,-0.3056,0.8089,-0.1097,-1.5738,-1.7715,-0.7824,1.3465,-0.1230,0.6844,
8.771656,-0.1783,0.6858,-0.2169,-1.5738,-1.7715,-0.7824,1.3465,-0.1230,0.6844,
8.774123,-0.1783,0.6858,-0.2169,-0.5302,-2.9703,-1.2453,1.3465,-0.1230,0.6844,
8.776166,-0.1783,0.6858,-0.2169,-0.5302,-2.9703,-1.2453,0.7926,-0.4357,0.8511,
8.791602,-0.1783,0.6858,-0.2169,-0.5302,-2.9703,-1.2453,0.3606,-0.3814,0.9017,
8.812325,-0.0718,0.5695,-0.1754,-0.5302,-2.9703,-1.2453,0.3606,-0.3814,0.9017,
8.815136,-0.0718,0.5695,-0.1754,0.1905,-4.1242,-0.6323,0.3606,-0.3814,0.9017,
8.816932,-0.0718,0.5695,-0.1754,0.1905,-4.1242,-0.6323,0.1465,-0.3244,1.0461,
8.837173,-0.0718,0.5695,-0.1754,0.1905,-4.1242,-0.6323,0.0298,-0.2152,1.1718,
8.851051,0.1126,0.6975,-0.1664,0.1905,-4.1242,-0.6323,0.0298,-0.2152,1.1718,
8.854033,0.1126,0.6975,-0.1664,1.5795,-2.8962,-0.5172,0.0298,-0.2152,1.1718,
8.856103,0.1126,0.6975,-0.1664,1.5795,-2.8962,-0.5172,-0.0405,-0.0767,1.2171,
8.871300,0.1126,0.6975,-0.1664,1.5795,-2.8962,-0.5172,-0.0527,-0.1342,1.0205,
8.891154,0.3208,0.7923,-0.2375,1.5795,-2.8962,-0.5172,-0.0527,-0.1342,1.0205,
8.894431,0.3208,0.7923,-0.2375,3.1887,-1.9809,-1.2330,-0.0527,-0.1342,1.0205,
8.896412,0.3208,0.7923,-0.2375,3.1887,-1.9809,-1.2330,-0.0442,-0.1917,0.6189,
8.911267,0.3208,0.7923,-0.2375,3.1887,-1.9809,-1.2330,-0.0415,-0.3361,0.1374,
8.931094,-0.0640,0.8834,-0.4073,3.1887,-1.9809,-1.2330,-0.0415,-0.3361,0.1374,
8.934388,-0.0640,0.8834,-0.4073,-0.7181,-1.0894,-2.9130,-0.0415,-0.3361,0.1374,
8.936611,-0.0640,0.8834,-0.4073,-0.7181,-1.0894,-2.9130,-0.1236,-0.6226,-0.1774,
8.952353,-0.0640,0.8834,-0.4073,-0.7181,-1.0894,-2.9130,-0.1630,-0.5827,-0.3680,
8.971075,-0.1261,0.9987,-0.4104,-0.7181,-1.0894,-2.9130,-0.1630,-0.5827,-0.3680,
8.973586,-0.1261,0.9987,-0.4104,-1.1890,0.0393,-2.9539,-0.1630,-0.5827,-0.3680,
8.975527,-0.1261,0.9987,-0.4104,-1.1890,0.0393,-2.9539,-0.1443,-0.5529,-0.3505,
8.990962,-0.1261,0.9987,-0.4104,-1.1890,0.0393,-2.9539,-0.3340,-0.6583,-0.4181,
9.011321,-0.1307,1.2584,-0.3828,-1.1890,0.0393,-2.9539,-0.3340,-0.6583,-0.4181,
9.014026,-0.1307,1.2584,-0.3828,-1.0599,2.5767,-2.7797,-0.3340,-0.6583,-0.4181,
9.015966,-0.1307,1.2584,-0.3828,-1.0599,2.5767,-2.7797,-0.5444,-0.7601,-0.7611,
9.031823,-0.1307,1.2584,-0.3828,-1.0599,2.5767,-2.7797,-0.5529,-0.6951,-0.9273,
9.050637,-0.5118,1.9877,-0.1739,-1.0599,2.5767,-2.7797,-0.5529,-0.6951,-0.9273,
9.053028,-0.5118,1.9877,-0.1739,-4.4407,9.7180,-0.9578,-0.5529,-0.6951,-0.9273,
9.054388,-0.5118,1.9877,-0.1739,-4.4407,9.7180,-0.9578,-0.2834,-0.4432,-0.8400,
9.070800,-0.5118,1.9877,-0.1739,-4.4407,9.7180,-0.9578,-0.4629,-1.2330,-0.4586,
9.091034,0.0943,0.9398,-0.1461,-4.4407,9.7180,-0.9578,-0.4629,-1.2330,-0.4586,
9.093496,0.0943,0.9398,-0.1461,1.7743,-0.5422,-0.8557,-0.4629,-1.2330,-0.4586,
9.095310,0.0943,0.9398,-0.1461,1.7743,-0.5422,-0.8557,-0.6424,-1.1494,-0.1305,
9.111684,0.0943,0.9398,-0.1461,1.7743,-0.5422,-0.8557,-0.8815,-1.2464,0.1065,
9.131576,0.4033,0.9100,-0.0652,1.7743,-0.5422,-0.8557,-0.8815,-1.2464,0.1065,
9.133999,0.4033,0.9100,-0.0652,4.8276,-0.8463,-0.4021,-0.8815,-1.2464,0.1065,
9.135885,0.4033,0.9100,-0.0652,4.8276,-0.8463,-0.4021,-0.9481,-1.1473,0.0197,
9.151078,0.4033,0.9100,-0.0652,4.8276,-0.8463,-0.4021,-0.8820,-1.4349,-0.5625,
9.170865,0.4688,1.1326,0.0227,4.8276,-0.8463,-0.4021,-0.8820,-1.4349,-0.5625,
9.173300,0.4688,1.1326,0.0227,5.5761,1.3435,0.0563,-0.8820,-1.4349,-0.5625,
9.174945,0.4688,1.1326,0.0227,5.5761,1.3435,0.0563,-0.8932,-2.1034,-1.1622,
9.190635,0.4688,1.1326,0.0227,5.5761,1.3435,0.0563,-1.0727,-2.7090,-1.8418,
9.211040,-0.1864,1.0679,0.1556,5.5761,1.3435,0.0563,-1.0727,-2.7090,-1.8418,
9.213996,-0.1864,1.0679,0.1556,-0.3079,0.7997,0.8591,-1.0727,-2.7090,-1.8418,
9.215682,-0.1864,1.0679,0.1556,-0.3079,0.7997,0.8591,-1.2799,-3.0882,-2.1433,
9.234733,-0.1864,1.0679,0.1556,-0.3079,0.7997,0.8591,-1.3124,-3.1345,-1.5287,
9.252055,-0.5548,0.9675,0.5165,-0.3079,0.7997,0.8591,-1.3124,-3.1345,-1.5287,
9.255419,-0.5548,0.9675,0.5165,-3.3452,0.0024,3.6653,-1.3124,-3.1345,-1.5287,
9.258398,-0.5548,0.9675,0.5165,-3.3452,0.0024,3.6653,-0.8666,-2.2493,-0.6695,
9.270282,-0.5548,0.9675,0.5165,-3.3452,0.0024,3.6653,-0.2876,-0.9774,-0.4916,
9.291058,-0.1224,0.9281,0.6159,-3.3452,0.0024,3.6653,-0.2876,-0.9774,-0.4916,
9.293503,-0.1224,0.9281,0.6159,1.0042,-0.2956,4.2692,-0.2876,-0.9774,-0.4916,
9.295224,-0.1224,0.9281,0.6159,1.0042,-0.2956,4.2692,0.4394,-0.6962,-0.7942,
9.310689,-0.1224,0.9281,0.6159,1.0042,-0.2956,4.2692,0.9795,-0.7148,-0.8485,
9.331102,-0.1947,0.8277,0.2331,1.0042,-0.2956,4.2692,0.9795,-0.7148,-0.8485,
9.333465,-0.1947,0.8277,0.2331,0.5307,-1.2462,0.6544,0.9795,-0.7148,-0.8485,
9.335207,-0.1947,0.8277,0.2331,0.5307,-1.2462,0.6544,1.1025,-0.6461,-0.7979,
9.350243,-0.1947,0.8277,0.2331,0.5307,-1.2462,0.6544,1.0088,-0.6109,-0.7228,
9.371323,-0.1945,0.7862,0.0515,0.5307,-1.2462,0.6544,1.0088,-0.6109,-0.7228,
9.373826,-0.1945,0.7862,0.0515,0.7784,-1.6372,-0.7973,1.0088,-0.6109,-0.7228,
9.375821,-0.1945,0.7862,0.0515,0.7784,-1.6372,-0.7973,0.8426,-0.6397,-0.6562,
9.390793,-0.1945,0.7862,0.0515,0.7784,-1.6372,-0.7973,0.6642,-0.6530,-0.5971,
9.410923,-0.2130,0.7471,-0.0056,0.7784,-1.6372,-0.7973,0.6642,-0.6530,-0.5971,
9.413411,-0.2130,0.7471,-0.0056,0.7993,-1.9866,-1.1488,0.6642,-0.6530,-0.5971,
9.415289,-0.2130,0.7471,-0.0056,0.7993,-1.9866,-1.1488,0.5119,-0.6413,-0.5193,
9.430955,-0.2130,0.7471,-0.0056,0.7993,-1.9866,-1.1488,0.4155,-0.7308,-0.4495,
9.450248,-0.1742,0.7231,0.0515,0.7993,-1.9866,-1.1488,0.4155,-0.7308,-0.4495,
9.453035,-0.1742,0.7231,0.0515,1.3312,-2.1832,-0.4978,0.4155,-0.7308,-0.4495,
9.454994,-0.1742,0.7231,0.0515,1.3312,-2.1832,-0.4978,0.4160,-0.9428,-0.4123,
9.470219,-0.1742,0.7231,0.0515,1.3312,-2.1832,-0.4978,0.4618,-1.1979,-0.3883,
9.490619,-0.1840,0.7583,0.1046,1.3312,-2.1832,-0.4978,0.4618,-1.1979,-0.3883,
9.493132,-0.1840,0.7583,0.1046,1.3412,-1.8063,0.0515,0.4618,-1.1979,-0.3883,
9.494798,-0.1840,0.7583,0.1046,1.3412,-1.8063,0.0515,0.4953,-1.3412,-0.3563,
9.510841,-0.1840,0.7583,0.1046,1.3412,-1.8063,0.0515,0.4948,-1.3790,-0.3095,
9.531325,-0.2196,0.8282,0.1378,1.3412,-1.8063,0.0515,0.4948,-1.3790,-0.3095,
9.533768,-0.2196,0.8282,0.1378,1.0618,-1.0984,0.3867,0.4948,-1.3790,-0.3095,
9.535566,-0.2196,0.8282,0.1378,1.0618,-1.0984,0.3867,0.4863,-1.2964,-0.2418,
9.549987,-0.2196,0.8282,0.1378,1.0618,-1.0984,0.3867,0.4964,-1.1995,-0.1348,
9.570714,-0.2805,0.8841,0.0933,1.0618,-1.0984,0.3867,0.4964,-1.1995,-0.1348,
9.573089,-0.2805,0.8841,0.0933,0.4872,-0.5446,-0.0292,0.4964,-1.1995,-0.1348,
9.574956,-0.2805,0.8841,0.0933,0.4872,-0.5446,-0.0292,0.4943,-1.0376,-0.0250,
9.589880,-0.2805,0.8841,0.0933,0.4872,-0.5446,-0.0292,0.4645,-0.9124,0.0357,
9.609822,-0.3220,0.9276,0.0259,0.4872,-0.5446,-0.0292,0.4645,-0.9124,0.0357,
9.612226,-0.3220,0.9276,0.0259,0.0405,-0.1374,-0.6380,0.4645,-0.9124,0.0357,
9.614101,-0.3220,0.9276,0.0259,0.0405,-0.1374,-0.6380,0.4075,-0.8788,0.1156,
9.630536,-0.3220,0.9276,0.0259,0.0405,-0.1374,-0.6380,0.3691,-0.8666,0.1625,
9.650298,-0.3887,0.9354,-0.0112,0.0405,-0.1374,-0.6380,0.3691,-0.8666,0.1625,
9.652694,-0.3887,0.9354,-0.0112,-0.6906,-0.0915,-0.9577,0.3691,-0.8666,0.1625,
9.654691,-0.3887,0.9354,-0.0112,-0.6906,-0.0915,-0.9577,0.3984,-0.7452,0.1507,
9.671723,-0.3887,0.9354,-0.0112,-0.6906,-0.0915,-0.9577,0.5039,-0.6999,0.1550,
9.690561,-0.4366,0.8920,-0.0696,-0.6906,-0.0915,-0.9577,0.5039,-0.6999,0.1550,
9.693164,-0.4366,0.8920,-0.0696,-0.5259,-0.3185,-0.5858,0.5039,-0.6999,0.1550,
9.695075,-0.4366,0.8920,-0.0696,-0.5259,-0.3185,-0.5858,0.6226,-0.8778,0.1731,
9.709426,-0.4366,0.8920,-0.0696,-0.5259,-0.3185,-0.5858,0.6179,-1.0663,0.2189,
9.730140,-0.3711,0.8968,-0.1845,-0.5259,-0.3185,-0.5858,0.6179,-1.0663,0.2189,
9.732695,-0.3711,0.8968,-0.1845,0.0520,-0.2952,-1.6108,0.6179,-1.0663,0.2189,
9.734544,-0.3711,0.8968,-0.1845,0.0520,-0.2952,-1.6108,0.5678,-1.1036,0.2035,
9.750785,-0.3711,0.8968,-0.1845,0.0520,-0.2952,-1.6108,0.5928,-1.0892,0.1316,
9.770356,-0.4757,0.9504,-0.0870,0.0520,-0.2952,-1.6108,0.5928,-1.0892,0.1316,
9.772884,-0.4757,0.9504,-0.0870,-1.0099,0.2159,-0.5846,0.5928,-1.0892,0.1316,
9.774774,-0.4757,0.9504,-0.0870,-1.0099,0.2159,-0.5846,0.7265,-1.1968,0.0714,
9.789935,-0.4757,0.9504,-0.0870,-1.0099,0.2159,-0.5846,0.8314,-1.3870,0.0346,
9.809737,-0.4659,1.0061,-0.0518,-1.0099,0.2159,-0.5846,0.8314,-1.3870,0.0346,
9.812336,-0.4659,1.0061,-0.0518,-0.9093,0.7673,-0.1395,0.8314,-1.3870,0.0346,
9.814031,-0.4659,1.0061,-0.0518,-0.9093,0.7673,-0.1395,0.8266,-1.3870,-0.0144,
9.830083,-0.4659,1.0061,-0.0518,-0.9093,0.7673,-0.1395,0.8144,-1.4376,-0.0399,
9.849971,-0.4007,1.3322,0.1366,-0.9093,0.7673,-0.1395,0.8144,-1.4376,-0.0399,
9.852386,-0.4007,1.3322,0.1366,-0.2367,3.9811,1.7970,0.8144,-1.4376,-0.0399,
9.854150,-0.4007,1.3322,0.1366,-0.2367,3.9811,1.7970,0.9289,-1.8600,-0.0479,
9.870672,-0.4007,1.3322,0.1366,-0.2367,3.9811,1.7970,1.1585,-2.4815,0.0469,
9.890175,-0.1051,1.2323,0.1859,-0.2367,3.9811,1.7970,1.1585,-2.4815,0.0469,
9.893687,-0.1051,1.2323,0.1859,2.7029,3.0223,2.3363,1.1585,-2.4815,0.0469,
9.895389,-0.1051,1.2323,0.1859,2.7029,3.0223,2.3363,1.4253,-2.8214,0.1316,
9.909291,-0.1051,1.2323,0.1859,2.7029,3.0223,2.3363,1.5265,-2.8815,0.1278,
9.929798,0.0743,1.0175,0.0794,2.7029,3.0223,2.3363,1.5265,-2.8815,0.1278,
9.932930,0.0743,1.0175,0.0794,4.4777,0.9318,1.3998,1.5265,-2.8815,0.1278,
9.934683,0.0743,1.0175,0.0794,4.4777,0.9318,1.3998,1.2597,-2.8996,0.0847,
9.949145,0.0743,1.0175,0.0794,4.4777,0.9318,1.3998,0.6679,-2.4453,0.0751,
9.970370,0.0928,1.1253,0.1031,4.4777,0.9318,1.3998,0.6679,-2.4453,0.0751,
9.972636,0.0928,1.1253,0.1031,4.6964,1.9994,1.5775,0.6679,-2.4453,0.0751,
9.974269,0.0928,1.1253,0.1031,4.6964,1.9994,1.5775,0.1294,-1.7108,0.1641,
9.989568,0.0928,1.1253,0.1031,4.6964,1.9994,1.5775,0.0911,-1.3193,0.2807,
10.009603,-0.0965,1.0302,0.1368,4.6964,1.9994,1.5775,0.0911,-1.3193,0.2807,
10.012824,-0.0965,1.0302,0.1368,2.7762,1.0311,1.7136,0.0911,-1.3193,0.2807,
10.014442,-0.0965,1.0302,0.1368,2.7762,1.0311,1.7136,0.3878,-0.8410,0.3776,
10.029502,-0.0965,1.0302,0.1368,2.7762,1.0311,1.7136,0.6088,-0.3462,0.4629,
10.050079,-0.2155,0.9108,0.0186,2.7762,1.0311,1.7136,0.6088,-0.3462,0.4629,
10.052272,-0.2155,0.9108,0.0186,1.3997,-0.2207,0.6140,0.6088,-0.3462,0.4629,
10.054077,-0.2155,0.9108,0.0186,1.3997,-0.2207,0.6140,0.6743,-0.1055,0.4661,
10.070461,-0.2155,0.9108,0.0186,1.3997,-0.2207,0.6140,0.7222,-0.1545,0.3989,
10.090275,-0.2243,0.7383,0.0064,1.3997,-0.2207,0.6140,0.7222,-0.1545,0.3989,
10.092710,-0.2243,0.7383,0.0064,1.1537,-1.9567,0.7291,0.7222,-0.1545,0.3989,
10.094433,-0.2243,0.7383,0.0064,1.1537,-1.9567,0.7291,0.8053,-0.4788,0.3233,
10.109701,-0.2243,0.7383,0.0064,1.1537,-1.9567,0.7291,0.8288,-0.7313,0.2700,
10.129650,-0.1757,0.7517,-0.1041,1.1537,-1.9567,0.7291,0.8288,-0.7313,0.2700,
10.132107,-0.1757,0.7517,-0.1041,1.5404,-1.8387,-0.1327,0.8288,-0.7313,0.2700,
10.134039,-0.1757,0.7517,-0.1041,1.5404,-1.8387,-0.1327,0.7787,-0.7308,0.2578,
10.149758,-0.1757,0.7517,-0.1041,1.5404,-1.8387,-0.1327,0.7329,-0.5614,0.2519,
10.169559,-0.1730,0.8338,-0.1654,1.5404,-1.8387,-0.1327,0.7329,-0.5614,0.2519,
10.172117,-0.1730,0.8338,-0.1654,1.4982,-1.0374,-0.5390,0.7329,-0.5614,0.2519,
10.173902,-0.1730,0.8338,-0.1654,1.4982,-1.0374,-0.5390,0.6631,-0.4373,0.2828,
10.190411,-0.1730,0.8338,-0.1654,1.4982,-1.0374,-0.5390,0.6040,-0.3910,0.2557,
10.209694,-0.1610,0.8392,-0.2262,1.4982,-1.0374,-0.5390,0.6040,-0.3910,0.2557,
10.212369,-0.1610,0.8392,-0.2262,1.5358,-0.9890,-0.9542,0.6040,-0.3910,0.2557,
10.214234,-0.1610,0.8392,-0.2262,1.5358,-0.9890,-0.9542,0.4085,-0.6429,0.1997,
10.230228,-0.1610,0.8392,-0.2262,1.5358,-0.9890,-0.9542,0.1103,-0.9124,0.0831,
10.249736,-0.1881,0.8189,-0.2866,1.5358,-0.9890,-0.9542,0.1103,-0.9124,0.0831,
10.252159,-0.1881,0.8189,-0.2866,1.2578,-1.1920,-1.5464,0.1103,-0.9124,0.0831,
10.254020,-0.1881,0.8189,-0.2866,1.2578,-1.1920,-1.5464,-0.1513,-0.9081,-0.0197,
10.269771,-0.1881,0.8189,-0.2866,1.2578,-1.1920,-1.5464,-0.3265,-0.7590,-0.0794,
10.289572,-0.2372,0.8592,-0.2937,1.2578,-1.1920,-1.5464,-0.3265,-0.7590,-0.0794,
10.293375,-0.2372,0.8592,-0.2937,0.8339,-0.8018,-1.8078,-0.3265,-0.7590,-0.0794,
10.295150,-0.2372,0.8592,-0.2937,0.8339,-0.8018,-1.8078,-0.4426,-0.5918,-0.1246,
10.308734,-0.2372,0.8592,-0.2937,0.8339,-0.8018,-1.8078,-0.4719,-0.4208,-0.2594,
10.329618,-0.3254,0.8692,-0.2585,0.8339,-0.8018,-1.8078,-0.4719,-0.4208,-0.2594,
10.333700,-0.3254,0.8692,-0.2585,0.0550,-0.6964,-1.6781,-0.4719,-0.4208,-0.2594,
10.336267,-0.3254,0.8692,-0.2585,0.0550,-0.6964,-1.6781,-0.4032,-0.3862,-0.4128,
10.349021,-0.3254,0.8692,-0.2585,0.0550,-0.6964,-1.6781,-0.2498,-0.6280,-0.5278,
10.369771,-0.3198,1.1170,-0.3108,0.0550,-0.6964,-1.6781,-0.2498,-0.6280,-0.5278,
10.372168,-0.3198,1.1170,-0.3108,0.2820,1.7814,-2.3341,-0.2498,-0.6280,-0.5278,
10.374003,-0.3198,1.1170,-0.3108,0.2820,1.7814,-2.3341,-0.0858,-0.6360,-0.5412,
10.388953,-0.3198,1.1170,-0.3108,0.2820,1.7814,-2.3341,0.1662,-0.1683,-0.6503,
10.409320,-0.3454,1.1690,-0.2424,0.2820,1.7814,-2.3341,0.1662,-0.1683,-0.6503,
10.413178,-0.3454,1.1690,-0.2424,0.2586,2.3764,-1.7054,0.1662,-0.1683,-0.6503,
10.415003,-0.3454,1.1690,-0.2424,0.2586,2.3764,-1.7054,0.5390,-0.1007,-0.6440,
10.429203,-0.3454,1.1690,-0.2424,0.2586,2.3764,-1.7054,0.8250,-0.9017,-0.4261,
10.448349,-0.1659,1.5599,-0.0418,0.2586,2.3764,-1.7054,0.8250,-0.9017,-0.4261,
10.450964,-0.1659,1.5599,-0.0418,2.2272,6.3080,0.4300,0.8250,-0.9017,-0.4261,
10.452073,-0.1659,1.5599,-0.0418,2.2272,6.3080,0.4300,0.4985,-3.1005,-0.1550,
10.467891,-0.1659,1.5599,-0.0418,2.2272,6.3080,0.4300,0.0442,-4.5141,-0.0756,
10.488600,0.0975,1.0161,-0.1466,2.2272,6.3080,0.4300,0.0442,-4.5141,-0.0756,
10.489792,0.0975,1.0161,-0.1466,4.9430,1.0046,-1.0978,0.0442,-4.5141,-0.0756,
10.490750,0.0975,1.0161,-0.1466,4.9430,1.0046,-1.0978,-0.5619,-3.9260,-0.0144,
10.508816,0.0975,1.0161,-0.1466,4.9430,1.0046,-1.0978,-1.0040,-2.5204,-0.0527,
10.528578,0.0088,0.8866,0.3015,4.9430,1.0046,-1.0978,-1.0040,-2.5204,-0.0527,
10.530826,0.0088,0.8866,0.3015,4.0346,-0.2766,2.5002,-1.0040,-2.5204,-0.0527,
10.532668,0.0088,0.8866,0.3015,4.0346,-0.2766,2.5002,-0.9454,-1.9862,-0.1784,
10.549927,0.0088,0.8866,0.3015,4.0346,-0.2766,2.5002,-0.4186,-2.1066,-0.2109,
10.568589,-0.0799,1.0410,0.5507,4.0346,-0.2766,2.5002,-0.4186,-2.1066,-0.2109,
10.570729,-0.0799,1.0410,0.5507,3.1524,1.2786,4.3661,-0.4186,-2.1066,-0.2109,
10.572463,-0.0799,1.0410,0.5507,3.1524,1.2786,4.3661,0.1651,-2.1353,-0.2605,
10.588723,-0.0799,1.0410,0.5507,3.1524,1.2786,4.3661,0.5651,-1.5846,-0.2173,
10.608109,-0.1700,0.9799,0.3112,3.1524,1.2786,4.3661,0.5651,-1.5846,-0.2173,
10.610730,-0.1700,0.9799,0.3112,2.2367,0.6885,1.8392,0.5651,-1.5846,-0.2173,
10.612471,-0.1700,0.9799,0.3112,2.2367,0.6885,1.8392,0.5337,-0.9774,-0.1166,
10.628377,-0.1700,0.9799,0.3112,2.2367,0.6885,1.8392,0.2386,-1.0402,-0.0778,
10.648438,-0.2086,0.8883,0.1678,2.2367,0.6885,1.8392,0.2386,-1.0402,-0.0778,
10.650779,-0.2086,0.8883,0.1678,1.7628,-0.2423,0.3748,0.2386,-1.0402,-0.0778,
10.652749,-0.2086,0.8883,0.1678,1.7628,-0.2423,0.3748,-0.0410,-1.1659,-0.1747,
10.668551,-0.2086,0.8883,0.1678,1.7628,-0.2423,0.3748,-0.1672,-1.0589,-0.2647,
10.688993,-0.3689,0.8810,0.1187,1.7628,-0.2423,0.3748,-0.1672,-1.0589,-0.2647,
10.691883,-0.3689,0.8810,0.1187,0.1701,-0.2899,-0.3246,-0.1672,-1.0589,-0.2647,
10.693984,-0.3689,0.8810,0.1187,0.1701,-0.2899,-0.3246,-0.1656,-0.9492,-0.2360,
10.708522,-0.3689,0.8810,0.1187,0.1701,-0.2899,-0.3246,-0.0320,-0.9385,-0.2077,
10.728784,-0.4422,0.8670,0.0181,0.1701,-0.2899,-0.3246,-0.0320,-0.9385,-0.2077,
10.732162,-0.4422,0.8670,0.0181,-0.5406,-0.3942,-1.4756,-0.0320,-0.9385,-0.2077,
10.733742,-0.4422,0.8670,0.0181,-0.5406,-0.3942,-1.4756,0.0730,-0.9571,-0.2115,
10.752758,-0.4422,0.8670,0.0181,-0.5406,-0.3942,-1.4756,0.0085,-1.0509,-0.1704,
10.769447,-0.4547,0.8411,-0.0183,-0.5406,-0.3942,-1.4756,0.0085,-1.0509,-0.1704,
10.772007,-0.4547,0.8411,-0.0183,-0.5273,-0.7237,-0.7569,0.0085,-1.0509,-0.1704,
10.773904,-0.4547,0.8411,-0.0183,-0.5273,-0.7237,-0.7569,-0.1625,-1.2144,-0.1539,
10.788737,-0.4547,0.8411,-0.0183,-0.5273,-0.7237,-0.7569,-0.2205,-1.5606,-0.1699,
10.808596,-0.3218,0.9005,0.0689,-0.5273,-0.7237,-0.7569,-0.2205,-1.5606,-0.1699,
10.812243,-0.3218,0.9005,0.0689,0.7867,-0.1142,-0.1837,-0.2205,-1.5606,-0.1699,
10.814268,-0.3218,0.9005,0.0689,0.7867,-0.1142,-0.1837,-0.1193,-1.7385,-0.1028,
10.827935,-0.3218,0.9005,0.0689,0.7867,-0.1142,-0.1837,0.0565,-1.4962,-0.0634,
10.848671,-0.3244,0.9093,0.0513,0.7867,-0.1142,-0.1837,0.0565,-1.4962,-0.0634,
10.851016,-0.3244,0.9093,0.0513,0.7158,-0.0198,-0.6080,0.0565,-1.4962,-0.0634,
10.852979,-0.3244,0.9093,0.0513,0.7158,-0.0198,-0.6080,0.2067,-1.0876,-0.0447,
10.868898,-0.3244,0.9093,0.0513,0.7158,-0.0198,-0.6080,0.2461,-0.8495,0.0043,
10.888659,-0.3926,0.9039,0.0271,0.7158,-0.0198,-0.6080,0.2461,-0.8495,0.0043,
10.891044,-0.3926,0.9039,0.0271,0.0058,-0.0845,-0.8936,0.2461,-0.8495,0.0043,
10.893039,-0.3926,0.9039,0.0271,0.0058,-0.0845,-0.8936,0.1635,-0.8277,0.0538,
10.907941,-0.3926,0.9039,0.0271,0.0058,-0.0845,-0.8936,0.0703,-0.8613,0.0692,
10.928924,-0.4393,0.9948,0.0945,0.0058,-0.0845,-0.8936,0.0703,-0.8613,0.0692,
10.931470,-0.4393,0.9948,0.0945,-0.5133,0.7888,-0.3009,0.0703,-0.8613,0.0692,
10.933209,-0.4393,0.9948,0.0945,-0.5133,0.7888,-0.3009,0.0921,-0.8666,0.0543,
10.949982,-0.4393,0.9948,0.0945,-0.5133,0.7888,-0.3009,0.2743,-0.9236,0.0107,
10.968694,-0.3948,1.0942,0.1182,-0.5133,0.7888,-0.3009,0.2743,-0.9236,0.0107,
10.972423,-0.3948,1.0942,0.1182,-0.1826,1.7082,0.0174,0.2743,-0.9236,0.0107,
10.974649,-0.3948,1.0942,0.1182,-0.1826,1.7082,0.0174,0.5177,-1.0434,-0.0325,
10.988014,-0.3948,1.0942,0.1182,-0.1826,1.7082,0.0174,0.7862,-1.2155,-0.0357,
11.008362,-0.3518,1.2572,0.0865,-0.1826,1.7082,0.0174,0.7862,-1.2155,-0.0357,
11.010988,-0.3518,1.2572,0.0865,0.2007,3.2811,-0.2242,0.7862,-1.2155,-0.0357,
11.012764,-0.3518,1.2572,0.0865,0.2007,3.2811,-0.2242,1.0764,-1.4168,-0.0565,
11.028011,-0.3518,1.2572,0.0865,0.2007,3.2811,-0.2242,1.3358,-1.6416,-0.0240,
11.047921,-0.3982,1.4211,-0.0159,0.2007,3.2811,-0.2242,1.3358,-1.6416,-0.0240,
11.050176,-0.3982,1.4211,-0.0159,-0.2988,4.8469,-1.0124,1.3358,-1.6416,-0.0240,
11.052075,-0.3982,1.4211,-0.0159,-0.2988,4.8469,-1.0124,1.3119,-1.6432,0.1481,
11.067985,-0.3982,1.4211,-0.0159,-0.2988,4.8469,-1.0124,0.9481,-1.4061,0.2700,
11.087534,-0.2565,1.3688,0.1036,-0.2988,4.8469,-1.0124,0.9481,-1.4061,0.2700,
11.090405,-0.2565,1.3688,0.1036,0.9680,4.2709,0.3534,0.9481,-1.4061,0.2700,
11.092264,-0.2565,1.3688,0.1036,0.9680,4.2709,0.3534,0.1332,-1.2661,0.2162,
11.108196,-0.2565,1.3688,0.1036,0.9680,4.2709,0.3534,-0.4437,-1.8046,0.2290,
11.127831,0.1248,1.1536,0.5428,0.9680,4.2709,0.3534,-0.4437,-1.8046,0.2290,
11.129953,0.1248,1.1536,0.5428,4.5765,2.1367,4.3917,-0.4437,-1.8046,0.2290,
11.131567,0.1248,1.1536,0.5428,4.5765,2.1367,4.3917,-0.2546,-2.2877,0.2003,
11.147809,0.1248,1.1536,0.5428,4.5765,2.1367,4.3917,0.1854,-2.1785,0.0724,
11.168817,0.3003,0.8964,0.4656,4.5765,2.1367,4.3917,0.1854,-2.1785,0.0724,
11.170999,0.3003,0.8964,0.4656,6.1474,-0.4015,3.3304,0.1854,-2.1785,0.0724,
11.172839,0.3003,0.8964,0.4656,6.1474,-0.4015,3.3304,0.5774,-1.7513,0.0714,
11.188112,0.3003,0.8964,0.4656,6.1474,-0.4015,3.3304,0.6796,-1.2069,0.1236,
11.207511,0.3137,0.9584,0.2135,6.1474,-0.4015,3.3304,0.6796,-1.2069,0.1236,
11.210431,0.3137,0.9584,0.2135,6.1592,0.1604,0.8999,0.6796,-1.2069,0.1236,
11.211735,0.3137,0.9584,0.2135,6.1592,0.1604,0.8999,0.5236,-0.6796,0.1854,
11.227770,0.3137,0.9584,0.2135,6.1592,0.1604,0.8999,0.3494,-0.3233,0.2322,
11.248260,0.0555,0.9914,0.1239,6.1592,0.1604,0.8999,0.3494,-0.3233,0.2322,
11.251095,0.0555,0.9914,0.1239,3.4796,0.4245,0.1079,0.3494,-0.3233,0.2322,
11.252793,0.0555,0.9914,0.1239,3.4796,0.4245,0.1079,0.2679,-0.1390,0.2961,
11.267595,0.0555,0.9914,0.1239,3.4796,0.4245,0.1079,0.3015,-0.1417,0.2818,
11.287917,-0.0559,0.8805,0.0923,3.4796,0.4245,0.1079,0.3015,-0.1417,0.2818,
11.290099,-0.0559,0.8805,0.0923,2.2095,-0.7255,-0.1262,0.3015,-0.1417,0.2818,
11.292074,-0.0559,0.8805,0.0923,2.2095,-0.7255,-0.1262,0.4266,-0.2493,0.2466,
11.307463,-0.0559,0.8805,0.0923,2.2095,-0.7255,-0.1262,0.5555,-0.3766,0.2221,
11.327422,-0.1622,0.8082,0.0476,2.2095,-0.7255,-0.1262,0.5555,-0.3766,0.2221,
11.329748,-0.1622,0.8082,0.0476,1.0673,-1.4786,-0.4144,0.5555,-0.3766,0.2221,
11.331670,-0.1622,0.8082,0.0476,1.0673,-1.4786,-0.4144,0.6695,-0.3601,0.1880,
11.347591,-0.1622,0.8082,0.0476,1.0673,-1.4786,-0.4144,1.0008,0.0996,0.1039,
11.367558,-0.2558,0.7967,0.1138,1.0673,-1.4786,-0.4144,1.0008,0.0996,0.1039,
11.369951,-0.2558,0.7967,0.1138,0.0908,-1.6310,0.5349,1.0008,0.0996,0.1039,
11.371787,-0.2558,0.7967,0.1138,0.0908,-1.6310,0.5349,1.6325,0.5891,-0.0586,
11.387627,-0.2558,0.7967,0.1138,0.0908,-1.6310,0.5349,1.8791,0.3164,0.0538,
11.408007,-0.3413,0.8961,-0.0176,0.0908,-1.6310,0.5349,1.8791,0.3164,0.0538,
11.410845,-0.3413,0.8961,-0.0176,-0.7411,-0.6719,-0.0436,1.8791,0.3164,0.0538,
11.413139,-0.3413,0.8961,-0.0176,-0.7411,-0.6719,-0.0436,1.5755,-0.4426,0.3808,
11.427840,-0.3413,0.8961,-0.0176,-0.7411,-0.6719,-0.0436,1.2203,-0.6546,0.6514,
11.447932,-0.3684,0.8912,-0.0691,-0.7411,-0.6719,-0.0436,1.2203,-0.6546,0.6514,
11.450337,-0.3684,0.8912,-0.0691,-1.1871,-0.7498,-0.0815,1.2203,-0.6546,0.6514,
11.452276,-0.3684,0.8912,-0.0691,-1.1871,-0.7498,-0.0815,0.8613,-0.3830,0.8634,
11.467812,-0.3684,0.8912,-0.0691,-1.1871,-0.7498,-0.0815,0.5081,-0.0810,1.0994,
11.488046,-0.0599,0.6059,-0.2438,-1.1871,-0.7498,-0.0815,0.5081,-0.0810,1.0994,
11.492698,-0.0599,0.6059,-0.2438,1.4700,-3.6146,-1.5546,0.5081,-0.0810,1.0994,
11.494947,-0.0599,0.6059,-0.2438,1.4700,-3.6146,-1.5546,0.1939,0.0117,1.4093,
11.507230,-0.0599,0.6059,-0.2438,1.4700,-3.6146,-1.5546,0.0772,-0.3633,1.4200,
11.527278,0.4908,0.7402,-0.3418,1.4700,-3.6146,-1.5546,0.0772,-0.3633,1.4200,
11.530474,0.4908,0.7402,-0.3418,6.3301,-2.3941,-2.4744,0.0772,-0.3633,1.4200,
11.532614,0.4908,0.7402,-0.3418,6.3301,-2.3941,-2.4744,-0.0485,-0.5907,0.9779,
11.547561,0.4908,0.7402,-0.3418,6.3301,-2.3941,-2.4744,-0.1662,-0.7350,0.2684,
11.567017,0.1703,0.9345,-0.3281,6.3301,-2.3941,-2.4744,-0.1662,-0.7350,0.2684,
11.569488,0.1703,0.9345,-0.3281,2.9706,-0.5293,-2.4181,-0.1662,-0.7350,0.2684,
11.571322,0.1703,0.9345,-0.3281,2.9706,-0.5293,-2.4181,-0.2131,-0.7254,-0.2312,
11.586971,0.1703,0.9345,-0.3281,2.9706,-0.5293,-2.4181,-0.2040,-0.7622,-0.3968,
11.606839,0.0203,1.0087,-0.3516,2.9706,-0.5293,-2.4181,-0.2040,-0.7622,-0.3968,
11.609116,0.0203,1.0087,-0.3516,1.6063,0.2071,-2.7284,-0.2040,-0.7622,-0.3968,
11.610310,0.0203,1.0087,-0.3516,1.6063,0.2071,-2.7284,-0.0549,-0.6732,-0.5854,
11.627099,0.0203,1.0087,-0.3516,1.6063,0.2071,-2.7284,0.0911,-0.6408,-0.7702,
11.646599,-0.1080,1.3564,-0.3083,1.6063,0.2071,-2.7284,0.0911,-0.6408,-0.7702,
11.648755,-0.1080,1.3564,-0.3083,0.6291,3.6564,-2.3379,0.0911,-0.6408,-0.7702,
11.649869,-0.1080,1.3564,-0.3083,0.6291,3.6564,-2.3379,-0.0495,-1.1707,-0.6754,
11.666826,-0.1080,1.3564,-0.3083,0.6291,3.6564,-2.3379,-0.1198,-1.3342,-0.2125,
11.686392,0.0239,1.4944,-0.1534,0.6291,3.6564,-2.3379,-0.1198,-1.3342,-0.2125,
11.688741,0.0239,1.4944,-0.1534,2.1238,5.0387,-0.9433,-0.1198,-1.3342,-0.2125,
11.690000,0.0239,1.4944,-0.1534,2.1238,5.0387,-0.9433,-0.2653,-1.4818,-0.3377,
11.707064,0.0239,1.4944,-0.1534,2.1238,5.0387,-0.9433,-0.7531,-2.1561,-0.3968,
11.726901,0.3528,0.9750,-0.0447,2.1238,5.0387,-0.9433,-0.7531,-2.1561,-0.3968,
11.729119,0.3528,0.9750,-0.0447,5.5165,-0.0302,-0.2166,-0.7531,-2.1561,-0.3968,
11.730985,0.3528,0.9750,-0.0447,5.5165,-0.0302,-0.2166,-0.9614,-2.1529,-0.1459,
11.747449,0.3528,0.9750,-0.0447,5.5165,-0.0302,-0.2166,-0.9369,-1.7518,-0.7350,
11.766543,0.4278,1.0847,-0.0161,5.5165,-0.0302,-0.2166,-0.9369,-1.7518,-0.7350,
11.768892,0.4278,1.0847,-0.0161,6.4172,1.0842,-0.4642,-0.9369,-1.7518,-0.7350,
11.770655,0.4278,1.0847,-0.0161,6.4172,1.0842,-0.4642,-1.1313,-1.6709,-1.7561,
11.786884,0.4278,1.0847,-0.0161,6.4172,1.0842,-0.4642,-1.5329,-1.8962,-2.4458,
11.806392,-0.7996,1.1153,0.5042,6.4172,1.0842,-0.4642,-1.5329,-1.8962,-2.4458,
11.808647,-0.7996,1.1153,0.5042,-4.8656,1.6364,3.9499,-1.5329,-1.8962,-2.4458,
11.810325,-0.7996,1.1153,0.5042,-4.8656,1.6364,3.9499,-1.7731,-2.1257,-1.6852,
11.826237,-0.7996,1.1153,0.5042,-4.8656,1.6364,3.9499,-1.1627,-0.5092,-0.1816,
11.846800,-0.3882,0.8495,0.5763,-4.8656,1.6364,3.9499,-1.1627,-0.5092,-0.1816,
11.848937,-0.3882,0.8495,0.5763,-0.5604,-0.7726,3.9488,-1.1627,-0.5092,-0.1816,
11.850757,-0.3882,0.8495,0.5763,-0.5604,-0.7726,3.9488,-0.4730,1.7092,0.4575,
11.866300,-0.3882,0.8495,0.5763,-0.5604,-0.7726,3.9488,-0.0767,1.7044,0.0037,
11.886395,-0.4383,0.7547,0.4024,-0.5604,-0.7726,3.9488,-0.0767,1.7044,0.0037,
11.888700,-0.4383,0.7547,0.4024,-1.0197,-1.7018,2.3074,-0.0767,1.7044,0.0037,
11.890510,-0.4383,0.7547,0.4024,-1.0197,-1.7018,2.3074,0.0383,0.9705,-0.2216,
11.907181,-0.4383,0.7547,0.4024,-1.0197,-1.7018,2.3074,-0.0453,0.4884,-0.2589,
11.927231,-0.3156,0.7659,0.2094,-1.0197,-1.7018,2.3074,-0.0453,0.4884,-0.2589,
11.929193,-0.3156,0.7659,0.2094,0.3166,-1.5535,0.4799,-0.0453,0.4884,-0.2589,
11.930473,-0.3156,0.7659,0.2094,0.3166,-1.5535,0.4799,-0.1358,0.1348,-0.2653,
11.947999,-0.3156,0.7659,0.2094,0.3166,-1.5535,0.4799,-0.1843,-0.0724,-0.2631,
11.967054,-0.1485,0.7446,0.0821,0.3166,-1.5535,0.4799,-0.1843,-0.0724,-0.2631,
11.969530,-0.1485,0.7446,0.0821,2.0515,-1.7151,-0.8210,-0.1843,-0.0724,-0.2631,
11.971498,-0.1485,0.7446,0.0821,2.0515,-1.7151,-0.8210,-0.2035,-0.0921,-0.2578,
11.986651,-0.1485,0.7446,0.0821,2.0515,-1.7151,-0.8210,-0.2349,-0.0245,-0.2045,
12.006755,-0.0689,0.7100,-0.0269,2.0515,-1.7151,-0.8210,-0.2349,-0.0245,-0.2045,
12.009621,-0.0689,0.7100,-0.0269,2.9112,-2.0077,-1.9758,-0.2349,-0.0245,-0.2045,
12.011555,-0.0689,0.7100,-0.0269,2.9112,-2.0077,-1.9758,-0.3036,0.1140,-0.1119,
12.026960,-0.0689,0.7100,-0.0269,2.9112,-2.0077,-1.9758,-0.3728,0.2892,-0.0027,
12.046929,-0.0777,0.6635,-0.0293,2.9112,-2.0077,-1.9758,-0.3728,0.2892,-0.0027,
12.049359,-0.0777,0.6635,-0.0293,2.8598,-2.4306,-2.0915,-0.3728,0.2892,-0.0027,
12.051183,-0.0777,0.6635,-0.0293,2.8598,-2.4306,-2.0915,-0.4469,0.3947,0.0751,
12.066416,-0.0777,0.6635,-0.0293,2.8598,-2.4306,-2.0915,-0.5071,0.5124,0.1065,
12.087155,-0.2060,0.7815,0.1036,2.8598,-2.4306,-2.0915,-0.5071,0.5124,0.1065,
12.091471,-0.2060,0.7815,0.1036,1.6041,-1.2519,-0.8934,-0.5071,0.5124,0.1065,
12.093450,-0.2060,0.7815,0.1036,1.6041,-1.2519,-0.8934,-0.5023,0.4320,0.1417,
12.106977,-0.2060,0.7815,0.1036,1.6041,-1.2519,-0.8934,-0.4879,0.1353,0.1774,
12.127014,-0.3086,0.9760,0.2008,1.6041,-1.2519,-0.8934,-0.4879,0.1353,0.1774,
12.129534,-0.3086,0.9760,0.2008,0.5640,0.6698,-0.0757,-0.4879,0.1353,0.1774,
12.131291,-0.3086,0.9760,0.2008,0.5640,0.6698,-0.0757,-0.4165,0.0959,0.1859,
12.147615,-0.3086,0.9760,0.2008,0.5640,0.6698,-0.0757,-0.2642,0.1907,0.2141,
12.166977,-0.4402,1.1521,0.1947,0.5640,0.6698,-0.0757,-0.2642,0.1907,0.2141,
12.169267,-0.4402,1.1521,0.1947,-0.7981,2.3872,-0.2198,-0.2642,0.1907,0.2141,
12.171130,-0.4402,1.1521,0.1947,-0.7981,2.3872,-0.2198,-0.1268,0.3569,0.2759,
12.186264,-0.4402,1.1521,0.1947,-0.7981,2.3872,-0.2198,0.0213,0.4788,0.3281,
12.206765,-0.4942,1.2843,0.1031,-0.7981,2.3872,-0.2198,0.0213,0.4788,0.3281,
12.209179,-0.4942,1.2843,0.1031,-1.3995,3.6450,-1.0783,0.0213,0.4788,0.3281,
12.211033,-0.4942,1.2843,0.1031,-1.3995,3.6450,-1.0783,0.2386,0.5561,0.3872,
12.226841,-0.4942,1.2843,0.1031,-1.3995,3.6450,-1.0783,0.4575,0.5965,0.4027,
12.246346,-0.4349,1.3068,0.0046,-1.3995,3.6450,-1.0783,0.4575,0.5965,0.4027,
12.248380,-0.4349,1.3068,0.0046,-0.9134,3.7842,-1.8401,0.4575,0.5965,0.4027,
12.249784,-0.4349,1.3068,0.0046,-0.9134,3.7842,-1.8401,0.6045,0.4858,0.2967,
12.265700,-0.4349,1.3068,0.0046,-0.9134,3.7842,-1.8401,0.6850,0.0149,0.1529,
12.286606,-0.3115,1.3569,0.1610,-0.9134,3.7842,-1.8401,0.6850,0.0149,0.1529,
12.289005,-0.3115,1.3569,0.1610,0.2325,4.2003,-0.0411,0.6850,0.0149,0.1529,
12.290771,-0.3115,1.3569,0.1610,0.2325,4.2003,-0.0411,0.7750,-0.6072,0.1401,
12.306642,-0.3115,1.3569,0.1610,0.2325,4.2003,-0.0411,0.6988,-1.0844,0.0362,
12.327003,-0.1026,1.1556,0.2651,0.2325,4.2003,-0.0411,0.6988,-1.0844,0.0362,
12.329359,-0.1026,1.1556,0.2651,2.1962,2.1709,1.1382,0.6988,-1.0844,0.0362,
12.331031,-0.1026,1.1556,0.2651,2.1962,2.1709,1.1382,0.5028,-1.1633,-0.0101,
12.348015,-0.1026,1.1556,0.2651,2.1962,2.1709,1.1382,0.3084,-0.8602,0.0325,
12.365849,0.1202,0.9364,0.3990,2.1962,2.1709,1.1382,0.3084,-0.8602,0.0325,
12.368514,0.1202,0.9364,0.3990,4.3171,-0.0015,2.4705,0.3084,-0.8602,0.0325,
12.370713,0.1202,0.9364,0.3990,4.3171,-0.0015,2.4705,0.1587,-0.4442,0.0985,
12.385770,0.1202,0.9364,0.3990,4.3171,-0.0015,2.4705,0.2381,0.0165,0.1033,
12.406035,0.1353,0.9599,0.3342,4.3171,-0.0015,2.4705,0.2381,0.0165,0.1033,
12.408942,0.1353,0.9599,0.3342,4.3990,0.2000,1.8740,0.2381,0.0165,0.1033,
12.410474,0.1353,0.9599,0.3342,4.3990,0.2000,1.8740,0.4277,0.1651,0.0154,
12.426413,0.1353,0.9599,0.3342,4.3990,0.2000,1.8740,0.5225,0.1923,0.0304,
12.446167,-0.0533,0.9303,0.0804,4.3990,0.2000,1.8740,0.5225,0.1923,0.0304,
12.449516,-0.0533,0.9303,0.0804,2.4741,-0.1395,-0.4404,0.5225,0.1923,0.0304,
12.451443,-0.0533,0.9303,0.0804,2.4741,-0.1395,-0.4404,0.4778,0.2360,0.0804,
12.466085,-0.0533,0.9303,0.0804,2.4741,-0.1395,-0.4404,0.3601,0.3404,0.1220,
12.485712,-0.1515,0.8543,-0.0107,2.4741,-0.1395,-0.4404,0.3601,0.3404,0.1220,
12.488505,-0.1515,0.8543,-0.0107,1.4516,-0.9262,-1.1466,0.3601,0.3404,0.1220,
12.489925,-0.1515,0.8543,-0.0107,1.4516,-0.9262,-1.1466,0.2589,0.3952,0.1406,
12.506007,-0.1515,0.8543,-0.0107,1.4516,-0.9262,-1.1466,0.2344,0.3185,0.1704,
12.526754,-0.1483,0.7911,0.0061,1.4516,-0.9262,-1.1466,0.2344,0.3185,0.1704,
12.531043,-0.1483,0.7911,0.0061,1.4388,-1.5740,-0.8481,0.2344,0.3185,0.1704,
12.533156,-0.1483,0.7911,0.0061,1.4388,-1.5740,-0.8481,0.2770,0.1614,0.1960,
12.546030,-0.1483,0.7911,0.0061,1.4388,-1.5740,-0.8481,0.3894,0.0165,0.2173,
12.566418,-0.1280,0.7481,0.0291,1.4388,-1.5740,-0.8481,0.3894,0.0165,0.2173,
12.568830,-0.1280,0.7481,0.0291,1.5634,-2.0301,-0.4885,0.3894,0.0165,0.2173,
12.570703,-0.1280,0.7481,0.0291,1.5634,-2.0301,-0.4885,0.5465,0.0250,0.2519,
12.585904,-0.1280,0.7481,0.0291,1.5634,-2.0301,-0.4885,0.7254,0.3840,0.3143,
12.606066,-0.3308,1.0195,0.0352,1.5634,-2.0301,-0.4885,0.7254,0.3840,0.3143,
12.608992,-0.3308,1.0195,0.0352,-0.5310,0.5804,-0.1672,0.7254,0.3840,0.3143,
12.610841,-0.3308,1.0195,0.0352,-0.5310,0.5804,-0.1672,1.0083,1.0583,0.2557,
12.626276,-0.3308,1.0195,0.0352,-0.5310,0.5804,-0.1672,1.0519,0.9800,0.1385,
12.646297,-0.4143,0.9196,0.0088,-0.5310,0.5804,-0.1672,1.0519,0.9800,0.1385,
12.649398,-0.4143,0.9196,0.0088,-1.4039,-0.4282,0.0647,1.0519,0.9800,0.1385,
12.651627,-0.4143,0.9196,0.0088,-1.4039,-0.4282,0.0647,0.7148,0.3547,0.2956,
12.665439,-0.4143,0.9196,0.0088,-1.4039,-0.4282,0.0647,0.3366,0.1571,0.6802,
12.685997,-0.2758,0.6027,-0.0103,-1.4039,-0.4282,0.0647,0.3366,0.1571,0.6802,
12.689610,-0.2758,0.6027,-0.0103,-0.2317,-3.5815,0.1031,0.3366,0.1571,0.6802,
12.691201,-0.2758,0.6027,-0.0103,-0.2317,-3.5815,0.1031,0.1683,0.5305,1.1761,
12.705538,-0.2758,0.6027,-0.0103,-0.2317,-3.5815,0.1031,0.0991,0.9401,1.5963,
12.726446,0.0555,0.7117,-0.0750,-0.2317,-3.5815,0.1031,0.0991,0.9401,1.5963,
12.728878,0.0555,0.7117,-0.0750,2.4781,-2.6343,-0.4162,0.0991,0.9401,1.5963,
12.730788,0.0555,0.7117,-0.0750,2.4781,-2.6343,-0.4162,0.1720,0.7004,1.8168,
12.745973,0.0555,0.7117,-0.0750,2.4781,-2.6343,-0.4162,0.3127,-0.1619,1.4040,
12.766496,0.4388,1.2315,-0.4434,2.4781,-2.6343,-0.4162,0.3127,-0.1619,1.4040,
12.770004,0.4388,1.2315,-0.4434,5.5439,2.3535,-3.8673,0.3127,-0.1619,1.4040,
12.772244,0.4388,1.2315,-0.4434,5.5439,2.3535,-3.8673,0.3015,-0.0719,0.4783,
12.786206,0.4388,1.2315,-0.4434,5.5439,2.3535,-3.8673,0.1140,0.1619,-0.4677,
12.804954,0.0943,0.8758,-0.4578,5.5439,2.3535,-3.8673,0.1140,0.1619,-0.4677,
12.807162,0.0943,0.8758,-0.4578,2.1168,-1.1310,-3.8682,0.1140,0.1619,-0.4677,
12.809083,0.0943,0.8758,-0.4578,2.1168,-1.1310,-3.8682,-0.2360,-0.2264,-0.6386,
12.826072,0.0943,0.8758,-0.4578,2.1168,-1.1310,-3.8682,-0.4778,-0.5119,-0.5449,
12.845669,-0.1695,1.7715,-0.1874,2.1168,-1.1310,-3.8682,-0.4778,-0.5119,-0.5449,
12.849173,-0.1695,1.7715,-0.1874,-0.2317,7.6694,-1.3759,-0.4778,-0.5119,-0.5449,
12.850837,-0.1695,1.7715,-0.1874,-0.2317,7.6694,-1.3759,-0.8144,-1.1393,-0.1944,
12.865526,-0.1695,1.7715,-0.1874,-0.2317,7.6694,-1.3759,-1.3044,-1.7092,-0.2764,
12.885250,0.2538,0.8903,0.0049,-0.2317,7.6694,-1.3759,-1.3044,-1.7092,-0.2764,
12.887682,0.2538,0.8903,0.0049,4.0209,-0.9615,0.0138,-1.3044,-1.7092,-0.2764,
12.889422,0.2538,0.8903,0.0049,4.0209,-0.9615,0.0138,-1.4866,-1.4727,-0.0527,
12.906053,0.2538,0.8903,0.0049,4.0209,-0.9615,0.0138,-1.4999,-1.0770,-0.2802,
12.925492,0.4376,1.0102,0.0948,4.0209,-0.9615,0.0138,-1.4999,-1.0770,-0.2802,
12.927704,0.4376,1.0102,0.0948,5.8672,0.2460,0.2394,-1.4999,-1.0770,-0.2802,
12.929317,0.4376,1.0102,0.0948,5.8672,0.2460,0.2394,-1.7172,-1.2916,-1.1036,
12.946233,0.4376,1.0102,0.0948,5.8672,0.2460,0.2394,-2.0693,-1.8216,-1.7683,
12.966047,-0.1429,1.0202,0.5736,5.8672,0.2460,0.2394,-2.0693,-1.8216,-1.7683,
12.969541,-0.1429,1.0202,0.5736,0.6341,0.5279,4.0906,-2.0693,-1.8216,-1.7683,
12.971248,-0.1429,1.0202,0.5736,0.6341,0.5279,4.0906,-2.0192,-1.6565,-1.8594,
12.985008,-0.1429,1.0202,0.5736,0.6341,0.5279,4.0906,-1.2842,-0.2072,-1.0306,
13.005094,-0.7454,1.0806,0.7891,0.6341,0.5279,4.0906,-1.2842,-0.2072,-1.0306,
13.008218,-0.7454,1.0806,0.7891,-4.7973,1.3748,5.5037,-1.2842,-0.2072,-1.0306,
13.010678,-0.7454,1.0806,0.7891,-4.7973,1.3748,5.5037,-0.4490,1.4860,-0.0549,
13.024459,-0.7454,1.0806,0.7891,-4.7973,1.3748,5.5037,0.0676,2.1753,0.1923,
13.044452,-0.2770,0.7727,0.3411,-4.7973,1.3748,5.5037,0.0676,2.1753,0.1923,
13.045130,-0.2770,0.7727,0.3411,-0.0729,-1.6260,1.2043,0.0676,2.1753,0.1923,
13.045594,-0.2770,0.7727,0.3411,-0.0729,-1.6260,1.2043,0.1656,1.7556,-0.1987,
13.065275,-0.2770,0.7727,0.3411,-0.0729,-1.6260,1.2043,0.1007,0.8059,-0.4304,
13.085826,-0.3142,0.7486,0.1251,-0.0729,-1.6260,1.2043,0.1007,0.8059,-0.4304,
13.088374,-0.3142,0.7486,0.1251,-0.2133,-1.8335,-0.7443,0.1007,0.8059,-0.4304,
13.090408,-0.3142,0.7486,0.1251,-0.2133,-1.8335,-0.7443,-0.0128,0.1598,-0.4506,
13.105080,-0.3142,0.7486,0.1251,-0.2133,-1.8335,-0.7443,-0.0634,0.0953,-0.3910,
13.125602,-0.1986,0.7493,0.0083,-0.2133,-1.8335,-0.7443,-0.0634,0.0953,-0.3910,
13.128191,-0.1986,0.7493,0.0083,1.0829,-1.7738,-1.8876,-0.0634,0.0953,-0.3910,
13.130047,-0.1986,0.7493,0.0083,1.0829,-1.7738,-1.8876,-0.1172,0.3585,-0.3457,
13.146092,-0.1986,0.7493,0.0083,1.0829,-1.7738,-1.8876,-0.2003,0.5886,-0.3238,
13.165863,-0.1366,0.6701,-0.0186,1.0829,-1.7738,-1.8876,-0.2003,0.5886,-0.3238,
13.168372,-0.1366,0.6701,-0.0186,1.8497,-2.4955,-2.1496,-0.2003,0.5886,-0.3238,
13.170236,-0.1366,0.6701,-0.0186,1.8497,-2.4955,-2.1496,-0.2732,0.6514,-0.2567,
13.184824,-0.1366,0.6701,-0.0186,1.8497,-2.4955,-2.1496,-0.3356,0.5172,-0.1672,
13.205455,-0.1241,0.6819,0.0621,1.8497,-2.4955,-2.1496,-0.3356,0.5172,-0.1672,
13.208126,-0.1241,0.6819,0.0621,2.0945,-2.3290,-1.3935,-0.3356,0.5172,-0.1672,
13.209784,-0.1241,0.6819,0.0621,2.0945,-2.3290,-1.3935,-0.4447,0.3388,-0.0783,
13.225630,-0.1241,0.6819,0.0621,2.0945,-2.3290,-1.3935,-0.5561,0.3526,-0.0261,
13.244257,-0.1962,0.7446,0.2223,2.0945,-2.3290,-1.3935,-0.5561,0.3526,-0.0261,
13.246360,-0.1962,0.7446,0.2223,1.4355,-1.6654,0.0435,-0.5561,0.3526,-0.0261,
13.248446,-0.1962,0.7446,0.2223,1.4355,-1.6654,0.0435,-0.5486,0.5854,0.0048,
13.265026,-0.1962,0.7446,0.2223,1.4355,-1.6654,0.0435,-0.3851,0.4453,0.0469,
13.285472,-0.2467,0.9110,0.2863,1.4355,-1.6654,0.0435,-0.3851,0.4453,0.0469,
13.289129,-0.2467,0.9110,0.2863,0.9757,0.0023,0.5736,-0.3851,0.4453,0.0469,
13.290816,-0.2467,0.9110,0.2863,0.9757,0.0023,0.5736,-0.2136,0.2929,0.0746,
13.304839,-0.2467,0.9110,0.2863,0.9757,0.0023,0.5736,-0.1694,0.3750,0.1635,
13.325533,-0.3274,1.0236,0.2140,0.9757,0.0023,0.5736,-0.1694,0.3750,0.1635,
13.329034,-0.3274,1.0236,0.2140,0.1561,1.0998,-0.1550,-0.1694,0.3750,0.1635,
13.330844,-0.3274,1.0236,0.2140,0.1561,1.0998,-0.1550,-0.2535,0.5145,0.2679,
13.347950,-0.3274,1.0236,0.2140,0.1561,1.0998,-0.1550,-0.2679,0.5076,0.3121,
13.365862,-0.3577,1.1673,0.2042,0.1561,1.0998,-0.1550,-0.2679,0.5076,0.3121,
13.368280,-0.3577,1.1673,0.2042,-0.2030,2.4899,-0.2723,-0.2679,0.5076,0.3121,
13.370181,-0.3577,1.1673,0.2042,-0.2030,2.4899,-0.2723,-0.0660,0.4724,0.3734,
13.385024,-0.3577,1.1673,0.2042,-0.2030,2.4899,-0.2723,0.2594,0.4272,0.3835,
13.404410,-0.3369,1.2824,0.1046,-0.2030,2.4899,-0.2723,0.2594,0.4272,0.3835,
13.407531,-0.3369,1.2824,0.1046,-0.0948,3.5599,-1.1560,0.2594,0.4272,0.3835,
13.409556,-0.3369,1.2824,0.1046,-0.0948,3.5599,-1.1560,0.5827,0.3137,0.3776,
13.424583,-0.3369,1.2824,0.1046,-0.0948,3.5599,-1.1560,0.7622,0.1688,0.3084,
13.445142,-0.4757,1.4585,0.0303,-0.0948,3.5599,-1.1560,0.7622,0.1688,0.3084,
13.448163,-0.4757,1.4585,0.0303,-1.5588,5.1880,-1.6100,0.7622,0.1688,0.3084,
13.450573,-0.4757,1.4585,0.0303,-1.5588,5.1880,-1.6100,0.6631,0.0463,0.3041,
13.465166,-0.4757,1.4585,0.0303,-1.5588,5.1880,-1.6100,0.2312,-0.0378,0.4671,
13.485251,-0.2717,1.2631,0.2467,-1.5588,5.1880,-1.6100,0.2312,-0.0378,0.4671,
13.487770,-0.2717,1.2631,0.2467,0.2998,3.1934,0.6751,0.2312,-0.0378,0.4671,
13.489441,-0.2717,1.2631,0.2467,0.2998,3.1934,0.6751,-0.2013,-0.3313,0.4794,
13.504598,-0.2717,1.2631,0.2467,0.2998,3.1934,0.6751,-0.1694,-0.5955,0.3633,
13.524941,-0.0818,0.9027,0.4725,0.2998,3.1934,0.6751,-0.1694,-0.5955,0.3633,
13.527152,-0.0818,0.9027,0.4725,1.9717,-0.3731,2.7664,-0.1694,-0.5955,0.3633,
13.529072,-0.0818,0.9027,0.4725,1.9717,-0.3731,2.7664,0.0368,-0.6647,0.2573,
13.546416,-0.0818,0.9027,0.4725,1.9717,-0.3731,2.7664,0.1838,-0.6471,0.2413,
13.564954,0.1038,0.9267,0.5042,1.9717,-0.3731,2.7664,0.1838,-0.6471,0.2413,
13.567011,0.1038,0.9267,0.5042,3.6500,-0.1737,3.0476,0.1838,-0.6471,0.2413,
13.568861,0.1038,0.9267,0.5042,3.6500,-0.1737,3.0476,0.2796,-0.4479,0.2178,
13.584001,0.1038,0.9267,0.5042,3.6500,-0.1737,3.0476,0.3654,-0.1678,0.1433,
13.604260,0.1048,0.9450,0.3171,3.6500,-0.1737,3.0476,0.3654,-0.1678,0.1433,
13.607505,0.1048,0.9450,0.3171,3.5347,-0.0417,1.2781,0.3654,-0.1678,0.1433,
13.609165,0.1048,0.9450,0.3171,3.5347,-0.0417,1.2781,0.4362,-0.0799,0.0453,
13.624106,0.1048,0.9450,0.3171,3.5347,-0.0417,1.2781,0.4421,-0.0921,0.0644,
13.644620,-0.0266,0.9372,0.1024,3.5347,-0.0417,1.2781,0.4421,-0.0921,0.0644,
13.646878,-0.0266,0.9372,0.1024,2.1317,-0.1719,-0.7026,0.4421,-0.0921,0.0644,
13.648678,-0.0266,0.9372,0.1024,2.1317,-0.1719,-0.7026,0.4192,-0.0660,0.0985,
13.664762,-0.0266,0.9372,0.1024,2.1317,-0.1719,-0.7026,0.3840,-0.0027,0.1358,
13.685011,-0.0997,0.8377,0.0156,2.1317,-0.1719,-0.7026,0.3840,-0.0027,0.1358,
13.688533,-0.0997,0.8377,0.0156,0.4439,-1.3658,-1.4157,0.3840,-0.0027,0.1358,
13.690526,-0.0997,0.8377,0.0156,0.4439,-1.3658,-1.4157,0.3931,0.0810,0.1678,
13.704376,-0.0997,0.8377,0.0156,0.4439,-1.3658,-1.4157,0.4421,0.1955,0.1752,
13.725166,-0.1727,0.8008,0.0371,0.4439,-1.3658,-1.4157,0.4421,0.1955,0.1752,
13.727554,-0.1727,0.8008,0.0371,-0.3296,-1.7616,-1.0374,0.4421,0.1955,0.1752,
13.729803,-0.1727,0.8008,0.0371,-0.3296,-1.7616,-1.0374,0.6637,0.4570,0.1965,
13.746169,-0.1727,0.8008,0.0371,-0.3296,-1.7616,-1.0374,1.0583,0.7808,0.1806,
13.763750,-0.3442,0.9450,0.0823,-0.3296,-1.7616,-1.0374,1.0583,0.7808,0.1806,
13.766673,-0.3442,0.9450,0.0823,-2.0435,-0.3999,-0.2293,1.0583,0.7808,0.1806,
13.768866,-0.3442,0.9450,0.0823,-2.0435,-0.3999,-0.2293,1.4504,0.9332,-0.0021,
13.783850,-0.3442,0.9450,0.0823,-2.0435,-0.3999,-0.2293,1.5505,0.5971,-0.1529,
13.804095,-0.4131,0.9396,0.0095,-2.0435,-0.3999,-0.2293,1.5505,0.5971,-0.1529,
13.807469,-0.4131,0.9396,0.0095,-2.6232,-0.4854,-0.3255,1.5505,0.5971,-0.1529,
13.809744,-0.4131,0.9396,0.0095,-2.6232,-0.4854,-0.3255,1.3476,0.2045,0.0176,
13.823826,-0.4131,0.9396,0.0095,-2.6232,-0.4854,-0.3255,0.8948,0.0373,0.3798,
13.844729,-0.3555,0.7337,-0.0325,-2.6232,-0.4854,-0.3255,0.8948,0.0373,0.3798,
13.847116,-0.3555,0.7337,-0.0325,-2.1341,-2.5235,-0.2960,0.8948,0.0373,0.3798,
13.848963,-0.3555,0.7337,-0.0325,-2.1341,-2.5235,-0.2960,0.4202,0.1518,0.8890,
13.864332,-0.3555,0.7337,-0.0325,-2.1341,-2.5235,-0.2960,0.1081,0.4458,1.3231,
13.883994,-0.0858,0.6081,0.0000,-2.1341,-2.5235,-0.2960,0.1081,0.4458,1.3231,
13.886324,-0.0858,0.6081,0.0000,0.0775,-3.8035,0.1382,0.1081,0.4458,1.3231,
13.888221,-0.0858,0.6081,0.0000,0.0775,-3.8035,0.1382,0.1166,0.4080,1.7343,
13.904017,-0.0858,0.6081,0.0000,0.0775,-3.8035,0.1382,0.2210,-0.0852,1.6139,
13.923819,0.4947,0.9005,-0.2585,0.0775,-3.8035,0.1382,0.2210,-0.0852,1.6139,
13.925996,0.4947,0.9005,-0.2585,5.1108,-0.9759,-2.3234,0.2210,-0.0852,1.6139,
13.927961,0.4947,0.9005,-0.2585,5.1108,-0.9759,-2.3234,0.1715,-0.4538,1.1047,
13.945680,0.4947,0.9005,-0.2585,5.1108,-0.9759,-2.3234,0.0421,-0.3451,0.2887,
13.965200,0.0291,1.0730,-0.3840,5.1108,-0.9759,-2.3234,0.0421,-0.3451,0.2887,
13.967581,0.0291,1.0730,-0.3840,0.2656,0.7131,-3.4716,0.0421,-0.3451,0.2887,
13.969341,0.0291,1.0730,-0.3840,0.2656,0.7131,-3.4716,-0.1704,-0.1475,-0.3414,
13.983697,0.0291,1.0730,-0.3840,0.2656,0.7131,-3.4716,-0.2029,0.1960,-0.6573,
14.004148,-0.2863,1.0122,-0.2766,0.2656,0.7131,-3.4716,-0.2029,0.1960,-0.6573,
14.006890,-0.2863,1.0122,-0.2766,-2.6033,0.1194,-2.4056,-0.2029,0.1960,-0.6573,
14.008877,-0.2863,1.0122,-0.2766,-2.6033,0.1194,-2.4056,-0.2738,-0.1411,-0.6993,
14.023657,-0.2863,1.0122,-0.2766,-2.6033,0.1194,-2.4056,-0.5507,-0.6658,-0.3680,
14.044194,-0.1358,1.3999,-0.0806,-2.6033,0.1194,-2.4056,-0.5507,-0.6658,-0.3680,
14.046525,-0.1358,1.3999,-0.0806,-0.9161,3.9219,-0.6525,-0.5507,-0.6658,-0.3680,
14.048420,-0.1358,1.3999,-0.0806,-0.9161,3.9219,-0.6525,-0.8277,-0.8453,-0.2503,
14.063582,-0.1358,1.3999,-0.0806,-0.9161,3.9219,-0.6525,-1.0876,-0.8996,-0.0905,
14.084020,0.1016,1.0532,0.0164,-0.9161,3.9219,-0.6525,-1.0876,-0.8996,-0.0905,
14.087593,0.1016,1.0532,0.0164,1.4761,0.5298,-0.0926,-1.0876,-0.8996,-0.0905,
14.089379,0.1016,1.0532,0.0164,1.4761,0.5298,-0.0926,-1.3433,-0.7121,-0.1241,
14.103543,0.1016,1.0532,0.0164,1.4761,0.5298,-0.0926,-1.5260,-0.3164,-0.2386,
14.123033,0.2382,1.0373,0.1559,1.4761,0.5298,-0.0926,-1.5260,-0.3164,-0.2386,
14.125122,0.2382,1.0373,0.1559,2.8650,0.4077,0.7092,-1.5260,-0.3164,-0.2386,
14.126195,0.2382,1.0373,0.1559,2.8650,0.4077,0.7092,-1.8935,-0.5555,-0.7510,
14.145709,0.2382,1.0373,0.1559,2.8650,0.4077,0.7092,-2.2008,-0.8416,-1.1169,
14.163623,-0.0117,0.9342,0.6139,2.8650,0.4077,0.7092,-2.2008,-0.8416,-1.1169,
14.165743,-0.0117,0.9342,0.6139,0.7178,-0.4757,4.3680,-2.2008,-0.8416,-1.1169,
14.167545,-0.0117,0.9342,0.6139,0.7178,-0.4757,4.3680,-2.0725,-0.7771,-1.2666,
14.183837,-0.0117,0.9342,0.6139,0.7178,-0.4757,4.3680,-1.5590,-0.3105,-1.2783,
14.204238,-0.3750,0.9714,0.8394,0.7178,-0.4757,4.3680,-1.5590,-0.3105,-1.2783,
14.206607,-0.3750,0.9714,0.8394,-2.4004,0.0872,5.8641,-1.5590,-0.3105,-1.2783,
14.208405,-0.3750,0.9714,0.8394,-2.4004,0.0872,5.8641,-1.0493,0.0799,-1.1388,
14.223641,-0.3750,0.9714,0.8394,-2.4004,0.0872,5.8641,-0.5481,0.6120,-0.7798,
14.243547,-0.5490,1.1109,0.5756,-2.4004,0.0872,5.8641,-0.5481,0.6120,-0.7798,
14.245885,-0.5490,1.1109,0.5756,-3.7106,1.5904,3.0010,-0.5481,0.6120,-0.7798,
14.247656,-0.5490,1.1109,0.5756,-3.7106,1.5904,3.0010,-0.1694,1.1745,-0.3963,
14.263644,-0.5490,1.1109,0.5756,-3.7106,1.5904,3.0010,-0.0522,1.5398,-0.2631,
14.284140,-0.3743,0.8497,0.1776,-3.7106,1.5904,3.0010,-0.0522,1.5398,-0.2631,
14.287240,-0.3743,0.8497,0.1776,-1.7296,-0.9316,-0.8461,-0.0522,1.5398,-0.2631,
14.289453,-0.3743,0.8497,0.1776,-1.7296,-0.9316,-0.8461,-0.1198,1.5287,-0.3164,
14.303807,-0.3743,0.8497,0.1776,-1.7296,-0.9316,-0.8461,-0.2653,1.2437,-0.2791,
14.324010,-0.2959,0.7026,0.0266,-1.7296,-0.9316,-0.8461,-0.2653,1.2437,-0.2791,
14.326522,-0.2959,0.7026,0.0266,-0.6921,-2.3250,-2.2808,-0.2653,1.2437,-0.2791,
14.328580,-0.2959,0.7026,0.0266,-0.6921,-2.3250,-2.2808,-0.4186,0.9630,-0.2455,
14.343718,-0.2959,0.7026,0.0266,-0.6921,-2.3250,-2.2808,-0.4900,0.7505,-0.2056,
14.363915,-0.2240,0.6591,0.0525,-0.6921,-2.3250,-2.2808,-0.4900,0.7505,-0.2056,
14.366329,-0.2240,0.6591,0.0525,0.1828,-2.6836,-2.1151,-0.4900,0.7505,-0.2056,
14.368308,-0.2240,0.6591,0.0525,0.1828,-2.6836,-2.1151,-0.4341,0.5987,-0.1225,
14.383017,-0.2240,0.6591,0.0525,0.1828,-2.6836,-2.1151,-0.3404,0.4016,-0.0783,
14.402949,-0.1307,0.6166,0.1192,0.1828,-2.6836,-2.1151,-0.3404,0.4016,-0.0783,
14.405283,-0.1307,0.6166,0.1192,1.1874,-3.0491,-1.5541,-0.3404,0.4016,-0.0783,
14.407235,-0.1307,0.6166,0.1192,1.1874,-3.0491,-1.5541,-0.3222,0.2919,-0.0517,
14.423694,-0.1307,0.6166,0.1192,1.1874,-3.0491,-1.5541,-0.3372,0.2866,-0.0165,
14.443946,-0.1539,0.7029,0.2323,1.1874,-3.0491,-1.5541,-0.3372,0.2866,-0.0165,
14.446127,-0.1539,0.7029,0.2323,1.0043,-2.1641,-0.5363,-0.3372,0.2866,-0.0165,
14.447998,-0.1539,0.7029,0.2323,1.0043,-2.1641,-0.5363,-0.2658,0.4144,-0.0224,
14.463612,-0.1539,0.7029,0.2323,1.0043,-2.1641,-0.5363,-0.1209,0.5305,-0.0218,
14.484111,-0.2573,0.8309,0.2460,1.0043,-2.1641,-0.5363,-0.1209,0.5305,-0.0218,
14.486233,-0.2573,0.8309,0.2460,0.0529,-0.8855,-0.4241,-0.1209,0.5305,-0.0218,
14.488261,-0.2573,0.8309,0.2460,0.0529,-0.8855,-0.4241,-0.0778,0.5369,0.0586,
14.503126,-0.2573,0.8309,0.2460,0.0529,-0.8855,-0.4241,-0.2099,0.6930,0.1619,
14.522983,-0.4119,0.9389,0.2995,0.0529,-0.8855,-0.4241,-0.2099,0.6930,0.1619,
14.525536,-0.4119,0.9389,0.2995,-1.4277,0.1786,0.1137,-0.2099,0.6930,0.1619,
14.527380,-0.4119,0.9389,0.2995,-1.4277,0.1786,0.1137,-0.3755,0.8043,0.2759,
14.545016,-0.4119,0.9389,0.2995,-1.4277,0.1786,0.1137,-0.3063,0.5896,0.3585,
14.562863,-0.4019,1.1045,0.3313,-1.4277,0.1786,0.1137,-0.3063,0.5896,0.3585,
14.565063,-0.4019,1.1045,0.3313,-1.3516,1.8100,0.3789,-0.3063,0.5896,0.3585,
14.566840,-0.4019,1.1045,0.3313,-1.3516,1.8100,0.3789,0.0586,0.2961,0.4144,
14.582773,-0.4019,1.1045,0.3313,-1.3516,1.8100,0.3789,0.4916,0.2541,0.4149,
14.603245,-0.3665,1.2125,0.1937,-1.3516,1.8100,0.3789,0.4916,0.2541,0.4149,
14.606448,-0.3665,1.2125,0.1937,-1.1232,2.7957,-0.8417,0.4916,0.2541,0.4149,
14.608393,-0.3665,1.2125,0.1937,-1.1232,2.7957,-0.8417,0.8543,0.2530,0.3771,
14.622496,-0.3665,1.2125,0.1937,-1.1232,2.7957,-0.8417,0.9838,0.2152,0.3382,
14.643072,-0.4634,1.3654,0.1212,-1.1232,2.7957,-0.8417,0.9838,0.2152,0.3382,
14.645443,-0.4634,1.3654,0.1212,-2.1803,4.1659,-1.1942,0.9838,0.2152,0.3382,
14.647268,-0.4634,1.3654,0.1212,-2.1803,4.1659,-1.1942,0.7707,0.1811,0.3494,
14.662956,-0.4634,1.3654,0.1212,-2.1803,4.1659,-1.1942,0.3973,-0.0740,0.4735,
14.682438,-0.2577,1.3136,0.4051,-2.1803,4.1659,-1.1942,0.3973,-0.0740,0.4735,
14.684971,-0.2577,1.3136,0.4051,-0.3116,3.5678,1.8090,0.3973,-0.0740,0.4735,
14.686341,-0.2577,1.3136,0.4051,-0.3116,3.5678,1.8090,-0.0639,-0.6722,0.5284,
14.703655,-0.2577,1.3136,0.4051,-0.3116,3.5678,1.8090,-0.0075,-1.0045,0.5582,
14.723538,-0.0853,0.9709,0.4735,-0.3116,3.5678,1.8090,-0.0075,-1.0045,0.5582,
14.725672,-0.0853,0.9709,0.4735,1.1024,0.1667,2.3969,-0.0075,-1.0045,0.5582,
14.727287,-0.0853,0.9709,0.4735,1.1024,0.1667,2.3969,0.2578,-0.4080,0.4043,
14.744415,-0.0853,0.9709,0.4735,1.1024,0.1667,2.3969,0.4463,0.0671,0.3574,
14.763296,-0.0523,0.8978,0.3083,1.1024,0.1667,2.3969,0.4463,0.0671,0.3574,
14.765548,-0.0523,0.8978,0.3083,1.2668,-0.6078,0.8949,0.4463,0.0671,0.3574,
14.767396,-0.0523,0.8978,0.3083,1.2668,-0.6078,0.8949,0.5438,-0.0123,0.2988,
14.782495,-0.0523,0.8978,0.3083,1.2668,-0.6078,0.8949,0.5108,-0.0623,0.2147,
14.802657,-0.0594,0.9086,0.1991,1.2668,-0.6078,0.8949,0.5108,-0.0623,0.2147,
14.805035,-0.0594,0.9086,0.1991,1.0793,-0.5613,-0.0028,0.5108,-0.0623,0.2147,
14.806876,-0.0594,0.9086,0.1991,1.0793,-0.5613,-0.0028,0.4234,-0.0511,0.1800,
14.822502,-0.0594,0.9086,0.1991,1.0793,-0.5613,-0.0028,0.3526,-0.0836,0.1811,
14.843011,-0.0684,0.9545,0.1722,1.0793,-0.5613,-0.0028,0.3526,-0.0836,0.1811,
14.845468,-0.0684,0.9545,0.1722,0.2516,-0.1363,-0.6039,0.3526,-0.0836,0.1811,
14.847411,-0.0684,0.9545,0.1722,0.2516,-0.1363,-0.6039,0.3148,-0.1667,0.1582,
14.862999,-0.0684,0.9545,0.1722,0.2516,-0.1363,-0.6039,0.3121,-0.1566,0.1603,
14.883269,-0.0963,0.9335,0.1375,0.2516,-0.1363,-0.6039,0.3121,-0.1566,0.1603,
14.885688,-0.0963,0.9335,0.1375,0.0101,-0.4189,-0.5835,0.3121,-0.1566,0.1603,
14.887664,-0.0963,0.9335,0.1375,0.0101,-0.4189,-0.5835,0.3984,-0.0916,0.1683,
14.902445,-0.0963,0.9335,0.1375,0.0101,-0.4189,-0.5835,0.6099,0.0751,0.1763,
14.922673,-0.1700,0.9386,0.0994,0.0101,-0.4189,-0.5835,0.6099,0.0751,0.1763,
14.925078,-0.1700,0.9386,0.0994,-0.7689,-0.4119,-0.7592,0.6099,0.0751,0.1763,
14.927050,-0.1700,0.9386,0.0994,-0.7689,-0.4119,-0.7592,0.9870,0.5364,0.1949,
14.945538,-0.1700,0.9386,0.0994,-0.7689,-0.4119,-0.7592,1.3976,0.9465,0.2029,
14.962535,-0.2778,0.9640,0.0743,-0.7689,-0.4119,-0.7592,1.3976,0.9465,0.2029,
14.965500,-0.2778,0.9640,0.0743,-1.8238,-0.2380,-0.5186,1.3976,0.9465,0.2029,
14.967433,-0.2778,0.9640,0.0743,-1.8238,-0.2380,-0.5186,1.8019,1.0274,-0.1443,
14.982219,-0.2778,0.9640,0.0743,-1.8238,-0.2380,-0.5186,1.9127,0.8213,-0.3936,
15.002592,-0.4410,0.9259,-0.0257,-1.8238,-0.2380,-0.5186,1.9127,0.8213,-0.3936,
15.006132,-0.4410,0.9259,-0.0257,-3.2158,-0.6576,-0.7446,1.9127,0.8213,-0.3936,
15.007909,-0.4410,0.9259,-0.0257,-3.2158,-0.6576,-0.7446,1.7145,0.4943,-0.1145,
15.022636,-0.4410,0.9259,-0.0257,-3.2158,-0.6576,-0.7446,1.1665,0.1667,0.3228,
15.042709,-0.3496,0.7271,-0.0767,-3.2158,-0.6576,-0.7446,1.1665,0.1667,0.3228,
15.045551,-0.3496,0.7271,-0.0767,-2.3504,-2.6220,-0.6700,1.1665,0.1667,0.3228,
15.047466,-0.3496,0.7271,-0.0767,-2.3504,-2.6220,-0.6700,0.7212,0.3281,0.6722,
15.063170,-0.3496,0.7271,-0.0767,-2.3504,-2.6220,-0.6700,0.4953,0.2967,1.1521,
15.082888,-0.1324,0.5863,-0.1011,-2.3504,-2.6220,-0.6700,0.4953,0.2967,1.1521,
15.085455,-0.1324,0.5863,-0.1011,-0.5802,-4.0287,-0.6607,0.4953,0.2967,1.1521,
15.087568,-0.1324,0.5863,-0.1011,-0.5802,-4.0287,-0.6607,0.5550,0.1401,1.3939,
15.102229,-0.1324,0.5863,-0.1011,-0.5802,-4.0287,-0.6607,0.5582,0.2147,1.4935,
15.122753,0.1485,0.7571,-0.2587,-0.5802,-4.0287,-0.6607,0.5582,0.2147,1.4935,
15.125321,0.1485,0.7571,-0.2587,1.6056,-2.3704,-1.9845,0.5582,0.2147,1.4935,
15.127160,0.1485,0.7571,-0.2587,1.6056,-2.3704,-1.9845,0.4123,0.2674,1.3944,
15.143643,0.1485,0.7571,-0.2587,1.6056,-2.3704,-1.9845,0.1758,0.1566,1.0488,
15.162418,0.2900,0.7825,-0.2993,1.6056,-2.3704,-1.9845,0.1758,0.1566,1.0488,
15.165287,0.2900,0.7825,-0.2993,2.5092,-2.1098,-2.2677,0.1758,0.1566,1.0488,
15.166914,0.2900,0.7825,-0.2993,2.5092,-2.1098,-2.2677,-0.0629,0.1284,0.5790,
15.181915,0.2900,0.7825,-0.2993,2.5092,-2.1098,-2.2677,-0.2413,0.1433,0.2024,
15.202845,0.0274,0.8065,-0.2822,2.5092,-2.1098,-2.2677,-0.2413,0.1433,0.2024,
15.205410,0.0274,0.8065,-0.2822,-0.2205,-1.8726,-2.1618,-0.2413,0.1433,0.2024,
15.207308,0.0274,0.8065,-0.2822,-0.2205,-1.8726,-2.1618,-0.3265,0.0767,-0.0064,
15.222416,0.0274,0.8065,-0.2822,-0.2205,-1.8726,-2.1618,-0.3095,-0.0543,-0.1321,
15.242506,-0.1605,1.0090,-0.3633,-0.2205,-1.8726,-2.1618,-0.3095,-0.0543,-0.1321,
15.246778,-0.1605,1.0090,-0.3633,-2.0275,0.1049,-3.0572,-0.3095,-0.0543,-0.1321,
15.248878,-0.1605,1.0090,-0.3633,-2.0275,0.1049,-3.0572,-0.2530,-0.0581,-0.1992,
15.262132,-0.1605,1.0090,-0.3633,-2.0275,0.1049,-3.0572,-0.1843,0.0724,-0.1182,
15.282324,-0.1033,1.0503,-0.4390,-2.0275,0.1049,-3.0572,-0.1843,0.0724,-0.1182,
15.285771,-0.1033,1.0503,-0.4390,-1.3808,0.5053,-3.8104,-0.1843,0.0724,-0.1182,
15.288128,-0.1033,1.0503,-0.4390,-1.3808,0.5053,-3.8104,-0.2828,0.1380,-0.0714,
15.302297,-0.1033,1.0503,-0.4390,-1.3808,0.5053,-3.8104,-0.4586,0.0495,-0.2786,
15.321860,-0.3254,1.4202,-0.3711,-1.3808,0.5053,-3.8104,-0.4586,0.0495,-0.2786,
15.324891,-0.3254,1.4202,-0.3711,-3.4903,4.1216,-3.2911,-0.4586,0.0495,-0.2786,
15.327451,-0.3254,1.4202,-0.3711,-3.4903,4.1216,-3.2911,-0.4586,0.1646,-0.4767,
15.341486,-0.3254,1.4202,-0.3711,-3.4903,4.1216,-3.2911,-0.4155,0.1758,-0.3025,
15.361299,-0.0403,1.5198,-0.2196,-3.4903,4.1216,-3.2911,-0.4155,0.1758,-0.3025,
15.363168,-0.0403,1.5198,-0.2196,-0.5456,5.0904,-1.9792,-0.4155,0.1758,-0.3025,
15.364343,-0.0403,1.5198,-0.2196,-0.5456,5.0904,-1.9792,-0.5928,-0.3031,-0.2674,
15.381902,-0.0403,1.5198,-0.2196,-0.5456,5.0904,-1.9792,-0.7872,-0.6120,-0.0586,
15.402486,0.2072,0.8912,-0.1121,-0.5456,5.0904,-1.9792,-0.7872,-0.6120,-0.0586,
15.404871,0.2072,0.8912,-0.1121,1.9440,-1.0718,-1.1941,-0.7872,-0.6120,-0.0586,
15.406684,0.2072,0.8912,-0.1121,1.9440,-1.0718,-1.1941,-0.8298,-0.3968,0.3057,
15.421807,0.2072,0.8912,-0.1121,1.9440,-1.0718,-1.1941,-1.0093,-0.5071,0.3201,
15.443152,0.2079,1.1324,0.0024,1.9440,-1.0718,-1.1941,-1.0093,-0.5071,0.3201,
