
time,gFx,gFy,gFz,ax,ay,az,wx,wy,wz,
0.026901,-0.0430,0.3452,0.8912,0.0000,0.0000,0.0000,0.0000,0.0000,0.0000,
0.028296,-0.0430,0.3452,0.8912,0.0000,0.0000,0.0000,-0.1182,-0.3057,-0.4416,
0.046909,-0.0430,0.3452,0.8912,0.0000,0.0000,0.0000,-0.1182,-0.3057,-0.4416,
0.067069,0.0032,0.3046,1.0473,0.0000,0.0000,0.0000,-0.1182,-0.3057,-0.4416,
0.068861,0.0032,0.3046,1.0473,0.0026,0.2465,0.8476,-0.1182,-0.3057,-0.4416,
0.070154,0.0032,0.3046,1.0473,0.0026,0.2465,0.8476,-0.1182,-0.3057,-0.4416,
0.086431,0.0032,0.3046,1.0473,0.0026,0.2465,0.8476,-0.1182,-0.3057,-0.4416,
0.106046,0.0963,0.3596,0.9530,0.0026,0.2465,0.8476,-0.1182,-0.3057,-0.4416,
0.107900,0.0963,0.3596,0.9530,0.5440,0.4870,0.0239,-0.1182,-0.3057,-0.4416,
0.109324,0.0963,0.3596,0.9530,0.5440,0.4870,0.0239,0.6514,0.1795,-0.5204,
0.127136,0.0963,0.3596,0.9530,0.5440,0.4870,0.0239,0.8735,0.7089,-0.6083,
0.146158,-0.0508,0.4471,1.0134,0.5440,0.4870,0.0239,0.8735,0.7089,-0.6083,
0.147634,-0.0508,0.4471,1.0134,-0.5234,0.9326,0.7510,0.8735,0.7089,-0.6083,
0.149423,-0.0508,0.4471,1.0134,-0.5234,0.9326,0.7510,1.0764,0.9534,-0.6424,
0.166148,-0.0508,0.4471,1.0134,-0.5234,0.9326,0.7510,1.1633,0.9273,-0.7153,
0.186641,-0.0325,0.5189,0.8441,-0.5234,0.9326,0.7510,1.1633,0.9273,-0.7153,
0.188558,-0.0325,0.5189,0.8441,-0.2014,0.9285,-0.6094,1.1633,0.9273,-0.7153,
0.190363,-0.0325,0.5189,0.8441,-0.2014,0.9285,-0.6094,1.0157,0.7489,-0.8405,
0.206321,-0.0325,0.5189,0.8441,-0.2014,0.9285,-0.6094,0.7340,0.5284,-0.9294,
0.226026,-0.1881,0.5795,0.9210,-0.2014,0.9285,-0.6094,0.7340,0.5284,-0.9294,
0.228124,-0.1881,0.5795,0.9210,-1.0309,1.0587,0.4144,0.7340,0.5284,-0.9294,
0.229743,-0.1881,0.5795,0.9210,-1.0309,1.0587,0.4144,0.4186,0.8559,-0.8911,
0.246831,-0.1881,0.5795,0.9210,-1.0309,1.0587,0.4144,0.4533,1.2320,-0.7196,
0.266484,-0.4031,0.3980,1.3442,-1.0309,1.0587,0.4144,0.4533,1.2320,-0.7196,
0.268949,-0.4031,0.3980,1.3442,-2.1545,0.2331,4.2567,0.4533,1.2320,-0.7196,
0.270437,-0.4031,0.3980,1.3442,-2.1545,0.2331,4.2567,0.8575,0.9683,-0.6525,
0.286550,-0.4031,0.3980,1.3442,-2.1545,0.2331,4.2567,1.4828,0.5135,-0.6860,
0.307203,-0.2521,0.4593,0.9169,-2.1545,0.2331,4.2567,1.4828,0.5135,-0.6860,
0.310187,-0.2521,0.4593,0.9169,-0.4576,0.5940,0.2189,1.4828,0.5135,-0.6860,
0.312108,-0.2521,0.4593,0.9169,-0.4576,0.5940,0.2189,1.9548,0.5710,-0.6977,
0.326487,-0.2521,0.4593,0.9169,-0.4576,0.5940,0.2189,2.2014,1.3097,-0.6562,
0.346194,-0.3359,0.4935,0.7666,-0.4576,0.5940,0.2189,2.2014,1.3097,-0.6562,
0.348772,-0.3359,0.4935,0.7666,-0.8435,0.2802,-0.8187,2.2014,1.3097,-0.6562,
0.350790,-0.3359,0.4935,0.7666,-0.8435,0.2802,-0.8187,2.3335,2.0128,-0.6131,
0.366507,-0.3359,0.4935,0.7666,-0.8435,0.2802,-0.8187,2.4368,2.1002,-0.5593,
0.386868,-0.4388,0.5052,0.6347,-0.8435,0.2802,-0.8187,2.4368,2.1002,-0.5593,
0.388959,-0.4388,0.5052,0.6347,-1.0725,-0.2834,-1.4188,2.4368,2.1002,-0.5593,
0.390840,-0.4388,0.5052,0.6347,-1.0725,-0.2834,-1.4188,2.4954,1.8104,-0.6013,
0.406388,-0.4388,0.5052,0.6347,-1.0725,-0.2834,-1.4188,2.4064,1.7609,-0.5896,
0.426377,-0.4752,0.6218,0.3472,-1.0725,-0.2834,-1.4188,2.4064,1.7609,-0.5896,
0.429626,-0.4752,0.6218,0.3472,-0.7791,0.2336,-3.4388,2.4064,1.7609,-0.5896,
0.431370,-0.4752,0.6218,0.3472,-0.7791,0.2336,-3.4388,2.2136,2.0213,-0.6013,
0.446676,-0.4752,0.6218,0.3472,-0.7791,0.2336,-3.4388,1.9558,1.9857,-0.4506,
0.466323,-0.5900,0.6235,0.3435,-0.7791,0.2336,-3.4388,1.9558,1.9857,-0.4506,
0.469686,-0.5900,0.6235,0.3435,-1.2630,-0.1972,-2.6312,1.9558,1.9857,-0.4506,
0.471871,-0.5900,0.6235,0.3435,-1.2630,-0.1972,-2.6312,1.7369,1.5287,-0.2972,
0.486393,-0.5900,0.6235,0.3435,-1.2630,-0.1972,-2.6312,1.1675,0.6690,-0.3840,
0.506058,-0.5717,0.5927,0.3205,-1.2630,-0.1972,-2.6312,1.1675,0.6690,-0.3840,
0.509380,-0.5717,0.5927,0.3205,-0.7439,-0.7653,-2.2767,1.1675,0.6690,-0.3840,
0.511340,-0.5717,0.5927,0.3205,-0.7439,-0.7653,-2.2767,1.1787,0.5342,-0.3643,
0.526373,-0.5717,0.5927,0.3205,-0.7439,-0.7653,-2.2767,1.3737,0.8794,-0.2940,
0.546049,-0.4837,0.6047,0.1429,-0.7439,-0.7653,-2.2767,1.3737,0.8794,-0.2940,
0.549556,-0.4837,0.6047,0.1429,0.3514,-0.8470,-3.5365,1.3737,0.8794,-0.2940,
0.551401,-0.4837,0.6047,0.1429,0.3514,-0.8470,-3.5365,1.3683,0.9907,-0.2775,
0.566270,-0.4837,0.6047,0.1429,0.3514,-0.8470,-3.5365,1.2570,0.8581,-0.2125,
0.586370,-0.5304,0.6445,0.2235,0.3514,-0.8470,-3.5365,1.2570,0.8581,-0.2125,
0.588344,-0.5304,0.6445,0.2235,0.1335,-0.6501,-2.1936,1.2570,0.8581,-0.2125,
0.590165,-0.5304,0.6445,0.2235,0.1335,-0.6501,-2.1936,1.2362,0.7159,-0.2141,
0.605611,-0.5304,0.6445,0.2235,0.1335,-0.6501,-2.1936,1.2458,0.5678,-0.1427,
0.625805,-0.5365,0.7112,0.1644,0.1335,-0.6501,-2.1936,1.2458,0.5678,-0.1427,
0.628551,-0.5365,0.7112,0.1644,0.2303,-0.1630,-2.2848,1.2458,0.5678,-0.1427,
0.630056,-0.5365,0.7112,0.1644,0.2303,-0.1630,-2.2848,1.2570,0.5598,-0.0687,
0.645577,-0.5365,0.7112,0.1644,0.2303,-0.1630,-2.2848,1.0823,0.2296,-0.1981,
0.666506,-0.6660,0.8155,0.1659,0.2303,-0.1630,-2.2848,1.0823,0.2296,-0.1981,
0.669387,-0.6660,0.8155,0.1659,-0.9310,0.7114,-1.8175,1.0823,0.2296,-0.1981,
0.671139,-0.6660,0.8155,0.1659,-0.9310,0.7114,-1.8175,0.9800,-0.1774,-0.2072,
0.686037,-0.6660,0.8155,0.1659,-0.9310,0.7114,-1.8175,1.0093,-0.3894,-0.1374,
0.705518,-0.7051,0.8800,0.1573,-0.9310,0.7114,-1.8175,1.0093,-0.3894,-0.1374,
0.707678,-0.7051,0.8800,0.1573,-1.2868,1.2434,-1.6334,1.0093,-0.3894,-0.1374,
0.709516,-0.7051,0.8800,0.1573,-1.2868,1.2434,-1.6334,1.1457,-0.2684,-0.0543,
0.725502,-0.7051,0.8800,0.1573,-1.2868,1.2434,-1.6334,1.3481,-0.0591,0.0154,
0.745448,-0.6354,0.9120,0.1478,-1.2868,1.2434,-1.6334,1.3481,-0.0591,0.0154,
0.747533,-0.6354,0.9120,0.1478,-0.6154,1.4078,-1.3762,1.3481,-0.0591,0.0154,
0.749210,-0.6354,0.9120,0.1478,-0.6154,1.4078,-1.3762,1.4456,0.0213,-0.1076,
0.765897,-0.6354,0.9120,0.1478,-0.6154,1.4078,-1.3762,1.3279,-0.0112,-0.2381,
0.785489,-0.8018,0.9809,0.1422,-0.6154,1.4078,-1.3762,1.3279,-0.0112,-0.2381,
0.787905,-0.8018,0.9809,0.1422,-2.1928,1.9771,-1.0098,1.3279,-0.0112,-0.2381,
0.789661,-0.8018,0.9809,0.1422,-2.1928,1.9771,-1.0098,1.1867,-0.1065,-0.3430,
0.805707,-0.8018,0.9809,0.1422,-2.1928,1.9771,-1.0098,0.9380,-0.3851,-0.5699,
0.825623,-0.7261,0.9765,0.1522,-2.1928,1.9771,-1.0098,0.9380,-0.3851,-0.5699,
0.828377,-0.7261,0.9765,0.1522,-1.3330,1.9425,-0.6437,0.9380,-0.3851,-0.5699,
0.830189,-0.7261,0.9765,0.1522,-1.3330,1.9425,-0.6437,0.7185,-0.6040,-0.6429,
0.845682,-0.7261,0.9765,0.1522,-1.3330,1.9425,-0.6437,0.5444,-0.7191,-0.6413,
0.866333,-0.7747,0.8868,0.0782,-1.3330,1.9425,-0.6437,0.5444,-0.7191,-0.6413,
0.869182,-0.7747,0.8868,0.0782,-1.6706,1.1608,-1.3326,0.5444,-0.7191,-0.6413,
0.870934,-0.7747,0.8868,0.0782,-1.6706,1.1608,-1.3326,0.4708,-0.6908,-0.3760,
0.886051,-0.7747,0.8868,0.0782,-1.6706,1.1608,-1.3326,0.6898,-0.5566,-0.0660,
0.905488,-0.2775,1.0068,0.1524,-1.6706,1.1608,-1.3326,0.6898,-0.5566,-0.0660,
0.907536,-0.2775,1.0068,0.1524,3.2156,2.3402,-0.5785,0.6898,-0.5566,-0.0660,
0.909250,-0.2775,1.0068,0.1524,3.2156,2.3402,-0.5785,1.2037,-0.1566,-0.0799,
0.926230,-0.2775,1.0068,0.1524,3.2156,2.3402,-0.5785,1.5505,1.9505,-0.7888,
0.945762,-0.4842,0.7754,0.0418,3.2156,2.3402,-0.5785,1.5505,1.9505,-0.7888,
0.947729,-0.4842,0.7754,0.0418,1.3460,0.0470,-1.0152,1.5505,1.9505,-0.7888,
0.949536,-0.4842,0.7754,0.0418,1.3460,0.0470,-1.0152,1.6677,1.7289,-0.6679,
0.965353,-0.4842,0.7754,0.0418,1.3460,0.0470,-1.0152,2.2610,0.6860,-0.2663,
0.986049,-0.6306,0.7534,0.1644,1.3460,0.0470,-1.0152,2.2610,0.6860,-0.2663,
0.989484,-0.6306,0.7534,0.1644,0.0763,-0.1476,1.0497,2.2610,0.6860,-0.2663,
0.991385,-0.6306,0.7534,0.1644,0.0763,-0.1476,1.0497,3.6107,1.0200,-0.6695,
1.006870,-0.6306,0.7534,0.1644,0.0763,-0.1476,1.0497,4.2376,-0.3782,-0.5827,
1.025639,-0.8157,1.0192,0.1192,0.0763,-0.1476,1.0497,4.2376,-0.3782,-0.5827,
1.029013,-0.8157,1.0192,0.1192,-1.5444,2.6334,1.8548,4.2376,-0.3782,-0.5827,
1.030926,-0.8157,1.0192,0.1192,-1.5444,2.6334,1.8548,3.7923,-1.7263,0.5987,
1.045869,-0.8157,1.0192,0.1192,-1.5444,2.6334,1.8548,2.7937,-2.5907,2.0682,
1.065051,-0.1625,0.3999,-0.3872,-1.5444,2.6334,1.8548,2.7937,-2.5907,2.0682,
1.066030,-0.1625,0.3999,-0.3872,4.5462,-3.6469,-2.6796,2.7937,-2.5907,2.0682,
1.066614,-0.1625,0.3999,-0.3872,4.5462,-3.6469,-2.6796,1.4940,-1.8008,2.0144,
1.085481,-0.1625,0.3999,-0.3872,4.5462,-3.6469,-2.6796,0.1332,-1.3135,1.6693,
1.105827,-0.4378,0.5883,-0.1102,4.5462,-3.6469,-2.6796,0.1332,-1.3135,1.6693,
1.107787,-0.4378,0.5883,-0.1102,1.3452,-2.1981,-0.0815,0.1332,-1.3135,1.6693,
1.109558,-0.4378,0.5883,-0.1102,1.3452,-2.1981,-0.0815,-0.7734,-1.4520,1.3263,
1.124859,-0.4378,0.5883,-0.1102,1.3452,-2.1981,-0.0815,-1.0013,-1.6421,0.9918,
1.145720,-0.4412,0.5802,0.0550,1.3452,-2.1981,-0.0815,-1.0013,-1.6421,0.9918,
1.148540,-0.4412,0.5802,0.0550,0.9791,-2.5544,0.9121,-1.0013,-1.6421,0.9918,
1.150727,-0.4412,0.5802,0.0550,0.9791,-2.5544,0.9121,-0.8693,-1.6251,0.8069,
1.164845,-0.4412,0.5802,0.0550,0.9791,-2.5544,0.9121,-0.6972,-1.4791,0.7899,
1.185706,-0.5189,0.5639,-0.0379,0.9791,-2.5544,0.9121,-0.6972,-1.4791,0.7899,
1.187692,-0.5189,0.5639,-0.0379,-0.0430,-2.8826,-0.5791,-0.6972,-1.4791,0.7899,
1.189635,-0.5189,0.5639,-0.0379,-0.0430,-2.8826,-0.5791,-0.6493,-1.2607,0.8437,
1.205225,-0.5189,0.5639,-0.0379,-0.0430,-2.8826,-0.5791,-0.6844,-1.1803,0.9438,
1.224780,-0.6257,0.6716,-0.0486,-0.0430,-2.8826,-0.5791,-0.6844,-1.1803,0.9438,
1.227599,-0.6257,0.6716,-0.0486,-1.4137,-1.9892,-1.1489,-0.6844,-1.1803,0.9438,
1.229946,-0.6257,0.6716,-0.0486,-1.4137,-1.9892,-1.1489,-0.7361,-1.0898,0.8868,
1.244849,-0.6257,0.6716,-0.0486,-1.4137,-1.9892,-1.1489,-0.8304,-0.6456,0.5902,
1.265322,-0.6948,0.7771,-0.1544,-1.4137,-1.9892,-1.1489,-0.8304,-0.6456,0.5902,
1.268682,-0.6948,0.7771,-0.1544,-2.3594,-1.0552,-2.5998,-0.8304,-0.6456,0.5902,
1.270718,-0.6948,0.7771,-0.1544,-2.3594,-1.0552,-2.5998,-1.1185,-0.5305,0.4565,
1.285286,-0.6948,0.7771,-0.1544,-2.3594,-1.0552,-2.5998,-1.4099,-0.6274,0.5268,
1.304396,-0.7830,0.8612,-0.1588,-2.3594,-1.0552,-2.5998,-1.4099,-0.6274,0.5268,
1.306307,-0.7830,0.8612,-0.1588,-3.3806,-0.2350,-3.1356,-1.4099,-0.6274,0.5268,
1.308321,-0.7830,0.8612,-0.1588,-3.3806,-0.2350,-3.1356,-1.6181,-0.5140,0.4352,
1.324501,-0.7830,0.8612,-0.1588,-3.3806,-0.2350,-3.1356,-1.7833,-0.5422,0.1672,
1.344599,-1.0442,1.0603,-0.0975,-3.3806,-0.2350,-3.1356,-1.7833,-0.5422,0.1672,
1.347318,-1.0442,1.0603,-0.0975,-6.0846,1.7957,-3.2107,-1.7833,-0.5422,0.1672,
1.349364,-1.0442,1.0603,-0.0975,-6.0846,1.7957,-3.2107,-1.8003,-0.8900,-0.3824,
1.364599,-1.0442,1.0603,-0.0975,-6.0846,1.7957,-3.2107,-1.5377,-0.8272,-1.3955,
1.384557,-1.1092,0.9706,-0.0489,-6.0846,1.7957,-3.2107,-1.5377,-0.8272,-1.3955,
1.386736,-1.1092,0.9706,-0.0489,-6.5128,1.2416,-3.4427,-1.5377,-0.8272,-1.3955,
1.387846,-1.1092,0.9706,-0.0489,-6.5128,1.2416,-3.4427,-0.9300,-0.8581,-2.0032,
1.404137,-1.1092,0.9706,-0.0489,-6.5128,1.2416,-3.4427,-0.1135,-0.9310,-2.4000,
1.424455,-0.9665,0.9047,0.1669,-6.5128,1.2416,-3.4427,-0.1135,-0.9310,-2.4000,
1.426399,-0.9665,0.9047,0.1669,-4.5221,1.0691,-1.6642,-0.1135,-0.9310,-2.4000,
1.427603,-0.9665,0.9047,0.1669,-4.5221,1.0691,-1.6642,1.0621,-0.3931,-2.6781,
1.445035,-0.9665,0.9047,0.1669,-4.5221,1.0691,-1.6642,1.9926,-0.4458,-2.4064,
1.464511,-0.8482,0.6525,0.1468,-4.5221,1.0691,-1.6642,1.9926,-0.4458,-2.4064,
1.466931,-0.8482,0.6525,0.1468,-2.6430,-1.0523,-1.4876,1.9926,-0.4458,-2.4064,
1.468875,-0.8482,0.6525,0.1468,-2.6430,-1.0523,-1.4876,2.4533,-0.6029,-2.1902,
1.485135,-0.8482,0.6525,0.1468,-2.6430,-1.0523,-1.4876,2.4560,-0.0746,-2.3803,
1.504407,-0.5218,0.5326,0.1324,-2.6430,-1.0523,-1.4876,2.4560,-0.0746,-2.3803,
1.506319,-0.5218,0.5326,0.1324,1.2180,-1.9244,-0.9479,2.4560,-0.0746,-2.3803,
1.508307,-0.5218,0.5326,0.1324,1.2180,-1.9244,-0.9479,1.6629,0.0868,-2.2733,
1.524480,-0.5218,0.5326,0.1324,1.2180,-1.9244,-0.9479,0.8932,0.1161,-1.8381,
1.544765,-0.5375,0.4407,0.2985,1.2180,-1.9244,-0.9479,0.8932,0.1161,-1.8381,
1.547818,-0.5375,0.4407,0.2985,1.6423,-2.3858,1.0623,0.8932,0.1161,-1.8381,
1.549839,-0.5375,0.4407,0.2985,1.6423,-2.3858,1.0623,0.7196,0.1145,-1.3364,
1.564910,-0.5375,0.4407,0.2985,1.6423,-2.3858,1.0623,1.0376,0.0581,-0.6946,
1.584982,-0.4962,0.4700,0.1586,1.6423,-2.3858,1.0623,1.0376,0.0581,-0.6946,
1.586906,-0.4962,0.4700,0.1586,2.3202,-1.8734,-0.0552,1.0376,0.0581,-0.6946,
1.588915,-0.4962,0.4700,0.1586,2.3202,-1.8734,-0.0552,1.6554,-0.4298,-0.0543,
1.604049,-0.4962,0.4700,0.1586,2.3202,-1.8734,-0.0552,2.4688,-0.5449,0.8027,
1.624918,-0.3027,0.2756,-0.1896,2.3202,-1.8734,-0.0552,2.4688,-0.5449,0.8027,
1.628372,-0.3027,0.2756,-0.1896,4.0899,-4.0017,-3.0651,2.4688,-0.5449,0.8027,
1.630009,-0.3027,0.2756,-0.1896,4.0899,-4.0017,-3.0651,2.7569,-0.6828,1.1819,
1.644458,-0.3027,0.2756,-0.1896,4.0899,-4.0017,-3.0651,2.5412,-0.6892,1.3715,
1.664322,-0.3374,0.4121,-0.1979,4.0899,-4.0017,-3.0651,2.5412,-0.6892,1.3715,
1.666870,-0.3374,0.4121,-0.1979,3.3708,-3.1126,-2.6023,2.5412,-0.6892,1.3715,
1.668513,-0.3374,0.4121,-0.1979,3.3708,-3.1126,-2.6023,2.2472,-0.0895,1.6650,
1.684758,-0.3374,0.4121,-0.1979,3.3708,-3.1126,-2.6023,1.6847,0.2067,1.3364,
1.704622,-0.3767,0.5741,-0.2785,3.3708,-3.1126,-2.6023,1.6847,0.2067,1.3364,
1.707661,-0.3767,0.5741,-0.2785,2.5437,-1.9422,-2.7998,1.6847,0.2067,1.3364,
1.710140,-0.3767,0.5741,-0.2785,2.5437,-1.9422,-2.7998,1.3380,1.2783,1.2597,
1.724820,-0.3767,0.5741,-0.2785,2.5437,-1.9422,-2.7998,1.0392,1.9425,2.1833,
1.744775,-0.6200,0.6809,-0.6552,2.5437,-1.9422,-2.7998,1.0392,1.9425,2.1833,
1.747433,-0.6200,0.6809,-0.6552,-0.3967,-1.2928,-5.7406,1.0392,1.9425,2.1833,
1.749645,-0.6200,0.6809,-0.6552,-0.3967,-1.2928,-5.7406,0.7041,1.6496,3.3529,
1.764346,-0.6200,0.6809,-0.6552,-0.3967,-1.2928,-5.7406,0.6626,0.3430,3.7220,
1.784509,-0.8047,0.7564,-0.5548,-0.3967,-1.2928,-5.7406,0.6626,0.3430,3.7220,
1.787445,-0.8047,0.7564,-0.5548,-3.3748,-1.2133,-4.2492,0.6626,0.3430,3.7220,
1.789703,-0.8047,0.7564,-0.5548,-3.3748,-1.2133,-4.2492,0.8506,0.0314,4.1071,
1.803783,-0.8047,0.7564,-0.5548,-3.3748,-1.2133,-4.2492,1.2208,-0.4032,3.8893,
1.824196,-0.5910,0.9804,-0.4077,-3.3748,-1.2133,-4.2492,1.2208,-0.4032,3.8893,
1.826462,-0.5910,0.9804,-0.4077,-2.6865,0.4342,-2.4561,1.2208,-0.4032,3.8893,
1.828298,-0.5910,0.9804,-0.4077,-2.6865,0.4342,-2.4561,0.8735,-1.5287,3.8898,
1.843762,-0.5910,0.9804,-0.4077,-2.6865,0.4342,-2.4561,0.3499,-2.6839,4.0038,
1.864291,-0.5448,1.5450,-0.0755,-2.6865,0.4342,-2.4561,0.3499,-2.6839,4.0038,
1.866345,-0.5448,1.5450,-0.0755,-3.5753,5.6229,0.8307,0.3499,-2.6839,4.0038,
1.867959,-0.5448,1.5450,-0.0755,-3.5753,5.6229,0.8307,-0.0501,-2.8059,3.6043,
1.884579,-0.5448,1.5450,-0.0755,-3.5753,5.6229,0.8307,0.6195,-2.1433,3.5633,
1.904758,-0.6367,1.5272,-1.1458,-3.5753,5.6229,0.8307,0.6195,-2.1433,3.5633,
1.907592,-0.6367,1.5272,-1.1458,-5.7005,5.2997,-9.6669,0.6195,-2.1433,3.5633,
1.909792,-0.6367,1.5272,-1.1458,-5.7005,5.2997,-9.6669,1.2298,-1.0296,3.6853,
1.925437,-0.6367,1.5272,-1.1458,-5.7005,5.2997,-9.6669,0.3398,0.3633,3.2640,
1.944299,0.6237,1.8223,-0.2983,-5.7005,5.2997,-9.6669,0.3398,0.3633,3.2640,
1.946223,0.6237,1.8223,-0.2983,5.3348,8.2606,-1.0663,0.3398,0.3633,3.2640,
1.947906,0.6237,1.8223,-0.2983,5.3348,8.2606,-1.0663,-0.5444,-0.1262,1.1830,
1.964498,0.6237,1.8223,-0.2983,5.3348,8.2606,-1.0663,-0.7867,-1.3199,-0.5843,
1.984311,0.1454,0.9806,0.0708,5.3348,8.2606,-1.0663,-0.7867,-1.3199,-0.5843,
1.986271,0.1454,0.9806,0.0708,0.5813,-0.0234,2.3224,-0.7867,-1.3199,-0.5843,
1.987797,0.1454,0.9806,0.0708,0.5813,-0.0234,2.3224,-0.8847,-2.1050,-1.0488,
2.003721,0.1454,0.9806,0.0708,0.5813,-0.0234,2.3224,-0.8730,-2.0565,-0.9087,
2.023616,0.1446,0.8111,-0.0374,0.5813,-0.0234,2.3224,-0.8730,-2.0565,-0.9087,
2.026823,0.1446,0.8111,-0.0374,1.0754,-1.7603,0.9710,-0.8730,-2.0565,-0.9087,
2.028654,0.1446,0.8111,-0.0374,1.0754,-1.7603,0.9710,-0.8117,-1.0999,-0.5055,
2.044263,0.1446,0.8111,-0.0374,1.0754,-1.7603,0.9710,-0.6109,0.5262,-0.0346,
2.063795,0.2973,1.1101,-0.0039,1.0754,-1.7603,0.9710,-0.6109,0.5262,-0.0346,
2.066396,0.2973,1.1101,-0.0039,2.6926,1.1331,1.0264,-0.6109,0.5262,-0.0346,
2.068168,0.2973,1.1101,-0.0039,2.6926,1.1331,1.0264,-0.1720,2.0570,0.2317,
2.084497,0.2973,1.1101,-0.0039,2.6926,1.1331,1.0264,0.3691,2.2285,1.2788,
2.104226,0.1170,0.8959,-0.4678,2.6926,1.1331,1.0264,0.3691,2.2285,1.2788,
2.107000,0.1170,0.8959,-0.4678,0.5273,-0.9458,-3.4871,0.3691,2.2285,1.2788,
2.109618,0.1170,0.8959,-0.4678,0.5273,-0.9458,-3.4871,0.0277,0.6242,1.8940,
2.124115,0.1170,0.8959,-0.4678,0.5273,-0.9458,-3.4871,-0.0426,-0.6743,1.7742,
2.144639,0.1204,0.8895,-0.2709,0.5273,-0.9458,-3.4871,-0.0426,-0.6743,1.7742,
2.146515,0.1204,0.8895,-0.2709,-0.1487,-0.9296,-1.4965,-0.0426,-0.6743,1.7742,
2.148495,0.1204,0.8895,-0.2709,-0.1487,-0.9296,-1.4965,0.2189,-0.7260,1.2437,
2.164386,0.1204,0.8895,-0.2709,-0.1487,-0.9296,-1.4965,-0.0543,-0.9886,0.9950,
2.184178,0.0943,0.9249,0.0322,-0.1487,-0.9296,-1.4965,-0.0543,-0.9886,0.9950,
2.186281,0.0943,0.9249,0.0322,-0.7807,-0.5120,1.5629,-0.0543,-0.9886,0.9950,
2.188252,0.0943,0.9249,0.0322,-0.7807,-0.5120,1.5629,0.1033,-0.6003,0.7452,
2.204127,0.0943,0.9249,0.0322,-0.7807,-0.5120,1.5629,0.5491,0.1220,0.3760,
2.224556,0.1065,0.7510,-0.0738,-0.7807,-0.5120,1.5629,0.5491,0.1220,0.3760,
2.226988,0.1065,0.7510,-0.0738,-0.8630,-2.1591,0.6647,0.5491,0.1220,0.3760,
2.228800,0.1065,0.7510,-0.0738,-0.8630,-2.1591,0.6647,0.5561,0.2125,-0.0048,
2.243556,0.1065,0.7510,-0.0738,-0.8630,-2.1591,0.6647,0.2301,0.2120,-0.1848,
2.264108,0.2367,0.8451,-0.1068,-0.8630,-2.1591,0.6647,0.2301,0.2120,-0.1848,
2.266876,0.2367,0.8451,-0.1068,0.4366,-1.2216,0.4747,0.2301,0.2120,-0.1848,
2.268870,0.2367,0.8451,-0.1068,0.4366,-1.2216,0.4747,0.1459,0.7324,-0.2855,
2.283393,0.2367,0.8451,-0.1068,0.4366,-1.2216,0.4747,0.1838,1.2405,-0.4447,
2.304243,0.2504,0.9594,-0.2360,0.4366,-1.2216,0.4747,0.1838,1.2405,-0.4447,
2.306108,0.2504,0.9594,-0.2360,0.6451,-0.1167,-0.7990,0.1838,1.2405,-0.4447,
2.307898,0.2504,0.9594,-0.2360,0.6451,-0.1167,-0.7990,0.0959,1.5952,-0.7047,
2.324641,0.2504,0.9594,-0.2360,0.6451,-0.1167,-0.7990,-0.1731,2.3170,-1.0322,
2.343602,0.0303,0.7107,-0.0572,0.6451,-0.1167,-0.7990,-0.1731,2.3170,-1.0322,
2.346328,0.0303,0.7107,-0.0572,-1.2943,-2.6150,0.8059,-0.1731,2.3170,-1.0322,
2.348162,0.0303,0.7107,-0.0572,-1.2943,-2.6150,0.8059,0.0112,2.9130,-1.2000,
2.363935,0.0303,0.7107,-0.0572,-1.2943,-2.6150,0.8059,0.1646,3.2198,-1.0727,
2.384152,-0.3325,0.7979,-1.0811,-1.2943,-2.6150,0.8059,0.1646,3.2198,-1.0727,
2.386257,-0.3325,0.7979,-1.0811,-4.5442,-1.8173,-9.3094,0.1646,3.2198,-1.0727,
2.388282,-0.3325,0.7979,-1.0811,-4.5442,-1.8173,-9.3094,-0.0352,3.8499,-0.8240,
2.402935,-0.3325,0.7979,-1.0811,-4.5442,-1.8173,-9.3094,-0.2344,2.2578,-0.4149,
2.423080,0.0137,1.1282,-0.2411,-4.5442,-1.8173,-9.3094,-0.2344,2.2578,-0.4149,
2.426096,0.0137,1.1282,-0.2411,-1.0281,1.3860,-1.2214,-0.2344,2.2578,-0.4149,
2.428576,0.0137,1.1282,-0.2411,-1.0281,1.3860,-1.2214,0.1204,-0.9561,-0.1912,
2.443375,0.0137,1.1282,-0.2411,-1.0281,1.3860,-1.2214,0.3196,-1.7097,-0.0655,
2.463272,0.0042,1.2924,-0.3902,-1.0281,1.3860,-1.2214,0.3196,-1.7097,-0.0655,
2.465729,0.0042,1.2924,-0.3902,-1.0075,2.9999,-2.5385,0.3196,-1.7097,-0.0655,
2.467474,0.0042,1.2924,-0.3902,-1.0075,2.9999,-2.5385,0.7867,0.1427,-0.2035,
2.483136,0.0042,1.2924,-0.3902,-1.0075,2.9999,-2.5385,1.1814,1.9308,-0.6152,
2.502829,-0.2025,1.2970,-0.3840,-1.0075,2.9999,-2.5385,1.1814,1.9308,-0.6152,
2.504537,-0.2025,1.2970,-0.3840,-2.9381,3.0866,-2.1403,1.1814,1.9308,-0.6152,
2.505617,-0.2025,1.2970,-0.3840,-2.9381,3.0866,-2.1403,1.2879,1.2107,-0.4804,
2.523392,-0.2025,1.2970,-0.3840,-2.9381,3.0866,-2.1403,1.1867,-0.5625,-0.1161,
2.543633,0.0193,1.2389,-0.2384,-2.9381,3.0866,-2.1403,1.1867,-0.5625,-0.1161,
2.545697,0.0193,1.2389,-0.2384,-0.6697,2.5971,-0.2521,1.1867,-0.5625,-0.1161,
2.547394,0.0193,1.2389,-0.2384,-0.6697,2.5971,-0.2521,0.0197,-2.5678,0.4186,
2.563897,0.0193,1.2389,-0.2384,-0.6697,2.5971,-0.2521,-1.2687,-3.3833,1.2378,
2.583512,0.4842,1.2213,0.1038,-0.6697,2.5971,-0.2521,-1.2687,-3.3833,1.2378,
2.586386,0.4842,1.2213,0.1038,3.8166,2.4026,2.9669,-1.2687,-3.3833,1.2378,
2.588223,0.4842,1.2213,0.1038,3.8166,2.4026,2.9669,-1.0040,-1.1180,1.7614,
2.602917,0.4842,1.2213,0.1038,3.8166,2.4026,2.9669,0.5209,1.8408,1.0125,
2.623545,0.5155,1.0977,-0.0909,3.8166,2.4026,2.9669,0.5209,1.8408,1.0125,
2.625453,0.5155,1.0977,-0.0909,3.5689,1.2378,0.9406,0.5209,1.8408,1.0125,
2.626877,0.5155,1.0977,-0.0909,3.5689,1.2378,0.9406,-0.0554,0.5326,0.2301,
2.643207,0.5155,1.0977,-0.0909,3.5689,1.2378,0.9406,-1.3934,-0.7121,-0.6780,
2.662793,0.0782,1.0815,0.0127,3.5689,1.2378,0.9406,-1.3934,-0.7121,-0.6780,
2.665501,0.0782,1.0815,0.0127,-0.6265,1.0180,1.6841,-1.3934,-0.7121,-0.6780,
2.667369,0.0782,1.0815,0.0127,-0.6265,1.0180,1.6841,-2.1811,-0.8682,-1.3023,
2.683066,0.0782,1.0815,0.0127,-0.6265,1.0180,1.6841,-2.2536,-0.0842,-1.3018,
2.703182,-0.2785,0.9394,0.1937,-0.6265,1.0180,1.6841,-2.2536,-0.0842,-1.3018,
2.705945,-0.2785,0.9394,0.1937,-3.5770,-0.5390,2.6008,-2.2536,-0.0842,-1.3018,
2.708107,-0.2785,0.9394,0.1937,-3.5770,-0.5390,2.6008,-1.6655,0.9246,-0.9752,
2.722695,-0.2785,0.9394,0.1937,-3.5770,-0.5390,2.6008,-0.6605,1.5718,-0.5758,
2.743442,-0.1962,0.6408,0.0203,-3.5770,-0.5390,2.6008,-0.6605,1.5718,-0.5758,
2.745444,-0.1962,0.6408,0.0203,-2.4865,-3.5081,0.4140,-0.6605,1.5718,-0.5758,
2.747217,-0.1962,0.6408,0.0203,-2.4865,-3.5081,0.4140,0.0154,1.2357,-0.4128,
2.763806,-0.1962,0.6408,0.0203,-2.4865,-3.5081,0.4140,0.3228,0.2551,-0.3457,
2.783667,-0.0843,0.5739,-0.3376,-2.4865,-3.5081,0.4140,0.3228,0.2551,-0.3457,
2.785961,-0.0843,0.5739,-0.3376,-1.2480,-4.1700,-3.0426,0.3228,0.2551,-0.3457,
2.788081,-0.0843,0.5739,-0.3376,-1.2480,-4.1700,-3.0426,0.3174,-0.4320,-0.3121,
2.802901,-0.0843,0.5739,-0.3376,-1.2480,-4.1700,-3.0426,0.0613,-0.6040,-0.2200,
2.822861,-0.1300,0.6938,-0.1678,-1.2480,-4.1700,-3.0426,0.0613,-0.6040,-0.2200,
2.825378,-0.1300,0.6938,-0.1678,-1.5850,-2.9960,-1.2972,0.0613,-0.6040,-0.2200,
2.827244,-0.1300,0.6938,-0.1678,-1.5850,-2.9960,-1.2972,-0.1609,-0.5598,-0.0218,
2.842591,-0.1300,0.6938,-0.1678,-1.5850,-2.9960,-1.2972,-0.1417,-0.3947,0.0804,
2.862649,-0.1432,0.8287,-0.0342,-1.5850,-2.9960,-1.2972,-0.1417,-0.3947,0.0804,
2.865241,-0.1432,0.8287,-0.0342,-1.7196,-1.6760,-0.0409,-0.1417,-0.3947,0.0804,
2.867151,-0.1432,0.8287,-0.0342,-1.7196,-1.6760,-0.0409,-0.0154,-0.1427,0.0485,
2.883535,-0.1432,0.8287,-0.0342,-1.7196,-1.6760,-0.0409,0.0421,-0.0426,0.0602,
2.903159,-0.2035,0.9662,-0.1688,-1.7196,-1.6760,-0.0409,0.0421,-0.0426,0.0602,
2.906391,-0.2035,0.9662,-0.1688,-2.3312,-0.3272,-1.3537,0.0421,-0.0426,0.0602,
2.908830,-0.2035,0.9662,-0.1688,-2.3312,-0.3272,-1.3537,0.0170,0.1129,0.1209,
2.923142,-0.2035,0.9662,-0.1688,-2.3312,-0.3272,-1.3537,-0.0495,0.3734,0.2344,
2.943604,-0.1737,0.9992,-0.3022,-2.3312,-0.3272,-1.3537,-0.0495,0.3734,0.2344,
2.946718,-0.1737,0.9992,-0.3022,-2.0742,-0.0020,-2.6385,-0.0495,0.3734,0.2344,
2.948756,-0.1737,0.9992,-0.3022,-2.0742,-0.0020,-2.6385,-0.1033,0.6248,0.3132,
2.962351,-0.1737,0.9992,-0.3022,-2.0742,-0.0020,-2.6385,-0.0815,0.6024,0.3116,
2.982711,-0.2086,1.1138,-0.1945,-2.0742,-0.0020,-2.6385,-0.0815,0.6024,0.3116,
2.985566,-0.2086,1.1138,-0.1945,-2.4967,1.1239,-1.5934,-0.0815,0.6024,0.3116,
2.987916,-0.2086,1.1138,-0.1945,-2.4967,1.1239,-1.5934,0.1049,0.2162,0.2653,
3.003901,-0.2086,1.1138,-0.1945,-2.4967,1.1239,-1.5934,0.3803,-0.1816,0.2354,
3.022394,-0.3435,1.2301,-0.2282,-2.4967,1.1239,-1.5934,0.3803,-0.1816,0.2354,
3.024721,-0.3435,1.2301,-0.2282,-3.9162,2.2721,-1.8292,0.3803,-0.1816,0.2354,
3.026077,-0.3435,1.2301,-0.2282,-3.9162,2.2721,-1.8292,0.3888,-0.2024,0.1065,
3.042625,-0.3435,1.2301,-0.2282,-3.9162,2.2721,-1.8292,0.1188,0.3159,0.0261,
3.062295,-0.2636,1.2770,-0.1502,-3.9162,2.2721,-1.8292,0.1188,0.3159,0.0261,
3.065165,-0.2636,1.2770,-0.1502,-3.1606,2.7379,-0.9676,0.1188,0.3159,0.0261,
3.067150,-0.2636,1.2770,-0.1502,-3.1606,2.7379,-0.9676,-0.0485,0.6115,0.0533,
3.082795,-0.2636,1.2770,-0.1502,-3.1606,2.7379,-0.9676,0.0927,0.4890,-0.0676,
3.101851,-0.0247,1.1487,0.0393,-3.1606,2.7379,-0.9676,0.0927,0.4890,-0.0676,
3.103839,-0.0247,1.1487,0.0393,-0.8272,1.4812,0.8860,0.0927,0.4890,-0.0676,
3.105462,-0.0247,1.1487,0.0393,-0.8272,1.4812,0.8860,0.3132,-0.0229,-0.1901,
3.122318,-0.0247,1.1487,0.0393,-0.8272,1.4812,0.8860,0.4005,-0.8277,-0.3052,
3.142567,0.0730,1.0515,0.0042,-0.8272,1.4812,0.8860,0.4005,-0.8277,-0.3052,
3.145210,0.0730,1.0515,0.0042,0.2375,0.5312,0.6893,0.4005,-0.8277,-0.3052,
3.147335,0.0730,1.0515,0.0042,0.2375,0.5312,0.6893,0.2866,-1.6144,-0.3004,
3.162571,0.0730,1.0515,0.0042,0.2375,0.5312,0.6893,-0.1236,-2.1438,-0.1193,
3.183007,0.3254,1.4702,0.0303,0.2375,0.5312,0.6893,-0.1236,-2.1438,-0.1193,
3.186478,0.3254,1.4702,0.0303,2.8453,4.6335,1.0074,-0.1236,-2.1438,-0.1193,
3.188414,0.3254,1.4702,0.0303,2.8453,4.6335,1.0074,-0.6546,-2.0911,0.0703,
3.203556,0.3254,1.4702,0.0303,2.8453,4.6335,1.0074,-0.8730,-1.3646,0.1337,
3.222823,0.4349,1.2650,0.2314,2.8453,4.6335,1.0074,-0.8730,-1.3646,0.1337,
3.225219,0.4349,1.2650,0.2314,3.9194,2.6062,2.7025,-0.8730,-1.3646,0.1337,
3.226694,0.4349,1.2650,0.2314,3.9194,2.6062,2.7025,-0.5374,-0.4501,0.1156,
3.242512,0.4349,1.2650,0.2314,3.9194,2.6062,2.7025,0.2450,0.6551,0.2418,
3.262302,0.1908,0.8780,0.1160,3.9194,2.6062,2.7025,0.2450,0.6551,0.2418,
3.264502,0.1908,0.8780,0.1160,1.4564,-1.1859,1.5134,0.2450,0.6551,0.2418,
3.266408,0.1908,0.8780,0.1160,1.4564,-1.1859,1.5134,1.3321,2.1689,0.2125,
3.282243,0.1908,0.8780,0.1160,1.4564,-1.1859,1.5134,2.2946,3.0520,0.1140,
3.301984,0.0342,0.5976,-0.0809,1.4564,-1.1859,1.5134,2.2946,3.0520,0.1140,
3.303928,0.0342,0.5976,-0.0809,-0.2138,-3.8804,0.2407,2.2946,3.0520,0.1140,
3.305833,0.0342,0.5976,-0.0809,-0.2138,-3.8804,0.2407,2.5678,2.5305,0.3292,
3.322758,0.0342,0.5976,-0.0809,-0.2138,-3.8804,0.2407,2.2157,1.5675,0.4240,
3.342912,0.0117,0.5526,-0.4261,-0.2138,-3.8804,0.2407,2.2157,1.5675,0.4240,
3.345274,0.0117,0.5526,-0.4261,-0.6967,-4.1703,-2.2729,2.2157,1.5675,0.4240,
3.347000,0.0117,0.5526,-0.4261,-0.6967,-4.1703,-2.2729,1.4136,0.6823,0.2567,
3.362475,0.0117,0.5526,-0.4261,-0.6967,-4.1703,-2.2729,0.6589,0.4591,-0.0208,
3.382866,-0.1119,0.6183,-0.4422,-0.6967,-4.1703,-2.2729,0.6589,0.4591,-0.0208,
3.385290,-0.1119,0.6183,-0.4422,-2.0011,-3.4358,-2.0561,0.6589,0.4591,-0.0208,
3.387196,-0.1119,0.6183,-0.4422,-2.0011,-3.4358,-2.0561,0.1609,0.5923,-0.1438,
3.402382,-0.1119,0.6183,-0.4422,-2.0011,-3.4358,-2.0561,-0.1832,0.4256,-0.1577,
3.422518,0.0752,0.6816,-0.3139,-2.0011,-3.4358,-2.0561,-0.1832,0.4256,-0.1577,
3.424821,0.0752,0.6816,-0.3139,-0.1564,-2.8221,-0.8217,-0.1832,0.4256,-0.1577,
3.426721,0.0752,0.6816,-0.3139,-0.1564,-2.8221,-0.8217,-0.3910,-0.1119,-0.2029,
3.441982,0.0752,0.6816,-0.3139,-0.1564,-2.8221,-0.8217,-0.5896,-0.4964,-0.2887,
3.462221,0.0787,0.7732,-0.4388,-0.1564,-2.8221,-0.8217,-0.5896,-0.4964,-0.2887,
3.464695,0.0787,0.7732,-0.4388,-0.0033,-1.9749,-2.2217,-0.5896,-0.4964,-0.2887,
3.466652,0.0787,0.7732,-0.4388,-0.0033,-1.9749,-2.2217,-0.8938,-0.5406,-0.3105,
3.482231,0.0787,0.7732,-0.4388,-0.0033,-1.9749,-2.2217,-1.1212,-0.1273,-0.3025,
3.502768,-0.0594,0.8773,-0.4749,-0.0033,-1.9749,-2.2217,-1.1212,-0.1273,-0.3025,
3.505899,-0.0594,0.8773,-0.4749,-1.2124,-1.0397,-2.9527,-1.1212,-0.1273,-0.3025,
3.508068,-0.0594,0.8773,-0.4749,-1.2124,-1.0397,-2.9527,-1.1105,0.5065,-0.3510,
3.521817,-0.0594,0.8773,-0.4749,-1.2124,-1.0397,-2.9527,-0.8107,0.1784,-0.3878,
3.541619,-0.1268,1.2667,-0.0513,-1.2124,-1.0397,-2.9527,-0.8107,0.1784,-0.3878,
3.544270,-0.1268,1.2667,-0.0513,-1.7224,2.7133,0.8526,-0.8107,0.1784,-0.3878,
3.546133,-0.1268,1.2667,-0.0513,-1.7224,2.7133,0.8526,-0.3931,-0.5939,-0.3036,
3.562045,-0.1268,1.2667,-0.0513,-1.7224,2.7133,0.8526,-0.1001,-0.9747,-0.0373,
3.581929,-0.1695,1.3786,-0.1683,-1.7224,2.7133,0.8526,-0.1001,-0.9747,-0.0373,
3.584493,-0.1695,1.3786,-0.1683,-2.0348,3.7939,-0.3770,-0.1001,-0.9747,-0.0373,
3.586373,-0.1695,1.3786,-0.1683,-2.0348,3.7939,-0.3770,1.3934,2.2285,-0.1364,
3.604086,-0.1695,1.3786,-0.1683,-2.0348,3.7939,-0.3770,2.1667,3.2091,-0.6908,
3.621305,-0.3743,0.9450,-0.7195,-2.0348,3.7939,-0.3770,2.1667,3.2091,-0.6908,
3.623409,-0.3743,0.9450,-0.7195,-4.0543,-0.3489,-5.1340,2.1667,3.2091,-0.6908,
3.625006,-0.3743,0.9450,-0.7195,-4.0543,-0.3489,-5.1340,1.4999,0.5630,-0.6823,
3.642128,-0.3743,0.9450,-0.7195,-4.0543,-0.3489,-5.1340,0.3473,-1.5329,-0.2205,
3.661451,0.0039,0.9381,-0.2380,-4.0543,-0.3489,-5.1340,0.3473,-1.5329,-0.2205,
3.664491,0.0039,0.9381,-0.2380,-0.1182,-0.3424,-0.0498,0.3473,-1.5329,-0.2205,
3.666180,0.0039,0.9381,-0.2380,-0.1182,-0.3424,-0.0498,-1.2741,-2.7798,0.3419,
3.681783,0.0039,0.9381,-0.2380,-0.1182,-0.3424,-0.0498,-2.2307,-2.8176,1.1883,
3.702053,0.2844,1.5746,0.2861,-0.1182,-0.3424,-0.0498,-2.2307,-2.8176,1.1883,
3.704427,0.2844,1.5746,0.2861,2.5601,5.7624,4.4299,-2.2307,-2.8176,1.1883,
3.705949,0.2844,1.5746,0.2861,2.5601,5.7624,4.4299,-0.5662,0.9294,1.9851,
3.721744,0.2844,1.5746,0.2861,2.5601,5.7624,4.4299,0.0586,2.3042,1.7694,
3.742421,0.7087,1.1038,0.1244,2.5601,5.7624,4.4299,0.0586,2.3042,1.7694,
3.744641,0.7087,1.1038,0.1244,5.8965,1.1798,2.6999,0.0586,2.3042,1.7694,
3.746243,0.7087,1.1038,0.1244,5.8965,1.1798,2.6999,-0.9087,0.2525,0.9092,
3.762372,0.7087,1.1038,0.1244,5.8965,1.1798,2.6999,-1.7129,-0.5470,-0.5305,
3.781863,0.0628,1.2225,0.3139,5.8965,1.1798,2.6999,-1.7129,-0.5470,-0.5305,
3.784327,0.0628,1.2225,0.3139,-0.5012,2.2874,4.0593,-1.7129,-0.5470,-0.5305,
3.786284,0.0628,1.2225,0.3139,-0.5012,2.2874,4.0593,-2.0762,-0.5465,-1.2096,
3.802780,0.0628,1.2225,0.3139,-0.5012,2.2874,4.0593,-1.9633,-0.9454,-0.7563,
3.822201,-0.0726,0.9719,0.4336,-0.5012,2.2874,4.0593,-1.9633,-0.9454,-0.7563,
3.824298,-0.0726,0.9719,0.4336,-1.4289,-0.2537,4.4723,-1.9633,-0.9454,-0.7563,
3.826018,-0.0726,0.9719,0.4336,-1.4289,-0.2537,4.4723,-1.2980,-0.6221,-0.2658,
3.841755,-0.0726,0.9719,0.4336,-1.4289,-0.2537,4.4723,-0.5491,0.2439,-0.3350,
3.861769,0.1180,0.7862,0.1019,-1.4289,-0.2537,4.4723,-0.5491,0.2439,-0.3350,
3.863640,0.1180,0.7862,0.1019,0.5415,-2.0808,0.7989,-0.5491,0.2439,-0.3350,
3.864478,0.1180,0.7862,0.1019,0.5415,-2.0808,0.7989,-0.1694,0.4719,-0.5950,
3.881130,0.1180,0.7862,0.1019,0.5415,-2.0808,0.7989,-0.1071,0.1838,-0.7771,
3.901237,-0.0076,0.7610,-0.0748,0.5415,-2.0808,0.7989,-0.1071,0.1838,-0.7771,
3.904418,-0.0076,0.7610,-0.0748,-0.4178,-2.3392,-0.9930,-0.1071,0.1838,-0.7771,
3.906096,-0.0076,0.7610,-0.0748,-0.4178,-2.3392,-0.9930,-0.2056,-0.2061,-0.7350,
3.922019,-0.0076,0.7610,-0.0748,-0.4178,-2.3392,-0.9930,-0.3995,-0.2434,-0.5875,
3.941541,-0.3000,0.8573,-0.3200,-0.4178,-2.3392,-0.9930,-0.3995,-0.2434,-0.5875,
3.945274,-0.3000,0.8573,-0.3200,-3.0276,-1.3978,-3.5133,-0.3995,-0.2434,-0.5875,
3.947299,-0.3000,0.8573,-0.3200,-3.0276,-1.3978,-3.5133,-0.6674,0.2637,-0.2402,
3.961809,-0.3000,0.8573,-0.3200,-3.0276,-1.3978,-3.5133,-0.8213,1.2591,0.2115,
3.981563,-0.2426,0.9425,-0.2174,-3.0276,-1.3978,-3.5133,-0.8213,1.2591,0.2115,
3.984464,-0.2426,0.9425,-0.2174,-2.4267,-0.5481,-2.7812,-0.8213,1.2591,0.2115,
3.986363,-0.2426,0.9425,-0.2174,-2.4267,-0.5481,-2.7812,-0.8352,1.6698,0.3867,
4.000960,-0.2426,0.9425,-0.2174,-2.4267,-0.5481,-2.7812,-0.8362,1.1622,0.3334,
4.022305,-0.1165,1.0659,-0.0843,-2.4267,-0.5481,-2.7812,-0.8362,1.1622,0.3334,
4.025716,-0.1165,1.0659,-0.0843,-1.2371,0.6823,-1.7394,-0.8362,1.1622,0.3334,
4.027689,-0.1165,1.0659,-0.0843,-1.2371,0.6823,-1.7394,-0.8043,0.2445,0.2706,
4.041339,-0.1165,1.0659,-0.0843,-1.2371,0.6823,-1.7394,-0.6136,-0.4634,0.3036,
4.061845,-0.0777,1.1148,-0.0567,-1.2371,0.6823,-1.7394,-0.6136,-0.4634,0.3036,
4.065291,-0.0777,1.1148,-0.0567,-0.9448,1.1866,-1.6979,-0.6136,-0.4634,0.3036,
4.067221,-0.0777,1.1148,-0.0567,-0.9448,1.1866,-1.6979,-0.4575,-0.7830,0.3318,
4.081436,-0.0777,1.1148,-0.0567,-0.9448,1.1866,-1.6979,-0.4027,-0.8059,0.3920,
4.101416,-0.0828,1.1839,-0.0308,-0.9448,1.1866,-1.6979,-0.4027,-0.8059,0.3920,
4.105178,-0.0828,1.1839,-0.0308,-1.1745,1.8891,-1.6027,-0.4027,-0.8059,0.3920,
4.107171,-0.0828,1.1839,-0.0308,-1.1745,1.8891,-1.6027,-0.3057,-0.7196,0.4815,
4.120410,-0.0828,1.1839,-0.0308,-1.1745,1.8891,-1.6027,-0.0250,-0.6051,0.5167,
4.140543,-0.0840,1.3329,0.0860,-1.1745,1.8891,-1.6027,-0.0250,-0.6051,0.5167,
4.142449,-0.0840,1.3329,0.0860,-1.4154,3.3679,-0.5099,-0.0250,-0.6051,0.5167,
4.143469,-0.0840,1.3329,0.0860,-1.4154,3.3679,-0.5099,0.3734,-0.6301,0.5183,
4.161078,-0.0840,1.3329,0.0860,-1.4154,3.3679,-0.5099,0.6610,-0.8559,0.5172,
4.180850,-0.0897,1.4575,0.0711,-1.4154,3.3679,-0.5099,0.6610,-0.8559,0.5172,
4.183873,-0.0897,1.4575,0.0711,-1.7081,4.5780,-0.4343,0.6610,-0.8559,0.5172,
4.185967,-0.0897,1.4575,0.0711,-1.7081,4.5780,-0.4343,0.6424,-1.3124,0.4842,
4.200999,-0.0897,1.4575,0.0711,-1.7081,4.5780,-0.4343,0.3313,-2.0394,0.4389,
4.221726,0.0147,1.2264,0.1317,-1.7081,4.5780,-0.4343,0.3313,-2.0394,0.4389,
4.224112,0.0147,1.2264,0.1317,-0.9303,2.3108,0.4129,0.3313,-2.0394,0.4389,
4.225850,0.0147,1.2264,0.1317,-0.9303,2.3108,0.4129,0.0069,-2.4128,0.3952,
4.241790,0.0147,1.2264,0.1317,-0.9303,2.3108,0.4129,-0.1555,-1.9947,0.2727,
4.261095,0.1327,0.8057,0.2807,-0.9303,2.3108,0.4129,-0.1555,-1.9947,0.2727,
4.264828,0.1327,0.8057,0.2807,0.0293,-1.7944,1.9443,-0.1555,-1.9947,0.2727,
4.266373,0.1327,0.8057,0.2807,0.0293,-1.7944,1.9443,-0.1763,-1.3774,0.2040,
4.280702,0.1327,0.8057,0.2807,0.0293,-1.7944,1.9443,-0.2162,-0.9960,0.2349,
4.300522,0.2812,0.8441,0.3232,0.0293,-1.7944,1.9443,-0.2162,-0.9960,0.2349,
4.302688,0.2812,0.8441,0.3232,1.3632,-1.3961,2.2964,-0.2162,-0.9960,0.2349,
4.304376,0.2812,0.8441,0.3232,1.3632,-1.3961,2.2964,-0.2578,-0.6796,0.3638,
4.321187,0.2812,0.8441,0.3232,1.3632,-1.3961,2.2964,-0.1411,-0.0554,0.5358,
4.341325,0.2306,1.2938,0.3389,1.3632,-1.3961,2.2964,-0.1411,-0.0554,0.5358,
4.344707,0.2306,1.2938,0.3389,0.6813,3.0455,2.3939,-0.1411,-0.0554,0.5358,
4.346427,0.2306,1.2938,0.3389,0.6813,3.0455,2.3939,0.7009,1.7380,0.7393,
4.360714,0.2306,1.2938,0.3389,0.6813,3.0455,2.3939,1.6842,3.0898,0.8623,
4.380889,0.1112,1.1338,0.2697,0.6813,3.0455,2.3939,1.6842,3.0898,0.8623,
4.383726,0.1112,1.1338,0.2697,-0.7208,1.4942,2.0099,1.6842,3.0898,0.8623,
4.385791,0.1112,1.1338,0.2697,-0.7208,1.4942,2.0099,2.3590,2.9662,0.8522,
4.403002,0.1112,1.1338,0.2697,-0.7208,1.4942,2.0099,2.6253,1.7785,1.0695,
4.421576,0.0665,0.9609,0.0904,-0.7208,1.4942,2.0099,2.6253,1.7785,1.0695,
4.423654,0.0665,0.9609,0.0904,-1.4868,-0.1536,1.0053,2.6253,1.7785,1.0695,
4.425555,0.0665,0.9609,0.0904,-1.4868,-0.1536,1.0053,2.6003,0.5246,1.4743,
4.441603,0.0665,0.9609,0.0904,-1.4868,-0.1536,1.0053,2.5108,-0.1886,1.7369,
4.461000,0.2433,0.7493,-0.0745,-1.4868,-0.1536,1.0053,2.5108,-0.1886,1.7369,
4.463364,0.2433,0.7493,-0.0745,-0.3464,-2.0179,0.3118,2.5108,-0.1886,1.7369,
4.465241,0.2433,0.7493,-0.0745,-0.3464,-2.0179,0.3118,2.3846,-0.3377,1.7241,
4.480525,0.2433,0.7493,-0.0745,-0.3464,-2.0179,0.3118,2.1012,-0.2700,1.2357,
4.500495,0.5956,0.6076,-0.2226,-0.3464,-2.0179,0.3118,2.1012,-0.2700,1.2357,
4.502570,0.5956,0.6076,-0.2226,2.5790,-3.0973,-0.2776,2.1012,-0.2700,1.2357,
4.504503,0.5956,0.6076,-0.2226,2.5790,-3.0973,-0.2776,1.8642,-0.1385,0.5667,
4.521320,0.5956,0.6076,-0.2226,2.5790,-3.0973,-0.2776,1.4280,-0.1023,0.1971,
4.540454,0.2734,0.4478,-0.3924,2.5790,-3.0973,-0.2776,1.4280,-0.1023,0.1971,
4.543260,0.2734,0.4478,-0.3924,-0.7052,-4.4673,-1.3370,1.4280,-0.1023,0.1971,
4.545297,0.2734,0.4478,-0.3924,-0.7052,-4.4673,-1.3370,0.9177,0.2109,0.0719,
4.561247,0.2734,0.4478,-0.3924,-0.7052,-4.4673,-1.3370,0.5156,0.3792,0.0048,
4.581399,0.2096,0.4280,-0.4747,-0.7052,-4.4673,-1.3370,0.5156,0.3792,0.0048,
4.585565,0.2096,0.4280,-0.4747,-1.3748,-4.5811,-1.9317,0.5156,0.3792,0.0048,
4.587459,0.2096,0.4280,-0.4747,-1.3748,-4.5811,-1.9317,0.1294,0.3462,0.0692,
4.600288,0.2096,0.4280,-0.4747,-1.3748,-4.5811,-1.9317,-0.2392,0.3196,0.2162,
4.621033,0.3176,0.6608,-0.3068,-1.3748,-4.5811,-1.9317,-0.2392,0.3196,0.2162,
4.624247,0.3176,0.6608,-0.3068,-0.4025,-2.2854,-0.3522,-0.2392,0.3196,0.2162,
4.626573,0.3176,0.6608,-0.3068,-0.4025,-2.2854,-0.3522,-0.3313,0.1332,0.2823,
4.640466,0.3176,0.6608,-0.3068,-0.4025,-2.2854,-0.3522,-0.3947,0.0389,0.2093,
4.660784,0.3433,0.7942,-0.3770,-0.4025,-2.2854,-0.3522,-0.3947,0.0389,0.2093,
4.663094,0.3433,0.7942,-0.3770,-0.2461,-0.9806,-1.1786,-0.3947,0.0389,0.2093,
4.664964,0.3433,0.7942,-0.3770,-0.2461,-0.9806,-1.1786,-0.3686,0.0884,0.0618,
4.680706,0.3433,0.7942,-0.3770,-0.2461,-0.9806,-1.1786,-0.0783,-0.0373,-0.1497,
4.700632,0.2966,1.0302,-0.6411,-0.2461,-0.9806,-1.1786,-0.0783,-0.0373,-0.1497,
4.705099,0.2966,1.0302,-0.6411,-0.6706,1.3204,-3.7610,-0.0783,-0.0373,-0.1497,
4.707688,0.2966,1.0302,-0.6411,-0.6706,1.3204,-3.7610,0.0842,-0.1406,-0.4181,
4.719460,0.2966,1.0302,-0.6411,-0.6706,1.3204,-3.7610,0.0474,-0.4842,-0.3638,
4.740012,0.4520,1.5794,-0.7029,-0.6706,1.3204,-3.7610,0.0474,-0.4842,-0.3638,
4.740837,0.4520,1.5794,-0.7029,1.0215,6.6547,-4.3003,0.0474,-0.4842,-0.3638,
4.741277,0.4520,1.5794,-0.7029,1.0215,6.6547,-4.3003,0.1103,-0.9752,-0.1316,
4.759492,0.4520,1.5794,-0.7029,1.0215,6.6547,-4.3003,-0.8416,-1.0551,-0.1294,
4.780226,0.4002,0.9538,-0.3853,1.0215,6.6547,-4.3003,-0.8416,-1.0551,-0.1294,
4.782306,0.4002,0.9538,-0.3853,0.6667,0.4672,-1.1823,-0.8416,-1.0551,-0.1294,
4.783934,0.4002,0.9538,-0.3853,0.6667,0.4672,-1.1823,-1.8509,-1.2916,0.1949,
4.799772,0.4002,0.9538,-0.3853,0.6667,0.4672,-1.1823,-1.9489,-0.4607,0.2977,
4.819679,0.4578,0.8170,-0.2191,0.6667,0.4672,-1.1823,-1.9489,-0.4607,0.2977,
4.822249,0.4578,0.8170,-0.2191,1.2274,-1.0181,-0.1206,-1.9489,-0.4607,0.2977,
4.824226,0.4578,0.8170,-0.2191,1.2274,-1.0181,-0.1206,-2.0964,-0.6413,-0.2162,
4.839931,0.4578,0.8170,-0.2191,1.2274,-1.0181,-0.1206,-2.4453,-1.0322,-0.2690,
4.860119,0.3318,0.8905,-0.0911,1.2274,-1.0181,-0.1206,-2.4453,-1.0322,-0.2690,
4.862280,0.3318,0.8905,-0.0911,0.1220,-0.4708,0.4417,-2.4453,-1.0322,-0.2690,
4.863905,0.3318,0.8905,-0.0911,0.1220,-0.4708,0.4417,-2.5380,-0.7063,-0.1651,
4.879703,0.3318,0.8905,-0.0911,0.1220,-0.4708,0.4417,-2.5375,-0.5790,-0.2008,
4.899735,0.4803,1.0471,0.1263,0.1220,-0.4708,0.4417,-2.5375,-0.5790,-0.2008,
4.902014,0.4803,1.0471,0.1263,1.6593,0.9528,1.7172,-2.5375,-0.5790,-0.2008,
4.903489,0.4803,1.0471,0.1263,1.6593,0.9528,1.7172,-2.5337,-0.7095,-0.4458,
4.920356,0.4803,1.0471,0.1263,1.6593,0.9528,1.7172,-2.6072,-0.8341,-0.7233,
4.940538,0.3823,1.0776,0.4092,1.6593,0.9528,1.7172,-2.6072,-0.8341,-0.7233,
4.943637,0.3823,1.0776,0.4092,0.9186,1.1790,3.6206,-2.6072,-0.8341,-0.7233,
4.945625,0.3823,1.0776,0.4092,0.9186,1.1790,3.6206,-2.2988,-0.4879,-1.0637,
4.959821,0.3823,1.0776,0.4092,0.9186,1.1790,3.6206,-1.5010,0.1513,-1.3348,
4.980505,0.1119,0.9589,0.5807,0.9186,1.1790,3.6206,-1.5010,0.1513,-1.3348,
4.983204,0.1119,0.9589,0.5807,-1.2851,-0.0522,4.5924,-1.5010,0.1513,-1.3348,
4.985080,0.1119,0.9589,0.5807,-1.2851,-0.0522,4.5924,-0.4432,0.5965,-1.4738,
5.004740,0.1119,0.9589,0.5807,-1.2851,-0.0522,4.5924,0.3569,0.7212,-1.6011,
5.021307,-0.1009,0.8262,0.1720,-1.2851,-0.0522,4.5924,0.3569,0.7212,-1.6011,
5.023815,-0.1009,0.8262,0.1720,-2.7410,-1.4760,0.4794,0.3569,0.7212,-1.6011,
5.025519,-0.1009,0.8262,0.1720,-2.7410,-1.4760,0.4794,0.6077,0.6493,-1.6203,
5.040094,-0.1009,0.8262,0.1720,-2.7410,-1.4760,0.4794,0.4266,0.5614,-1.6192,
5.060389,-0.2753,0.7913,-0.1234,-2.7410,-1.4760,0.4794,0.4266,0.5614,-1.6192,
5.063548,-0.2753,0.7913,-0.1234,-3.7999,-1.9339,-2.2511,0.4266,0.5614,-1.6192,
5.065714,-0.2753,0.7913,-0.1234,-3.7999,-1.9339,-2.2511,-0.0623,0.4959,-1.4924,
5.080204,-0.2753,0.7913,-0.1234,-3.7999,-1.9339,-2.2511,-0.7009,0.6216,-1.0408,
5.100220,-0.3875,0.7212,-0.0696,-3.7999,-1.9339,-2.2511,-0.7009,0.6216,-1.0408,
5.103294,-0.3875,0.7212,-0.0696,-4.3836,-2.6466,-1.8903,-0.7009,0.6216,-1.0408,
5.105360,-0.3875,0.7212,-0.0696,-4.3836,-2.6466,-1.8903,-1.1920,0.7095,-0.4533,
5.120573,-0.3875,0.7212,-0.0696,-4.3836,-2.6466,-1.8903,-1.2267,0.6770,0.0266,
5.140180,-0.0987,0.6936,0.0938,-4.3836,-2.6466,-1.8903,-1.2267,0.6770,0.0266,
5.142674,-0.0987,0.6936,0.0938,-1.4309,-2.8517,-0.7704,-1.2267,0.6770,0.0266,
5.144742,-0.0987,0.6936,0.0938,-1.4309,-2.8517,-0.7704,-0.8714,0.5449,0.1646,
5.159563,-0.0987,0.6936,0.0938,-1.4309,-2.8517,-0.7704,-0.4272,0.3638,0.1486,
5.179847,-0.0242,0.7879,0.0318,-1.4309,-2.8517,-0.7704,-0.4272,0.3638,0.1486,
5.183288,-0.0242,0.7879,0.0318,-0.7276,-1.8774,-1.6368,-0.4272,0.3638,0.1486,
5.185364,-0.0242,0.7879,0.0318,-0.7276,-1.8774,-1.6368,-0.0959,0.2557,0.1795,
5.199612,-0.0242,0.7879,0.0318,-0.7276,-1.8774,-1.6368,0.0399,0.2141,0.2147,
5.220528,-0.0359,0.9450,-0.0242,-0.7276,-1.8774,-1.6368,0.0399,0.2141,0.2147,
5.222878,-0.0359,0.9450,-0.0242,-0.8997,-0.3316,-2.2006,0.0399,0.2141,0.2147,
5.224790,-0.0359,0.9450,-0.0242,-0.8997,-0.3316,-2.2006,0.0208,0.2450,0.2700,
5.239543,-0.0359,0.9450,-0.0242,-0.8997,-0.3316,-2.2006,-0.0154,0.3638,0.3526,
5.259610,-0.1388,1.1607,0.0584,-0.8997,-0.3316,-2.2006,-0.0154,0.3638,0.3526,
5.262134,-0.1388,1.1607,0.0584,-1.9469,1.7750,-1.3430,-0.0154,0.3638,0.3526,
5.263954,-0.1388,1.1607,0.0584,-1.9469,1.7750,-1.3430,0.0208,0.5092,0.4171,
5.279719,-0.1388,1.1607,0.0584,-1.9469,1.7750,-1.3430,0.1459,0.6557,0.4416,
5.299916,-0.1505,1.4297,0.1791,-1.9469,1.7750,-1.3430,0.1459,0.6557,0.4416,
5.302325,-0.1505,1.4297,0.1791,-2.1819,4.4157,-0.1435,0.1459,0.6557,0.4416,
5.304123,-0.1505,1.4297,0.1791,-2.1819,4.4157,-0.1435,0.3878,0.6077,0.4218,
5.319828,-0.1505,1.4297,0.1791,-2.1819,4.4157,-0.1435,0.7350,0.1614,0.3345,
5.339604,-0.0616,1.4553,0.2018,-2.1819,4.4157,-0.1435,0.7350,0.1614,0.3345,
5.341899,-0.0616,1.4553,0.2018,-1.4272,4.6383,0.2832,0.7350,0.1614,0.3345,
5.343508,-0.0616,1.4553,0.2018,-1.4272,4.6383,0.2832,1.0573,-0.6903,0.3201,
5.359012,-0.0616,1.4553,0.2018,-1.4272,4.6383,0.2832,1.0962,-1.7044,0.3089,
5.379555,0.0112,1.3513,0.0818,-1.4272,4.6383,0.2832,1.0962,-1.7044,0.3089,
5.381717,0.0112,1.3513,0.0818,-0.9029,3.5666,-0.4330,1.0962,-1.7044,0.3089,
5.383422,0.0112,1.3513,0.0818,-0.9029,3.5666,-0.4330,0.7334,-2.3516,0.3047,
5.400449,0.0112,1.3513,0.0818,-0.9029,3.5666,-0.4330,0.3899,-2.4421,0.3159,
5.419551,0.2792,1.0977,0.2778,-0.9029,3.5666,-0.4330,0.3899,-2.4421,0.3159,
5.422901,0.2792,1.0977,0.2778,1.5024,1.0711,1.8123,0.3899,-2.4421,0.3159,
5.424916,0.2792,1.0977,0.2778,1.5024,1.0711,1.8123,0.2844,-2.1460,0.2663,
5.439485,0.2792,1.0977,0.2778,1.5024,1.0711,1.8123,0.2908,-1.5579,0.2147,
5.459071,0.3965,0.8060,0.2631,1.5024,1.0711,1.8123,0.2908,-1.5579,0.2147,
5.461864,0.3965,0.8060,0.2631,2.4959,-1.7834,1.8713,0.2908,-1.5579,0.2147,
5.463459,0.3965,0.8060,0.2631,2.4959,-1.7834,1.8713,0.3159,-0.7633,0.2610,
5.479504,0.3965,0.8060,0.2631,2.4959,-1.7834,1.8713,0.3515,0.0469,0.2748,
5.498835,0.3894,0.8841,0.0674,2.4959,-1.7834,1.8713,0.3515,0.0469,0.2748,
5.500964,0.3894,0.8841,0.0674,2.2763,-1.0027,0.0770,0.3515,0.0469,0.2748,
5.502465,0.3894,0.8841,0.0674,2.2763,-1.0027,0.0770,0.3009,0.5854,0.2083,
5.519614,0.3894,0.8841,0.0674,2.2763,-1.0027,0.0770,0.0943,0.8378,0.1369,
5.539813,0.2072,0.9733,-0.0369,2.2763,-1.0027,0.0770,0.0943,0.8378,0.1369,
5.542001,0.2072,0.9733,-0.0369,0.4065,-0.1167,-0.9190,0.0943,0.8378,0.1369,
5.543669,0.2072,0.9733,-0.0369,0.4065,-0.1167,-0.9190,-0.1188,1.0360,0.1641,
5.559482,0.2072,0.9733,-0.0369,0.4065,-0.1167,-0.9190,-0.1129,1.2480,0.1854,
5.579586,0.0603,1.0625,0.1165,0.4065,-0.1167,-0.9190,-0.1129,1.2480,0.1854,
5.582011,0.0603,1.0625,0.1165,-1.0711,0.7716,0.4621,-0.1129,1.2480,0.1854,
5.583730,0.0603,1.0625,0.1165,-1.0711,0.7716,0.4621,0.3872,1.7875,0.1353,
5.600895,0.0603,1.0625,0.1165,-1.0711,0.7716,0.4621,1.3039,2.3313,0.0096,
5.619316,-0.1825,0.9894,0.1158,-1.0711,0.7716,0.4621,1.3039,2.3313,0.0096,
5.621683,-0.1825,0.9894,0.1158,-3.3749,0.0324,0.6255,1.3039,2.3313,0.0096,
5.623345,-0.1825,0.9894,0.1158,-3.3749,0.0324,0.6255,1.9750,1.9707,0.2194,
5.639152,-0.1825,0.9894,0.1158,-3.3749,0.0324,0.6255,2.1145,0.7020,0.7020,
5.658942,-0.1510,0.6733,-0.0117,-3.3749,0.0324,0.6255,2.1145,0.7020,0.7020,
5.661058,-0.1510,0.6733,-0.0117,-3.2300,-3.0488,0.0784,2.1145,0.7020,0.7020,
5.662883,-0.1510,0.6733,-0.0117,-3.2300,-3.0488,0.0784,1.9553,-0.4708,1.3433,
5.679314,-0.1510,0.6733,-0.0117,-3.2300,-3.0488,0.0784,1.7412,-0.7595,1.7891,
5.699329,-0.0335,0.6242,-0.1498,-3.2300,-3.0488,0.0784,1.7412,-0.7595,1.7891,
5.702026,-0.0335,0.6242,-0.1498,-2.6616,-3.3602,-0.5169,1.7412,-0.7595,1.7891,
5.703765,-0.0335,0.6242,-0.1498,-2.6616,-3.3602,-0.5169,1.5031,-0.3734,2.0272,
5.718787,-0.0335,0.6242,-0.1498,-2.6616,-3.3602,-0.5169,0.9864,0.0202,2.0927,
5.738934,0.8052,0.6635,-0.2888,-2.6616,-3.3602,-0.5169,0.9864,0.0202,2.0927,
5.741463,0.8052,0.6635,-0.2888,4.7975,-2.6922,-1.3969,0.9864,0.0202,2.0927,
5.743246,0.8052,0.6635,-0.2888,4.7975,-2.6922,-1.3969,0.5784,0.1992,1.1239,
5.758690,0.8052,0.6635,-0.2888,4.7975,-2.6922,-1.3969,0.5007,0.4155,0.3787,
5.778308,0.3889,0.5385,-0.3823,4.7975,-2.6922,-1.3969,0.5007,0.4155,0.3787,
5.780750,0.3889,0.5385,-0.3823,0.4248,-3.7882,-2.1577,0.5007,0.4155,0.3787,
5.782557,0.3889,0.5385,-0.3823,0.4248,-3.7882,-2.1577,0.4384,0.3979,0.1481,
5.798883,0.3889,0.5385,-0.3823,0.4248,-3.7882,-2.1577,0.2551,0.2887,0.0921,
5.817864,0.2946,0.6711,-0.4652,0.4248,-3.7882,-2.1577,0.2551,0.2887,0.0921,
5.819730,0.2946,0.6711,-0.4652,-0.5652,-2.4491,-2.8910,0.2551,0.2887,0.0921,
5.821268,0.2946,0.6711,-0.4652,-0.5652,-2.4491,-2.8910,-0.0282,0.2253,0.0080,
5.838278,0.2946,0.6711,-0.4652,-0.5652,-2.4491,-2.8910,-0.1097,0.1720,-0.1843,
5.859121,0.2639,1.0407,-0.4400,-0.5652,-2.4491,-2.8910,-0.1097,0.1720,-0.1843,
5.861639,0.2639,1.0407,-0.4400,-0.8429,1.1636,-2.6471,-0.1097,0.1720,-0.1843,
5.863449,0.2639,1.0407,-0.4400,-0.8429,1.1636,-2.6471,0.1380,0.1917,-0.4474,
5.878508,0.2639,1.0407,-0.4400,-0.8429,1.1636,-2.6471,0.2498,-0.1816,-0.8171,
5.899028,0.2355,1.1507,-0.5834,-0.8429,1.1636,-2.6471,0.2498,-0.1816,-0.8171,
5.901421,0.2355,1.1507,-0.5834,-0.8918,2.1704,-3.9833,0.2498,-0.1816,-0.8171,
5.903111,0.2355,1.1507,-0.5834,-0.8918,2.1704,-3.9833,-0.3041,-0.6674,-0.4421,
5.919109,0.2355,1.1507,-0.5834,-0.8918,2.1704,-3.9833,-0.8016,-0.7361,0.1369,
5.938051,0.5692,1.5325,-0.3775,-0.8918,2.1704,-3.9833,-0.8016,-0.7361,0.1369,
5.941312,0.5692,1.5325,-0.3775,2.4819,5.8559,-2.0795,-0.8016,-0.7361,0.1369,
5.943615,0.5692,1.5325,-0.3775,2.4819,5.8559,-2.0795,-0.6610,-0.3068,0.1923,
5.958113,0.5692,1.5325,-0.3775,2.4819,5.8559,-2.0795,-1.6469,-1.8679,0.0160,
5.978391,0.6738,1.2342,-0.1549,2.4819,5.8559,-2.0795,-1.6469,-1.8679,0.0160,
5.980880,0.6738,1.2342,-0.1549,3.5313,2.8780,-0.1873,-1.6469,-1.8679,0.0160,
5.982365,0.6738,1.2342,-0.1549,3.5313,2.8780,-0.1873,-2.1279,-1.4093,0.1539,
5.998323,0.6738,1.2342,-0.1549,3.5313,2.8780,-0.1873,-2.1657,-0.7942,-0.3164,
6.019068,0.3880,0.7517,0.0498,3.5313,2.8780,-0.1873,-2.1657,-0.7942,-0.3164,
6.021515,0.3880,0.7517,0.0498,0.8069,-1.9470,1.1598,-2.1657,-0.7942,-0.3164,
6.023138,0.3880,0.7517,0.0498,0.8069,-1.9470,1.1598,-2.2104,-1.0184,-0.4964,
6.038759,0.3880,0.7517,0.0498,0.8069,-1.9470,1.1598,-2.0863,-0.9800,-0.6631,
6.058599,0.3723,0.9350,0.0899,0.8069,-1.9470,1.1598,-2.0863,-0.9800,-0.6631,
6.061658,0.3723,0.9350,0.0899,0.8701,-0.2421,0.8699,-2.0863,-0.9800,-0.6631,
6.063444,0.3723,0.9350,0.0899,0.8701,-0.2421,0.8699,-2.0112,-0.8709,-0.8911,
6.079045,0.3723,0.9350,0.0899,0.8701,-0.2421,0.8699,-2.0730,-0.8373,-1.0184,
6.097968,0.3049,1.0581,0.4021,0.8701,-0.2421,0.8699,-2.0730,-0.8373,-1.0184,
6.100655,0.3049,1.0581,0.4021,0.5539,0.8950,3.2460,-2.0730,-0.8373,-1.0184,
6.102371,0.3049,1.0581,0.4021,0.5539,0.8950,3.2460,-1.9787,-0.6013,-1.1340,
6.117794,0.3049,1.0581,0.4021,0.5539,0.8950,3.2460,-1.4072,0.1459,-1.1691,
6.138673,0.0579,1.0491,0.6139,0.5539,0.8950,3.2460,-1.4072,0.1459,-1.1691,
6.140912,0.0579,1.0491,0.6139,-1.4369,0.7715,4.7018,-1.4072,0.1459,-1.1691,
6.142636,0.0579,1.0491,0.6139,-1.4369,0.7715,4.7018,-0.4479,0.8229,-1.1089,
6.158083,0.0579,1.0491,0.6139,-1.4369,0.7715,4.7018,0.4027,0.9784,-0.9939,
6.178436,-0.0591,0.8959,0.2118,-1.4369,0.7715,4.7018,0.4027,0.9784,-0.9939,
6.180856,-0.0591,0.8959,0.2118,-2.1174,-0.7993,0.6439,0.4027,0.9784,-0.9939,
6.182487,-0.0591,0.8959,0.2118,-2.1174,-0.7993,0.6439,0.8101,0.9113,-0.8858,
6.201219,-0.0591,0.8959,0.2118,-2.1174,-0.7993,0.6439,0.7281,0.7468,-1.0599,
6.217918,-0.1053,0.7417,-0.0936,-2.1174,-0.7993,0.6439,0.7281,0.7468,-1.0599,
6.220990,-0.1053,0.7417,-0.0936,-2.1527,-2.4018,-2.0980,0.7281,0.7468,-1.0599,
6.223011,-0.1053,0.7417,-0.0936,-2.1527,-2.4018,-2.0980,0.3180,0.4655,-1.3566,
6.237989,-0.1053,0.7417,-0.0936,-2.1527,-2.4018,-2.0980,-0.4506,0.3329,-1.2006,
6.258444,-0.3567,0.6951,-0.2038,-2.1527,-2.4018,-2.0980,-0.4506,0.3329,-1.2006,
6.262151,-0.3567,0.6951,-0.2038,-4.1025,-2.8999,-3.2175,-0.4506,0.3329,-1.2006,
6.264176,-0.3567,0.6951,-0.2038,-4.1025,-2.8999,-3.2175,-1.0695,0.4421,-0.7207,
6.278574,-0.3567,0.6951,-0.2038,-4.1025,-2.8999,-3.2175,-1.4477,0.5662,-0.2674,
6.298807,-0.2094,0.6237,-0.0115,-4.1025,-2.8999,-3.2175,-1.4477,0.5662,-0.2674,
6.301021,-0.2094,0.6237,-0.0115,-2.4379,-3.5351,-1.8294,-1.4477,0.5662,-0.2674,
6.302929,-0.2094,0.6237,-0.0115,-2.4379,-3.5351,-1.8294,-1.4035,0.5726,0.0000,
6.318237,-0.2094,0.6237,-0.0115,-2.4379,-3.5351,-1.8294,-1.0472,0.5156,0.0437,
6.338035,-0.0853,0.7757,0.0953,-2.4379,-3.5351,-1.8294,-1.0472,0.5156,0.0437,
6.342285,-0.0853,0.7757,0.0953,-1.1872,-1.9498,-1.2612,-1.0472,0.5156,0.0437,
6.344648,-0.0853,0.7757,0.0953,-1.1872,-1.9498,-1.2612,-0.5401,0.4293,0.0836,
6.358587,-0.0853,0.7757,0.0953,-1.1872,-1.9498,-1.2612,-0.0905,0.2131,0.2178,
6.378029,-0.0738,0.9892,0.0716,-1.1872,-1.9498,-1.2612,-0.0905,0.2131,0.2178,
6.380935,-0.0738,0.9892,0.0716,-1.1029,0.1733,-1.6181,-0.0905,0.2131,0.2178,
6.382810,-0.0738,0.9892,0.0716,-1.1029,0.1733,-1.6181,0.1566,-0.0597,0.3047,
6.401104,-0.0738,0.9892,0.0716,-1.1029,0.1733,-1.6181,0.2168,-0.1603,0.3521,
6.418138,-0.1605,1.2135,0.0374,-1.1029,0.1733,-1.6181,0.2168,-0.1603,0.3521,
6.420600,-0.1605,1.2135,0.0374,-2.0311,2.3441,-1.8240,0.2168,-0.1603,0.3521,
6.422075,-0.1605,1.2135,0.0374,-2.0311,2.3441,-1.8240,0.1939,-0.0655,0.3936,
6.437847,-0.1605,1.2135,0.0374,-2.0311,2.3441,-1.8240,0.2365,0.1135,0.4117,
6.458096,-0.1915,1.4033,0.1771,-2.0311,2.3441,-1.8240,0.2365,0.1135,0.4117,
6.461358,-0.1915,1.4033,0.1771,-2.4869,4.1945,-0.3731,0.2365,0.1135,0.4117,
6.463098,-0.1915,1.4033,0.1771,-2.4869,4.1945,-0.3731,0.4543,0.2162,0.4005,
6.479197,-0.1915,1.4033,0.1771,-2.4869,4.1945,-0.3731,0.8027,0.0613,0.3063,
6.497491,-0.0926,1.4629,0.2387,-2.4869,4.1945,-0.3731,0.8027,0.0613,0.3063,
6.499704,-0.0926,1.4629,0.2387,-1.6410,4.7382,0.4671,0.8027,0.0613,0.3063,
6.501444,-0.0926,1.4629,0.2387,-1.6410,4.7382,0.4671,1.1313,-0.5305,0.2370,
6.517655,-0.0926,1.4629,0.2387,-1.6410,4.7382,0.4671,1.1824,-1.1958,0.1225,
6.537755,-0.0523,1.4016,0.0975,-1.6410,4.7382,0.4671,1.1824,-1.1958,0.1225,
6.539751,-0.0523,1.4016,0.0975,-1.3701,4.0672,-0.4439,1.1824,-1.1958,0.1225,
6.541547,-0.0523,1.4016,0.0975,-1.3701,4.0672,-0.4439,0.8490,-1.5340,0.0570,
6.558456,-0.0523,1.4016,0.0975,-1.3701,4.0672,-0.4439,0.4767,-1.6746,0.0447,
6.577136,0.1808,1.0964,0.2680,-1.3701,4.0672,-0.4439,0.4767,-1.6746,0.0447,
6.579588,0.1808,1.0964,0.2680,0.8161,1.0456,1.5419,0.4767,-1.6746,0.0447,
6.580888,0.1808,1.0964,0.2680,0.8161,1.0456,1.5419,0.2684,-1.5739,0.0021,
6.600156,0.1808,1.0964,0.2680,0.8161,1.0456,1.5419,0.2434,-1.3129,0.0282,
6.618136,0.3144,0.8519,0.2861,0.8161,1.0456,1.5419,0.2434,-1.3129,0.0282,
6.620068,0.3144,0.8519,0.2861,2.0617,-1.3606,1.8752,0.2434,-1.3129,0.0282,
6.621758,0.3144,0.8519,0.2861,2.0617,-1.3606,1.8752,0.2770,-0.8464,0.1337,
6.638190,0.3144,0.8519,0.2861,2.0617,-1.3606,1.8752,0.3095,-0.2370,0.2306,
6.657411,0.4192,0.9750,0.1454,2.0617,-1.3606,1.8752,0.3095,-0.2370,0.2306,
6.660954,0.4192,0.9750,0.1454,2.9891,-0.1544,0.6248,0.3095,-0.2370,0.2306,
6.662636,0.4192,0.9750,0.1454,2.9891,-0.1544,0.6248,0.3462,0.3856,0.2455,
6.677276,0.4192,0.9750,0.1454,2.9891,-0.1544,0.6248,0.4053,0.9252,0.1848,
6.698024,0.2580,0.9824,0.0694,2.9891,-0.1544,0.6248,0.4053,0.9252,0.1848,
6.700127,0.2580,0.9824,0.0694,1.3200,-0.0799,-0.0167,0.4053,0.9252,0.1848,
6.701910,0.2580,0.9824,0.0694,1.3200,-0.0799,-0.0167,0.6386,1.4445,0.1768,
6.718339,0.2580,0.9824,0.0694,1.3200,-0.0799,-0.0167,1.1681,2.1486,0.0980,
6.738177,-0.1212,0.9999,0.0740,1.3200,-0.0799,-0.0167,1.1681,2.1486,0.0980,
6.740539,-0.1212,0.9999,0.0740,-2.3985,0.0786,0.2697,1.1681,2.1486,0.0980,
6.742173,-0.1212,0.9999,0.0740,-2.3985,0.0786,0.2697,1.8136,2.6424,0.0581,
6.757988,-0.1212,0.9999,0.0740,-2.3985,0.0786,0.2697,2.0128,1.9819,0.3595,
6.777301,-0.0745,0.6843,-0.0359,-2.3985,0.0786,0.2697,2.0128,1.9819,0.3595,
6.779385,-0.0745,0.6843,-0.0359,-2.0060,-3.0156,-0.1773,2.0128,1.9819,0.3595,
6.781369,-0.0745,0.6843,-0.0359,-2.0060,-3.0156,-0.1773,1.9106,0.9694,0.7047,
6.799718,-0.0745,0.6843,-0.0359,-2.0060,-3.0156,-0.1773,1.6948,0.2594,1.1164,
6.817381,-0.1251,0.6867,-0.0674,-2.0060,-3.0156,-0.1773,1.6948,0.2594,1.1164,
6.820263,-0.1251,0.6867,-0.0674,-2.8638,-2.9024,0.1772,1.6948,0.2594,1.1164,
6.822092,-0.1251,0.6867,-0.0674,-2.8638,-2.9024,0.1772,1.6219,0.3382,1.5500,
6.837009,-0.1251,0.6867,-0.0674,-2.8638,-2.9024,0.1772,1.4749,0.5380,1.8525,
6.857249,-0.0227,0.6332,-0.1600,-2.8638,-2.9024,0.1772,1.4749,0.5380,1.8525,
6.860032,-0.0227,0.6332,-0.1600,-2.5288,-3.2235,-0.1750,1.4749,0.5380,1.8525,
6.861929,-0.0227,0.6332,-0.1600,-2.5288,-3.2235,-0.1750,1.1015,0.5571,2.0938,
6.877370,-0.0227,0.6332,-0.1600,-2.5288,-3.2235,-0.1750,0.5774,0.4176,1.9079,
6.896602,0.8668,0.6328,-0.3090,-2.5288,-3.2235,-0.1750,0.5774,0.4176,1.9079,
6.898896,0.8668,0.6328,-0.3090,5.4155,-2.9618,-1.3753,0.5774,0.4176,1.9079,
6.900755,0.8668,0.6328,-0.3090,5.4155,-2.9618,-1.3753,0.2450,0.3047,0.9124,
6.916907,0.8668,0.6328,-0.3090,5.4155,-2.9618,-1.3753,0.2445,0.4591,0.4123,
6.936646,0.4129,0.6511,-0.3420,5.4155,-2.9618,-1.3753,0.2445,0.4591,0.4123,
6.938829,0.4129,0.6511,-0.3420,0.7004,-2.6809,-1.6590,0.2445,0.4591,0.4123,
6.940599,0.4129,0.6511,-0.3420,0.7004,-2.6809,-1.6590,0.1395,0.5097,0.2621,
6.957300,0.4129,0.6511,-0.3420,0.7004,-2.6809,-1.6590,-0.0309,0.4011,0.2115,
6.977139,0.3389,0.6875,-0.4012,0.7004,-2.6809,-1.6590,-0.0309,0.4011,0.2115,
6.979415,0.3389,0.6875,-0.4012,-0.1411,-2.2883,-2.2807,-0.0309,0.4011,0.2115,
6.981340,0.3389,0.6875,-0.4012,-0.1411,-2.2883,-2.2807,-0.2961,0.0959,0.0660,
6.999654,0.3389,0.6875,-0.4012,-0.1411,-2.2883,-2.2807,-0.4021,0.0724,-0.2216,
7.017143,0.3288,1.0051,-0.4371,-0.1411,-2.2883,-2.2807,-0.4021,0.0724,-0.2216,
7.019775,0.3288,1.0051,-0.4371,-0.2215,0.8027,-2.7150,-0.4021,0.0724,-0.2216,
7.021330,0.3288,1.0051,-0.4371,-0.2215,0.8027,-2.7150,-0.1688,0.0495,-0.5065,
7.036336,0.3288,1.0051,-0.4371,-0.2215,0.8027,-2.7150,0.1182,-0.2162,-0.5657,
7.056979,0.2959,1.0026,-0.5902,-0.2215,0.8027,-2.7150,0.1182,-0.2162,-0.5657,
7.060914,0.2959,1.0026,-0.5902,-0.3435,0.7116,-4.1764,0.1182,-0.2162,-0.5657,
7.062845,0.2959,1.0026,-0.5902,-0.3435,0.7116,-4.1764,0.1108,-0.2956,-0.3936,
7.076510,0.2959,1.0026,-0.5902,-0.3435,0.7116,-4.1764,0.0176,-0.1348,0.0479,
7.096221,0.4136,1.4668,-0.4798,-0.3435,0.7116,-4.1764,0.0176,-0.1348,0.0479,
7.098679,0.4136,1.4668,-0.4798,0.8875,5.2427,-3.0434,0.0176,-0.1348,0.0479,
7.099840,0.4136,1.4668,-0.4798,0.8875,5.2427,-3.0434,-0.5033,-0.5401,0.0900,
7.116305,0.4136,1.4668,-0.4798,0.8875,5.2427,-3.0434,-1.7880,-1.7849,0.2541,
7.137372,0.7598,1.0522,-0.2160,0.8875,5.2427,-3.0434,-1.7880,-1.7849,0.2541,
7.140372,0.7598,1.0522,-0.2160,4.2880,1.1317,-0.7297,-1.7880,-1.7849,0.2541,
7.142376,0.7598,1.0522,-0.2160,4.2880,1.1317,-0.7297,-2.3031,-1.1936,0.3659,
7.156568,0.7598,1.0522,-0.2160,4.2880,1.1317,-0.7297,-2.3340,-0.5433,-0.4362,
7.176903,0.4429,0.8473,-0.0156,4.2880,1.1317,-0.7297,-2.3340,-0.5433,-0.4362,
7.179278,0.4429,0.8473,-0.0156,1.2340,-0.9762,0.4895,-2.3340,-0.5433,-0.4362,
7.181072,0.4429,0.8473,-0.0156,1.2340,-0.9762,0.4895,-2.4581,-0.8959,-0.9752,
7.199129,0.4429,0.8473,-0.0156,1.2340,-0.9762,0.4895,-2.6152,-1.4147,-1.1404,
7.216639,0.3476,1.0495,0.1695,1.2340,-0.9762,0.4895,-2.6152,-1.4147,-1.1404,
7.218877,0.3476,1.0495,0.1695,0.7045,0.8601,1.4894,-2.6152,-1.4147,-1.1404,
7.221063,0.3476,1.0495,0.1695,0.7045,0.8601,1.4894,-2.6957,-1.7183,-1.0823,
7.236348,0.3476,1.0495,0.1695,0.7045,0.8601,1.4894,-2.5007,-1.4365,-1.1462,
7.256826,0.1761,0.9850,0.6372,0.7045,0.8601,1.4894,-2.5007,-1.4365,-1.1462,
7.258513,0.1761,0.9850,0.6372,-0.5957,0.1787,5.2400,-2.5007,-1.4365,-1.1462,
7.259900,0.1761,0.9850,0.6372,-0.5957,0.1787,5.2400,-1.8488,-0.7750,-1.1526,
7.276802,0.1761,0.9850,0.6372,-0.5957,0.1787,5.2400,-0.7313,0.3233,-1.1302,
7.297181,0.0090,1.0371,0.6990,-0.5957,0.1787,5.2400,-0.7313,0.3233,-1.1302,
7.299419,0.0090,1.0371,0.6990,-1.8098,0.6554,5.3786,-0.7313,0.3233,-1.1302,
7.301137,0.0090,1.0371,0.6990,-1.8098,0.6554,5.3786,0.4288,1.0269,-1.1409,
7.316915,0.0090,1.0371,0.6990,-1.8098,0.6554,5.3786,1.1249,1.0376,-1.0541,
7.336395,-0.1324,0.8306,0.1896,-1.8098,0.6554,5.3786,1.1249,1.0376,-1.0541,
7.339169,-0.1324,0.8306,0.1896,-2.6851,-1.4773,0.5362,1.1249,1.0376,-1.0541,
7.341283,-0.1324,0.8306,0.1896,-2.6851,-1.4773,0.5362,1.1723,0.9199,-0.9337,
7.356371,-0.1324,0.8306,0.1896,-2.6851,-1.4773,0.5362,0.7084,0.6498,-1.1382,
7.376567,-0.1871,0.7078,-0.1065,-2.6851,-1.4773,0.5362,0.7084,0.6498,-1.1382,
7.378882,-0.1871,0.7078,-0.1065,-2.7851,-2.7734,-2.0402,0.7084,0.6498,-1.1382,
7.380886,-0.1871,0.7078,-0.1065,-2.7851,-2.7734,-2.0402,0.0383,0.1981,-1.2773,
7.399772,-0.1871,0.7078,-0.1065,-2.7851,-2.7734,-2.0402,-0.6882,0.0629,-1.0498,
7.417075,-0.3630,0.6909,-0.1620,-2.7851,-2.7734,-2.0402,-0.6882,0.0629,-1.0498,
7.420652,-0.3630,0.6909,-0.1620,-4.0520,-2.9584,-2.7139,-0.6882,0.0629,-1.0498,
7.423295,-0.3630,0.6909,-0.1620,-4.0520,-2.9584,-2.7139,-1.3289,0.1944,-0.5550,
7.436329,-0.3630,0.6909,-0.1620,-4.0520,-2.9584,-2.7139,-1.6245,0.3366,-0.0639,
7.456819,-0.1070,0.7280,0.0550,-4.0520,-2.9584,-2.7139,-1.6245,0.3366,-0.0639,
7.460782,-0.1070,0.7280,0.0550,-1.4075,-2.5163,-1.1638,-1.6245,0.3366,-0.0639,
7.462870,-0.1070,0.7280,0.0550,-1.4075,-2.5163,-1.1638,-1.4136,0.3979,0.1380,
7.475763,-0.1070,0.7280,0.0550,-1.4075,-2.5163,-1.1638,-0.9033,0.4602,0.1076,
7.496979,-0.0039,0.8248,0.0992,-1.4075,-2.5163,-1.1638,-0.9033,0.4602,0.1076,
7.499970,-0.0039,0.8248,0.0992,-0.4107,-1.4772,-1.1814,-0.9033,0.4602,0.1076,
7.502002,-0.0039,0.8248,0.0992,-0.4107,-1.4772,-1.1814,-0.3190,0.5555,0.1060,
7.516504,-0.0039,0.8248,0.0992,-0.4107,-1.4772,-1.1814,0.1305,0.5023,0.1720,
7.536752,-0.0481,0.9318,-0.0088,-0.4107,-1.4772,-1.1814,0.1305,0.5023,0.1720,
7.540643,-0.0481,0.9318,-0.0088,-0.8507,-0.4183,-2.2834,0.1305,0.5023,0.1720,
7.542700,-0.0481,0.9318,-0.0088,-0.8507,-0.4183,-2.2834,0.2866,0.2924,0.2711,
7.556252,-0.0481,0.9318,-0.0088,-0.8507,-0.4183,-2.2834,0.2093,0.1065,0.3622,
7.576286,-0.1537,1.0730,0.0271,-0.8507,-0.4183,-2.2834,0.2093,0.1065,0.3622,
7.579354,-0.1537,1.0730,0.0271,-1.9570,0.9404,-1.8048,0.2093,0.1065,0.3622,
7.581541,-0.1537,1.0730,0.0271,-1.9570,0.9404,-1.8048,0.1268,-0.0032,0.4373,
7.599444,-0.1537,1.0730,0.0271,-1.9570,0.9404,-1.8048,0.1614,0.0011,0.4746,
7.616602,-0.1764,1.2997,0.1173,-1.9570,0.9404,-1.8048,0.1614,0.0011,0.4746,
7.618856,-0.1764,1.2997,0.1173,-2.3542,3.1603,-0.8662,0.1614,0.0011,0.4746,
7.620728,-0.1764,1.2997,0.1173,-2.3542,3.1603,-0.8662,0.3121,0.1108,0.4618,
7.636548,-0.1764,1.2997,0.1173,-2.3542,3.1603,-0.8662,0.5736,0.2013,0.4186,
7.656375,-0.1334,1.5648,0.1920,-2.3542,3.1603,-0.8662,0.5736,0.2013,0.4186,
7.658687,-0.1334,1.5648,0.1920,-2.0893,5.7362,0.0316,0.5736,0.2013,0.4186,
7.660453,-0.1334,1.5648,0.1920,-2.0893,5.7362,0.0316,0.8948,0.0533,0.3707,
7.675711,-0.1334,1.5648,0.1920,-2.0893,5.7362,0.0316,1.1084,-0.4597,0.3409,
7.695853,-0.0931,1.4651,0.1287,-2.0893,5.7362,0.0316,1.1084,-0.4597,0.3409,
7.698292,-0.0931,1.4651,0.1287,-1.8436,4.7052,-0.1960,1.1084,-0.4597,0.3409,
7.700122,-0.0931,1.4651,0.1287,-1.8436,4.7052,-0.1960,0.9774,-1.0147,0.2770,
7.715621,-0.0931,1.4651,0.1287,-1.8436,4.7052,-0.1960,0.6413,-1.1952,0.2711,
7.735909,0.0870,1.1306,0.2568,-1.8436,4.7052,-0.1960,0.6413,-1.1952,0.2711,
7.738273,0.0870,1.1306,0.2568,-0.2403,1.3971,1.4157,0.6413,-1.1952,0.2711,
7.739921,0.0870,1.1306,0.2568,-0.2403,1.3971,1.4157,0.3904,-1.0099,0.2296,
7.755831,0.0870,1.1306,0.2568,-0.2403,1.3971,1.4157,0.2253,-0.8037,0.1768,
7.775944,0.2404,0.8587,0.3345,-0.2403,1.3971,1.4157,0.2253,-0.8037,0.1768,
7.778010,0.2404,0.8587,0.3345,1.1479,-1.2709,2.3379,0.2253,-0.8037,0.1768,
7.779663,0.2404,0.8587,0.3345,1.1479,-1.2709,2.3379,0.1140,-0.7185,0.2077,
7.798341,0.2404,0.8587,0.3345,1.1479,-1.2709,2.3379,0.0826,-0.4922,0.3020,
7.816447,0.3814,0.8971,0.2707,1.1479,-1.2709,2.3379,0.0826,-0.4922,0.3020,
7.819583,0.3814,0.8971,0.2707,2.3986,-0.8820,1.7579,0.0826,-0.4922,0.3020,
7.821420,0.3814,0.8971,0.2707,2.3986,-0.8820,1.7579,0.1321,-0.0985,0.3313,
7.836326,0.3814,0.8971,0.2707,2.3986,-0.8820,1.7579,0.1694,0.4080,0.3036,
7.856300,0.2873,0.9929,0.1324,2.3986,-0.8820,1.7579,0.1694,0.4080,0.3036,
7.860406,0.2873,0.9929,0.1324,1.3427,0.0734,0.4309,0.1694,0.4080,0.3036,
7.862255,0.2873,0.9929,0.1324,1.3427,0.0734,0.4309,0.2189,0.8341,0.3025,
7.875636,0.2873,0.9929,0.1324,1.3427,0.0734,0.4309,0.4953,1.4291,0.3180,
7.895286,-0.1595,1.2162,0.1810,1.3427,0.0734,0.4309,0.4953,1.4291,0.3180,
7.897798,-0.1595,1.2162,0.1810,-3.1181,2.2686,0.9763,0.4953,1.4291,0.3180,
7.899222,-0.1595,1.2162,0.1810,-3.1181,2.2686,0.9763,1.4972,3.0179,0.2924,
7.915737,-0.1595,1.2162,0.1810,-3.1181,2.2686,0.9763,2.1566,3.0877,0.5566,
7.935302,-0.1165,0.7637,0.0452,-3.1181,2.2686,0.9763,2.1566,3.0877,0.5566,
7.937543,-0.1165,0.7637,0.0452,-2.7495,-2.1847,0.1314,2.1566,3.0877,0.5566,
7.939290,-0.1165,0.7637,0.0452,-2.7495,-2.1847,0.1314,2.0964,1.7103,1.0631,
7.956161,-0.1165,0.7637,0.0452,-2.7495,-2.1847,0.1314,1.8552,0.4703,1.5872,
7.975928,-0.1266,0.6288,0.0039,-2.7495,-2.1847,0.1314,1.8552,0.4703,1.5872,
7.978329,-0.1266,0.6288,0.0039,-3.3544,-3.4061,0.4101,1.8552,0.4703,1.5872,
7.979962,-0.1266,0.6288,0.0039,-3.3544,-3.4061,0.4101,1.7673,0.2722,2.1247,
7.995375,-0.1266,0.6288,0.0039,-3.3544,-3.4061,0.4101,1.6378,0.4682,2.4453,
8.015197,0.8228,0.5458,-0.1520,-3.3544,-3.4061,0.4101,1.6378,0.4682,2.4453,
8.017751,0.8228,0.5458,-0.1520,5.0782,-3.9415,-0.5139,1.6378,0.4682,2.4453,
8.019535,0.8228,0.5458,-0.1520,5.0782,-3.9415,-0.5139,1.2655,0.3627,2.1465,
8.035231,0.8228,0.5458,-0.1520,5.0782,-3.9415,-0.5139,0.9470,0.0820,0.8858,
8.055348,0.5253,0.5424,-0.2516,5.0782,-3.9415,-0.5139,0.9470,0.0820,0.8858,
8.058479,0.5253,0.5424,-0.2516,1.5968,-3.7257,-1.1150,0.9470,0.0820,0.8858,
8.060123,0.5253,0.5424,-0.2516,1.5968,-3.7257,-1.1150,0.7899,0.1944,0.3505,
8.075386,0.5253,0.5424,-0.2516,1.5968,-3.7257,-1.1150,0.6072,0.5273,0.2189,
8.095781,0.3210,0.5866,-0.3496,1.5968,-3.7257,-1.1150,0.6072,0.5273,0.2189,
8.097985,0.3210,0.5866,-0.3496,-0.5285,-3.2107,-1.8764,0.6072,0.5273,0.2189,
8.099801,0.3210,0.5866,-0.3496,-0.5285,-3.2107,-1.8764,0.3366,0.5934,0.1518,
8.115609,0.3210,0.5866,-0.3496,-0.5285,-3.2107,-1.8764,0.1790,0.3718,0.2067,
8.135296,0.3391,0.8084,-0.4683,-0.5285,-3.2107,-1.8764,0.1790,0.3718,0.2067,
8.138477,0.3391,0.8084,-0.4683,-0.4454,-0.9940,-3.0195,0.1790,0.3718,0.2067,
8.140547,0.3391,0.8084,-0.4683,-0.4454,-0.9940,-3.0195,-0.0123,0.1811,0.2242,
8.155269,0.3391,0.8084,-0.4683,-0.4454,-0.9940,-3.0195,-0.1646,0.3095,0.0421,
8.175711,0.2629,1.0869,-0.4197,-0.4454,-0.9940,-3.0195,-0.1646,0.3095,0.0421,
8.179019,0.2629,1.0869,-0.4197,-1.2332,1.7544,-2.5335,-0.1646,0.3095,0.0421,
8.180976,0.2629,1.0869,-0.4197,-1.2332,1.7544,-2.5335,0.0495,0.3047,-0.1987,
8.198349,0.2629,1.0869,-0.4197,-1.2332,1.7544,-2.5335,0.3925,0.0730,-0.4692,
8.214940,0.2746,0.7955,-0.5363,-1.2332,1.7544,-2.5335,0.3925,0.0730,-0.4692,
8.217786,0.2746,0.7955,-0.5363,-0.9940,-1.1296,-3.5427,0.3925,0.0730,-0.4692,
8.219438,0.2746,0.7955,-0.5363,-0.9940,-1.1296,-3.5427,0.1385,-0.4373,-0.7718,
8.235083,0.2746,0.7955,-0.5363,-0.9940,-1.1296,-3.5427,-0.2743,-0.5523,-0.4085,
8.254644,0.5006,1.9283,-0.4740,-0.9940,-1.1296,-3.5427,-0.2743,-0.5523,-0.4085,
8.257077,0.5006,1.9283,-0.4740,1.4668,9.8834,-2.8867,-0.2743,-0.5523,-0.4085,
8.258637,0.5006,1.9283,-0.4740,1.4668,9.8834,-2.8867,-0.1609,0.1449,0.3105,
8.274775,0.5006,1.9283,-0.4740,1.4668,9.8834,-2.8867,-1.0392,-0.9662,-0.2509,
8.294579,0.5836,0.9748,-0.1764,1.4668,9.8834,-2.8867,-1.0392,-0.9662,-0.2509,
8.296794,0.5836,0.9748,-0.1764,2.2972,0.5029,-0.1301,-1.0392,-0.9662,-0.2509,
8.298420,0.5836,0.9748,-0.1764,2.2972,0.5029,-0.1301,-2.1641,-1.6821,-0.0463,
8.314757,0.5836,0.9748,-0.1764,2.2972,0.5029,-0.1301,-1.9345,0.3281,-0.2929,
8.335333,0.3628,0.6921,0.0090,2.2972,0.5029,-0.1301,-1.9345,0.3281,-0.2929,
8.337533,0.3628,0.6921,0.0090,0.2282,-2.3926,1.0443,-1.9345,0.3281,-0.2929,
8.339196,0.3628,0.6921,0.0090,0.2282,-2.3926,1.0443,-2.1737,-0.1971,-0.7681,
8.355628,0.3628,0.6921,0.0090,0.2282,-2.3926,1.0443,-2.2216,-0.4735,-0.8895,
8.375397,0.1859,0.9088,0.1270,0.2282,-2.3926,1.0443,-2.2216,-0.4735,-0.8895,
8.377667,0.1859,0.9088,0.1270,-1.1983,-0.4215,1.4425,-2.2216,-0.4735,-0.8895,
8.379455,0.1859,0.9088,0.1270,-1.1983,-0.4215,1.4425,-2.1082,-0.5449,-0.5987,
8.397093,0.1859,0.9088,0.1270,-1.1983,-0.4215,1.4425,-2.0624,-0.6099,-0.3627,
8.415030,0.4202,1.0666,0.1820,-1.1983,-0.4215,1.4425,-2.0624,-0.6099,-0.3627,
8.417307,0.4202,1.0666,0.1820,1.2645,1.0848,1.2707,-2.0624,-0.6099,-0.3627,
8.418847,0.4202,1.0666,0.1820,1.2645,1.0848,1.2707,-2.0725,-0.3979,-0.5081,
8.434399,0.4202,1.0666,0.1820,1.2645,1.0848,1.2707,-2.0741,-0.0735,-0.9033,
8.454385,0.2665,1.0586,0.5028,1.2645,1.0848,1.2707,-2.0741,-0.0735,-0.9033,
8.457070,0.2665,1.0586,0.5028,0.0152,1.0023,3.6637,-2.0741,-0.0735,-0.9033,
8.458623,0.2665,1.0586,0.5028,0.0152,1.0023,3.6637,-1.7167,0.1220,-1.3012,
8.475020,0.2665,1.0586,0.5028,0.0152,1.0023,3.6637,-0.9555,0.1236,-1.4482,
8.495100,0.0195,0.8148,0.4246,0.0152,1.0023,3.6637,-0.9555,0.1236,-1.4482,
8.497072,0.0195,0.8148,0.4246,-1.8755,-1.4257,2.3327,-0.9555,0.1236,-1.4482,
8.498891,0.0195,0.8148,0.4246,-1.8755,-1.4257,2.3327,-0.1976,0.0506,-1.4354,
8.514765,0.0195,0.8148,0.4246,-1.8755,-1.4257,2.3327,0.1912,-0.0602,-1.5159,
8.534916,-0.1612,0.7798,0.1295,-1.8755,-1.4257,2.3327,0.1912,-0.0602,-1.5159,
8.537179,-0.1612,0.7798,0.1295,-3.0899,-1.8732,-0.5605,0.1912,-0.0602,-1.5159,
8.539130,-0.1612,0.7798,0.1295,-3.0899,-1.8732,-0.5605,0.2040,-0.0889,-1.3753,
8.554588,-0.1612,0.7798,0.1295,-3.0899,-1.8732,-0.5605,-0.0458,0.0506,-1.1931,
8.574718,-0.2306,0.7752,0.0166,-3.0899,-1.8732,-0.5605,-0.0458,0.0506,-1.1931,
8.577134,-0.2306,0.7752,0.0166,-3.2810,-1.9894,-1.6352,-0.0458,0.0506,-1.1931,
8.579034,-0.2306,0.7752,0.0166,-3.2810,-1.9894,-1.6352,-0.3989,0.2535,-0.9960,
8.596065,-0.2306,0.7752,0.0166,-3.2810,-1.9894,-1.6352,-0.6530,0.5097,-0.7015,
8.614414,-0.2389,0.7361,0.0266,-3.2810,-1.9894,-1.6352,-0.6530,0.5097,-0.7015,
8.617724,-0.2389,0.7361,0.0266,-3.0086,-2.3612,-1.7505,-0.6530,0.5097,-0.7015,
8.620094,-0.2389,0.7361,0.0266,-3.0086,-2.3612,-1.7505,-0.6786,0.6653,-0.3419,
8.634372,-0.2389,0.7361,0.0266,-3.0086,-2.3612,-1.7505,-0.4527,0.7462,-0.0660,
8.654227,-0.0545,0.7573,0.0242,-3.0086,-2.3612,-1.7505,-0.4527,0.7462,-0.0660,
8.657289,-0.0545,0.7573,0.0242,-1.0627,-2.1098,-2.0068,-0.4527,0.7462,-0.0660,
8.659317,-0.0545,0.7573,0.0242,-1.0627,-2.1098,-2.0068,-0.1172,0.7377,0.0399,
8.674543,-0.0545,0.7573,0.0242,-1.0627,-2.1098,-2.0068,0.1246,0.7382,0.0927,
8.694501,-0.1251,0.9320,-0.0337,-1.0627,-2.1098,-2.0068,0.1246,0.7382,0.0927,
8.696991,-0.1251,0.9320,-0.0337,-1.7132,-0.3970,-2.5877,0.1246,0.7382,0.0927,
8.698827,-0.1251,0.9320,-0.0337,-1.7132,-0.3970,-2.5877,0.1108,0.6205,0.1949,
8.714329,-0.1251,0.9320,-0.0337,-1.7132,-0.3970,-2.5877,-0.0229,0.4884,0.2791,
8.734913,-0.1842,1.1302,0.0923,-1.7132,-0.3970,-2.5877,-0.0229,0.4884,0.2791,
8.737495,-0.1842,1.1302,0.0923,-2.2773,1.5316,-1.2997,-0.0229,0.4884,0.2791,
8.739280,-0.1842,1.1302,0.0923,-2.2773,1.5316,-1.2997,-0.0783,0.3654,0.3132,
8.754930,-0.1842,1.1302,0.0923,-2.2773,1.5316,-1.2997,0.0618,0.2722,0.3388,
8.774014,-0.2055,1.2662,0.2204,-2.2773,1.5316,-1.2997,0.0618,0.2722,0.3388,
8.777368,-0.2055,1.2662,0.2204,-2.5815,2.8727,-0.0548,0.0618,0.2722,0.3388,
8.779444,-0.2055,1.2662,0.2204,-2.5815,2.8727,-0.0548,0.3862,0.1342,0.3553,
8.794980,-0.2055,1.2662,0.2204,-2.5815,2.8727,-0.0548,0.7510,-0.1561,0.3313,
8.813848,-0.0716,1.4089,0.2328,-2.5815,2.8727,-0.0548,0.7510,-0.1561,0.3313,
8.816070,-0.0716,1.4089,0.2328,-1.4011,4.2317,0.2847,0.7510,-0.1561,0.3313,
8.817774,-0.0716,1.4089,0.2328,-1.4011,4.2317,0.2847,0.9976,-0.6290,0.3063,
8.834354,-0.0716,1.4089,0.2328,-1.4011,4.2317,0.2847,1.0589,-1.2261,0.2924,
8.853782,-0.0393,1.5066,0.2047,-1.4011,4.2317,0.2847,1.0589,-1.2261,0.2924,
8.856530,-0.0393,1.5066,0.2047,-1.2650,5.1253,0.4337,1.0589,-1.2261,0.2924,
8.858067,-0.0393,1.5066,0.2047,-1.2650,5.1253,0.4337,0.7052,-1.5627,0.2349,
8.874061,-0.0393,1.5066,0.2047,-1.2650,5.1253,0.4337,0.1752,-1.4589,0.4767,
8.894170,0.2873,1.0808,0.3987,-1.2650,5.1253,0.4337,0.1752,-1.4589,0.4767,
8.896208,0.2873,1.0808,0.3987,1.7124,0.9407,2.5634,0.1752,-1.4589,0.4767,
8.897705,0.2873,1.0808,0.3987,1.7124,0.9407,2.5634,-0.1055,-1.0972,0.6701,
8.913614,0.2873,1.0808,0.3987,1.7124,0.9407,2.5634,-0.0415,-0.6791,0.6370,
8.933610,0.4449,0.8204,0.4207,1.7124,0.9407,2.5634,-0.0415,-0.6791,0.6370,
8.936131,0.4449,0.8204,0.4207,2.9577,-1.5748,2.7945,-0.0415,-0.6791,0.6370,
8.938230,0.4449,0.8204,0.4207,2.9577,-1.5748,2.7945,0.1662,-0.2589,0.5161,
8.954268,0.4449,0.8204,0.4207,2.9577,-1.5748,2.7945,0.3904,0.1630,0.4128,
8.973833,0.4065,0.9467,0.1805,2.9577,-1.5748,2.7945,0.3904,0.1630,0.4128,
8.976656,0.4065,0.9467,0.1805,2.3952,-0.3217,0.5445,0.3904,0.1630,0.4128,
8.978422,0.4065,0.9467,0.1805,2.3952,-0.3217,0.5445,0.5784,0.6184,0.3467,
8.993842,0.4065,0.9467,0.1805,2.3952,-0.3217,0.5445,0.7526,1.0914,0.3462,
9.014256,0.1906,1.1221,0.0432,2.3952,-0.3217,0.5445,0.7526,1.0914,0.3462,
9.016670,0.1906,1.1221,0.0432,0.1840,1.3901,-0.6021,0.7526,1.0914,0.3462,
9.018239,0.1906,1.1221,0.0432,0.1840,1.3901,-0.6021,1.1377,1.9835,0.4218,
9.035268,0.1906,1.1221,0.0432,0.1840,1.3901,-0.6021,1.6448,2.6536,0.3334,
9.054371,0.0078,0.9213,0.0078,0.1840,1.3901,-0.6021,1.6448,2.6536,0.3334,
9.058116,0.0078,0.9213,0.0078,-1.6635,-0.5997,-0.5859,1.6448,2.6536,0.3334,
9.060039,0.0078,0.9213,0.0078,-1.6635,-0.5997,-0.5859,2.0517,2.2845,0.2131,
9.074150,0.0078,0.9213,0.0078,-1.6635,-0.5997,-0.5859,1.7529,0.7505,0.5689,
9.093728,-0.0469,0.7884,-0.0393,-1.6635,-0.5997,-0.5859,1.7529,0.7505,0.5689,
9.096221,-0.0469,0.7884,-0.0393,-2.3191,-1.9026,-0.4251,1.7529,0.7505,0.5689,
9.098112,-0.0469,0.7884,-0.0393,-2.3191,-1.9026,-0.4251,1.4855,-0.2232,1.1185,
9.113397,-0.0469,0.7884,-0.0393,-2.3191,-1.9026,-0.4251,1.4749,-0.1518,1.5281,
9.134025,-0.0396,0.6440,-0.0767,-2.3191,-1.9026,-0.4251,1.4749,-0.1518,1.5281,
9.136462,-0.0396,0.6440,-0.0767,-2.7514,-3.1910,-0.2099,1.4749,-0.1518,1.5281,
9.138418,-0.0396,0.6440,-0.0767,-2.7514,-3.1910,-0.2099,1.3848,0.1246,1.9404,
9.154141,-0.0396,0.6440,-0.0767,-2.7514,-3.1910,-0.2099,1.1127,0.0932,2.1268,
9.174217,0.9780,0.6970,-0.2402,-2.7514,-3.1910,-0.2099,1.1127,0.0932,2.1268,
9.178170,0.9780,0.6970,-0.2402,6.4561,-2.4101,-1.3556,1.1127,0.0932,2.1268,
9.180302,0.9780,0.6970,-0.2402,6.4561,-2.4101,-1.3556,0.7542,-0.3009,1.1441,
9.196339,0.9780,0.6970,-0.2402,6.4561,-2.4101,-1.3556,0.5103,-0.4538,0.3121,
9.213807,0.2966,0.6408,-0.2294,6.4561,-2.4101,-1.3556,0.5103,-0.4538,0.3121,
9.216097,0.2966,0.6408,-0.2294,-0.4710,-2.8373,-0.9687,0.5103,-0.4538,0.3121,
9.217934,0.2966,0.6408,-0.2294,-0.4710,-2.8373,-0.9687,0.2844,-0.0660,0.1166,
9.233569,0.2966,0.6408,-0.2294,-0.4710,-2.8373,-0.9687,0.0186,0.1225,0.0959,
9.253459,0.2629,0.6088,-0.2587,-0.4710,-2.8373,-0.9687,0.0186,0.1225,0.0959,
9.255881,0.2629,0.6088,-0.2587,-0.8415,-3.1287,-1.2048,0.0186,0.1225,0.0959,
9.257860,0.2629,0.6088,-0.2587,-0.8415,-3.1287,-1.2048,-0.1832,0.0847,0.1731,
9.273742,0.2629,0.6088,-0.2587,-0.8415,-3.1287,-1.2048,-0.2972,0.0170,0.2455,
9.293250,0.3931,0.7635,-0.3137,-0.8415,-3.1287,-1.2048,-0.2972,0.0170,0.2455,
9.295924,0.3931,0.7635,-0.3137,0.3560,-1.5965,-1.8377,-0.2972,0.0170,0.2455,
9.297749,0.3931,0.7635,-0.3137,0.3560,-1.5965,-1.8377,-0.4858,-0.1150,0.1033,
9.314099,0.3931,0.7635,-0.3137,0.3560,-1.5965,-1.8377,-0.3963,0.0341,-0.0746,
9.332747,0.2272,1.1744,-0.3220,0.3560,-1.5965,-1.8377,-0.3963,0.0341,-0.0746,
9.333811,0.2272,1.1744,-0.3220,-1.2540,2.4128,-2.0081,-0.3963,0.0341,-0.0746,
9.334390,0.2272,1.1744,-0.3220,-1.2540,2.4128,-2.0081,0.0778,-0.0469,-0.3941,
9.353135,0.2272,1.1744,-0.3220,-1.2540,2.4128,-2.0081,0.1944,-0.3973,-0.7217,
9.372431,0.1940,1.0102,-0.3762,-1.2540,2.4128,-2.0081,0.1944,-0.3973,-0.7217,
9.373147,0.1940,1.0102,-0.3762,-1.3453,0.7344,-2.4126,0.1944,-0.3973,-0.7217,
9.373573,0.1940,1.0102,-0.3762,-1.3453,0.7344,-2.4126,-0.2423,-0.7409,-0.7073,
9.392704,0.1940,1.0102,-0.3762,-1.3453,0.7344,-2.4126,-0.1609,-0.4985,-0.1843,
9.413258,0.7100,1.6395,-0.4402,-1.3453,0.7344,-2.4126,-0.1609,-0.4985,-0.1843,
9.415003,0.7100,1.6395,-0.4402,3.9068,6.8355,-3.0364,-0.1609,-0.4985,-0.1843,
9.416180,0.7100,1.6395,-0.4402,3.9068,6.8355,-3.0364,-0.4133,-0.2684,-0.0282,
9.433155,0.7100,1.6395,-0.4402,3.9068,6.8355,-3.0364,-1.7944,-2.0096,-0.1470,
9.453035,0.6850,0.9870,-0.0799,3.9068,6.8355,-3.0364,-1.7944,-2.0096,-0.1470,
9.455104,0.6850,0.9870,-0.0799,3.7463,0.3799,0.2236,-1.7944,-2.0096,-0.1470,
9.456676,0.6850,0.9870,-0.0799,3.7463,0.3799,0.2236,-2.1667,-0.7744,0.0389,
9.473246,0.6850,0.9870,-0.0799,3.7463,0.3799,0.2236,-2.0895,0.2104,-0.4368,
9.492964,0.3230,0.6787,0.1036,3.7463,0.3799,0.2236,-2.0895,0.2104,-0.4368,
9.495834,0.3230,0.6787,0.1036,0.2532,-2.7096,1.2764,-2.0895,0.2104,-0.4368,
9.497807,0.3230,0.6787,0.1036,0.2532,-2.7096,1.2764,-2.1177,-0.2162,-0.6003,
9.513584,0.3230,0.6787,0.1036,0.2532,-2.7096,1.2764,-2.1034,-0.6855,-0.5816,
9.533395,0.3122,0.9269,0.1915,0.2532,-2.7096,1.2764,-2.1034,-0.6855,-0.5816,
9.535599,0.3122,0.9269,0.1915,0.3264,-0.3225,1.4043,-2.1034,-0.6855,-0.5816,
9.537304,0.3122,0.9269,0.1915,0.3264,-0.3225,1.4043,-2.0277,-0.8826,-0.4043,
9.553046,0.3122,0.9269,0.1915,0.3264,-0.3225,1.4043,-1.9489,-0.6157,-0.5380,
9.573219,0.4468,1.1597,0.2536,0.3264,-0.3225,1.4043,-1.9489,-0.6157,-0.5380,
9.576531,0.4468,1.1597,0.2536,1.7992,1.9729,1.3462,-1.9489,-0.6157,-0.5380,
9.578306,0.4468,1.1597,0.2536,1.7992,1.9729,1.3462,-1.9132,-0.3473,-0.8980,
9.595774,0.4468,1.1597,0.2536,1.7992,1.9729,1.3462,-1.6192,-0.3302,-1.1814,
9.613242,0.1937,0.9806,0.5270,1.7992,1.9729,1.3462,-1.6192,-0.3302,-1.1814,
9.615823,0.1937,0.9806,0.5270,-0.3113,0.2212,3.3951,-1.6192,-0.3302,-1.1814,
9.618019,0.1937,0.9806,0.5270,-0.3113,0.2212,3.3951,-0.9571,-0.3537,-1.3300,
9.631938,0.1937,0.9806,0.5270,-0.3113,0.2212,3.3951,-0.1688,-0.3329,-1.3609,
9.652259,0.0616,0.7451,0.2648,-0.3113,0.2212,3.3951,-0.1688,-0.3329,-1.3609,
9.653950,0.0616,0.7451,0.2648,-1.1368,-2.1441,0.6184,-0.1688,-0.3329,-1.3609,
9.655297,0.0616,0.7451,0.2648,-1.1368,-2.1441,0.6184,0.2924,-0.3728,-1.4983,
9.672254,0.0616,0.7451,0.2648,-1.1368,-2.1441,0.6184,0.3057,-0.4735,-1.6464,
9.691775,-0.1908,0.7332,0.0498,-1.1368,-2.1441,0.6184,0.3057,-0.4735,-1.6464,
9.692561,-0.1908,0.7332,0.0498,-3.0455,-2.3757,-1.3505,0.3057,-0.4735,-1.6464,
9.693102,-0.1908,0.7332,0.0498,-3.0455,-2.3757,-1.3505,0.0660,-0.5268,-1.5441,
9.712748,-0.1908,0.7332,0.0498,-3.0455,-2.3757,-1.3505,-0.2796,-0.4085,-1.3438,
9.732616,-0.3584,0.7679,-0.0437,-3.0455,-2.3757,-1.3505,-0.2796,-0.4085,-1.3438,
9.735028,-0.3584,0.7679,-0.0437,-4.1692,-2.0807,-2.2913,-0.2796,-0.4085,-1.3438,
9.737053,-0.3584,0.7679,-0.0437,-4.1692,-2.0807,-2.2913,-0.6743,-0.0810,-0.9710,
9.752531,-0.3584,0.7679,-0.0437,-4.1692,-2.0807,-2.2913,-0.9571,0.2514,-0.4645,
9.772516,-0.2042,0.7351,0.1309,-4.1692,-2.0807,-2.2913,-0.9571,0.2514,-0.4645,
9.775057,-0.2042,0.7351,0.1309,-2.3763,-2.3507,-0.8927,-0.9571,0.2514,-0.4645,
9.776630,-0.2042,0.7351,0.1309,-2.3763,-2.3507,-0.8927,-0.8234,0.4197,-0.0629,
9.792598,-0.2042,0.7351,0.1309,-2.3763,-2.3507,-0.8927,-0.3643,0.3531,-0.0069,
9.812613,-0.0804,0.8519,0.0880,-2.3763,-2.3507,-0.8927,-0.3643,0.3531,-0.0069,
9.815725,-0.0804,0.8519,0.0880,-1.1135,-1.1524,-1.5456,-0.3643,0.3531,-0.0069,
9.818023,-0.0804,0.8519,0.0880,-1.1135,-1.1524,-1.5456,0.0644,0.2226,0.0453,
9.833104,-0.0804,0.8519,0.0880,-1.1135,-1.1524,-1.5456,0.2466,0.1981,0.1747,
9.852738,-0.1473,1.0449,-0.0110,-1.1135,-1.1524,-1.5456,0.2466,0.1981,0.1747,
9.855266,-0.1473,1.0449,-0.0110,-1.7778,0.7220,-2.4460,0.2466,0.1981,0.1747,
9.857163,-0.1473,1.0449,-0.0110,-1.7778,0.7220,-2.4460,0.1752,0.3478,0.2764,
9.873020,-0.1473,1.0449,-0.0110,-1.7778,0.7220,-2.4460,0.0815,0.4996,0.3025,
9.892397,-0.1774,1.2125,0.1273,-1.7778,0.7220,-2.4460,0.0815,0.4996,0.3025,
9.894440,-0.1774,1.2125,0.1273,-2.1089,2.3489,-1.0210,0.0815,0.4996,0.3025,
9.896290,-0.1774,1.2125,0.1273,-2.1089,2.3489,-1.0210,0.2072,0.4474,0.3089,
9.913271,-0.1774,1.2125,0.1273,-2.1089,2.3489,-1.0210,0.5289,0.2306,0.3302,
9.931878,-0.0865,1.2909,0.1395,-2.1089,2.3489,-1.0210,0.5289,0.2306,0.3302,
9.934155,-0.0865,1.2909,0.1395,-1.3099,3.0904,-0.7666,0.5289,0.2306,0.3302,
9.935922,-0.0865,1.2909,0.1395,-1.3099,3.0904,-0.7666,0.8336,-0.1651,0.3100,
9.952291,-0.0865,1.2909,0.1395,-1.3099,3.0904,-0.7666,0.9060,-0.6019,0.3036,
9.971750,-0.0103,1.4895,0.1744,-1.3099,3.0904,-0.7666,0.9060,-0.6019,0.3036,
9.974405,-0.0103,1.4895,0.1744,-0.7098,4.9752,-0.0825,0.9060,-0.6019,0.3036,
9.975853,-0.0103,1.4895,0.1744,-0.7098,4.9752,-0.0825,0.8911,-1.0733,0.3606,
9.991811,-0.0103,1.4895,0.1744,-0.7098,4.9752,-0.0825,0.7899,-1.6251,0.3308,
10.011479,0.1505,1.3530,0.2714,-0.7098,4.9752,-0.0825,0.7899,-1.6251,0.3308,
10.014432,0.1505,1.3530,0.2714,0.6467,3.5925,1.2311,0.7899,-1.6251,0.3308,
10.015616,0.1505,1.3530,0.2714,0.6467,3.5925,1.2311,0.6067,-2.1076,0.3063,
10.032469,0.1505,1.3530,0.2714,0.6467,3.5925,1.2311,0.3979,-2.0916,0.3670,
10.052068,0.3506,0.9269,0.3274,0.6467,3.5925,1.2311,0.3979,-2.0916,0.3670,
10.054950,0.3506,0.9269,0.3274,2.3698,-0.5962,2.0528,0.3979,-2.0916,0.3670,
10.056721,0.3506,0.9269,0.3274,2.3698,-0.5962,2.0528,0.2141,-1.4924,0.4208,
10.072186,0.3506,0.9269,0.3274,2.3698,-0.5962,2.0528,0.1417,-0.7020,0.4325,
10.092616,0.4569,0.8282,0.2963,2.3698,-0.5962,2.0528,0.1417,-0.7020,0.4325,
10.094846,0.4569,0.8282,0.2963,3.1909,-1.5494,1.8602,0.1417,-0.7020,0.4325,
10.096182,0.4569,0.8282,0.2963,3.1909,-1.5494,1.8602,0.1614,-0.1001,0.4160,
10.111859,0.4569,0.8282,0.2963,3.1909,-1.5494,1.8602,0.1886,0.1864,0.3180,
10.132384,0.4024,0.9235,0.1500,3.1909,-1.5494,1.8602,0.1886,0.1864,0.3180,
10.134566,0.4024,0.9235,0.1500,2.4842,-0.5958,0.4708,0.1886,0.1864,0.3180,
10.136264,0.4024,0.9235,0.1500,2.4842,-0.5958,0.4708,0.1907,0.2077,0.2019,
10.151726,0.4024,0.9235,0.1500,2.4842,-0.5958,0.4708,0.2125,0.1427,0.2157,
10.171836,0.1823,0.9191,0.0723,2.4842,-0.5958,0.4708,0.2125,0.1427,0.2157,
10.174752,0.1823,0.9191,0.0723,0.2080,-0.6245,-0.2476,0.2125,0.1427,0.2157,
10.176580,0.1823,0.9191,0.0723,0.2080,-0.6245,-0.2476,0.4202,0.3467,0.3127,
10.191544,0.1823,0.9191,0.0723,0.2080,-0.6245,-0.2476,1.0067,1.1526,0.3073,
10.211893,-0.1713,1.0696,0.0723,0.2080,-0.6245,-0.2476,1.0067,1.1526,0.3073,
10.214250,-0.1713,1.0696,0.0723,-3.3195,0.8423,-0.0378,1.0067,1.1526,0.3073,
10.215715,-0.1713,1.0696,0.0723,-3.3195,0.8423,-0.0378,1.9031,2.2078,0.1225,
10.231202,-0.1713,1.0696,0.0723,-3.3195,0.8423,-0.0378,2.2408,1.7518,0.3659,
10.250853,-0.1195,0.7253,-0.0428,-3.3195,0.8423,-0.0378,2.2408,1.7518,0.3659,
10.251626,-0.1195,0.7253,-0.0428,-2.8704,-2.5495,-0.4972,2.2408,1.7518,0.3659,
10.252167,-0.1195,0.7253,-0.0428,-2.8704,-2.5495,-0.4972,2.1476,0.5699,0.9268,
10.270841,-0.1195,0.7253,-0.0428,-2.8704,-2.5495,-0.4972,1.9137,-0.3915,1.5617,
10.291667,-0.2152,0.8182,-0.0906,-2.8704,-2.5495,-0.4972,1.9137,-0.3915,1.5617,
10.292475,-0.2152,0.8182,-0.0906,-4.2831,-1.5191,-0.1920,1.9137,-0.3915,1.5617,
10.292995,-0.2152,0.8182,-0.0906,-4.2831,-1.5191,-0.1920,1.8685,-0.4447,2.0645,
10.310968,-0.2152,0.8182,-0.0906,-4.2831,-1.5191,-0.1920,1.6485,-0.2961,2.6030,
10.332143,0.4165,0.6753,-0.3384,-4.2831,-1.5191,-0.1920,1.6485,-0.2961,2.6030,
10.335551,0.4165,0.6753,-0.3384,1.0487,-2.6034,-1.9220,1.6485,-0.2961,2.6030,
10.338149,0.4165,0.6753,-0.3384,1.0487,-2.6034,-1.9220,1.1329,-0.2450,2.9162,
10.351972,0.4165,0.6753,-0.3384,1.0487,-2.6034,-1.9220,0.5172,-0.2509,1.6852,
10.370964,0.6240,0.6095,-0.3775,1.0487,-2.6034,-1.9220,0.5172,-0.2509,1.6852,
10.372127,0.6240,0.6095,-0.3775,2.2664,-2.8796,-1.9722,0.5172,-0.2509,1.6852,
10.372771,0.6240,0.6095,-0.3775,2.2664,-2.8796,-1.9722,0.1678,0.0474,0.9310,
10.391129,0.6240,0.6095,-0.3775,2.2664,-2.8796,-1.9722,-0.0298,0.3904,0.5976,
10.411785,0.3379,0.5964,-0.3266,2.2664,-2.8796,-1.9722,-0.0298,0.3904,0.5976,
10.413401,0.3379,0.5964,-0.3266,-0.8205,-2.8825,-1.4854,-0.0298,0.3904,0.5976,
10.414587,0.3379,0.5964,-0.3266,-0.8205,-2.8825,-1.4854,-0.2386,0.3515,0.4463,
10.431454,0.3379,0.5964,-0.3266,-0.8205,-2.8825,-1.4854,-0.4666,0.1848,0.3201,
10.451808,0.3623,0.6142,-0.3137,-0.8205,-2.8825,-1.4854,-0.4666,0.1848,0.3201,
10.454242,0.3623,0.6142,-0.3137,-0.7320,-2.6662,-1.5260,-0.4666,0.1848,0.3201,
10.456253,0.3623,0.6142,-0.3137,-0.7320,-2.6662,-1.5260,-0.5704,0.2354,0.2402,
10.471590,0.3623,0.6142,-0.3137,-0.7320,-2.6662,-1.5260,-0.7212,0.0889,0.1103,
10.491739,0.4205,0.6174,-0.3025,-0.7320,-2.6662,-1.5260,-0.7212,0.0889,0.1103,
10.494199,0.4205,0.6174,-0.3025,-0.2324,-2.6414,-1.6677,-0.7212,0.0889,0.1103,
10.496220,0.4205,0.6174,-0.3025,-0.2324,-2.6414,-1.6677,-0.6977,-0.0368,-0.0959,
10.510946,0.4205,0.6174,-0.3025,-0.2324,-2.6414,-1.6677,-0.5055,-0.1864,-0.2668,
10.531491,0.3389,0.9846,-0.4500,-0.2324,-2.6414,-1.6677,-0.5055,-0.1864,-0.2668,
10.533948,0.3389,0.9846,-0.4500,-0.9599,0.8994,-3.2709,-0.5055,-0.1864,-0.2668,
10.535659,0.3389,0.9846,-0.4500,-0.9599,0.8994,-3.2709,-0.2631,-0.1678,-0.4304,
10.551280,0.3389,0.9846,-0.4500,-0.9599,0.8994,-3.2709,-0.1321,-0.2647,-0.5151,
10.571557,0.4483,0.9946,-0.5297,-0.9599,0.8994,-3.2709,-0.1321,-0.2647,-0.5151,
10.573992,0.4483,0.9946,-0.5297,0.2912,0.9139,-4.0404,-0.1321,-0.2647,-0.5151,
10.575718,0.4483,0.9946,-0.5297,0.2912,0.9139,-4.0404,-0.3521,-0.3904,-0.5310,
10.590978,0.4483,0.9946,-0.5297,0.2912,0.9139,-4.0404,-0.5454,-0.1933,-0.5779,
10.610819,0.3760,1.5061,-0.4231,0.2912,0.9139,-4.0404,-0.5454,-0.1933,-0.5779,
10.613773,0.3760,1.5061,-0.4231,-0.2076,5.8191,-3.1091,-0.5454,-0.1933,-0.5779,
10.615754,0.3760,1.5061,-0.4231,-0.2076,5.8191,-3.1091,-0.4171,-0.1081,-0.6946,
10.632540,0.3760,1.5061,-0.4231,-0.2076,5.8191,-3.1091,-0.4197,-0.8586,-0.5108,
10.651237,0.7456,1.1331,-0.4209,-0.2076,5.8191,-3.1091,-0.4197,-0.8586,-0.5108,
10.653787,0.7456,1.1331,-0.4209,3.6499,2.0558,-3.1660,-0.4197,-0.8586,-0.5108,
10.655319,0.7456,1.1331,-0.4209,3.6499,2.0558,-3.1660,-0.9934,-1.2485,-0.5715,
10.670551,0.7456,1.1331,-0.4209,3.6499,2.0558,-3.1660,-1.4658,-0.6748,-0.4011,
10.690601,0.7549,0.5656,-0.0823,3.6499,2.0558,-3.1660,-1.4658,-0.6748,-0.4011,
10.692878,0.7549,0.5656,-0.0823,3.9506,-3.6152,-0.1586,-1.4658,-0.6748,-0.4011,
10.694118,0.7549,0.5656,-0.0823,3.9506,-3.6152,-0.1586,-1.5105,-1.0040,-0.5188,
10.712350,0.7549,0.5656,-0.0823,3.9506,-3.6152,-0.1586,-1.3673,-1.2906,-0.7867,
10.730755,0.4561,0.7605,-0.0476,3.9506,-3.6152,-0.1586,-1.3673,-1.2906,-0.7867,
10.734511,0.4561,0.7605,-0.0476,1.2211,-1.7945,-0.1563,-1.3673,-1.2906,-0.7867,
10.736710,0.4561,0.7605,-0.0476,1.2211,-1.7945,-0.1563,-1.4035,-1.8509,-0.8778,
10.751125,0.4561,0.7605,-0.0476,1.2211,-1.7945,-0.1563,-1.5952,-2.3095,-0.7489,
10.770584,0.5624,0.9640,0.0127,1.2211,-1.7945,-0.1563,-1.5952,-2.3095,-0.7489,
10.773967,0.5624,0.9640,0.0127,2.5397,0.1020,0.1476,-1.5952,-2.3095,-0.7489,
10.775723,0.5624,0.9640,0.0127,2.5397,0.1020,0.1476,-1.9297,-2.8773,-0.7425,
10.791501,0.5624,0.9640,0.0127,2.5397,0.1020,0.1476,-2.2205,-3.0222,-0.7563,
10.811164,0.6743,1.0564,0.2463,2.5397,0.1020,0.1476,-2.2205,-3.0222,-0.7563,
10.813393,0.6743,1.0564,0.2463,3.8951,0.9380,1.9930,-2.2205,-3.0222,-0.7563,
10.815045,0.6743,1.0564,0.2463,3.8951,0.9380,1.9930,-2.4970,-2.6349,-1.2725,
10.831429,0.6743,1.0564,0.2463,3.8951,0.9380,1.9930,-2.5385,-1.9010,-1.7284,
10.850445,0.2646,1.1221,0.9403,3.8951,0.9380,1.9930,-2.5385,-1.9010,-1.7284,
10.852946,0.2646,1.1221,0.9403,0.3796,1.5117,8.0713,-2.5385,-1.9010,-1.7284,
10.854626,0.2646,1.1221,0.9403,0.3796,1.5117,8.0713,-1.8168,-1.0211,-1.6512,
10.870948,0.2646,1.1221,0.9403,0.3796,1.5117,8.0713,-0.1854,-0.0048,-1.3598,
10.891172,0.0809,1.0254,0.7635,0.3796,1.5117,8.0713,-0.1854,-0.0048,-1.3598,
10.893379,0.0809,1.0254,0.7635,-0.8755,0.4989,6.0006,-0.1854,-0.0048,-1.3598,
10.895212,0.0809,1.0254,0.7635,-0.8755,0.4989,6.0006,1.2788,0.0666,-1.0274,
10.914291,0.0809,1.0254,0.7635,-0.8755,0.4989,6.0006,1.7726,-0.4410,-0.8932,
10.930875,0.1041,0.7600,0.1026,-0.8755,0.4989,6.0006,1.7726,-0.4410,-0.8932,
10.933875,0.1041,0.7600,0.1026,-0.3122,-2.2190,0.0371,1.7726,-0.4410,-0.8932,
10.935602,0.1041,0.7600,0.1026,-0.3122,-2.2190,0.0371,1.4876,-0.8320,-1.0125,
10.950575,0.1041,0.7600,0.1026,-0.3122,-2.2190,0.0371,0.8661,-1.1984,-1.2666,
10.970091,0.0770,0.7894,0.0210,-0.3122,-2.2190,0.0371,0.8661,-1.1984,-1.2666,
10.971787,0.0770,0.7894,0.0210,-0.1630,-2.0168,-0.2615,0.8661,-1.1984,-1.2666,
10.973046,0.0770,0.7894,0.0210,-0.1630,-2.0168,-0.2615,0.2621,-1.6139,-1.4418,
10.989681,0.0770,0.7894,0.0210,-0.1630,-2.0168,-0.2615,-0.1001,-2.1098,-1.4871,
11.009988,-0.1190,0.8143,0.1791,-0.1630,-2.0168,-0.2615,-0.1001,-2.1098,-1.4871,
11.012823,-0.1190,0.8143,0.1791,-1.5416,-1.8119,1.3660,-0.1001,-2.1098,-1.4871,
11.014578,-0.1190,0.8143,0.1791,-1.5416,-1.8119,1.3660,-0.1364,-2.4964,-1.2618,
11.030149,-0.1190,0.8143,0.1791,-1.5416,-1.8119,1.3660,0.0868,-2.5321,-0.8384,
11.050457,-0.0366,0.7385,0.1253,-1.5416,-1.8119,1.3660,0.0868,-2.5321,-0.8384,
11.053756,-0.0366,0.7385,0.1253,-0.3636,-2.5615,0.8466,0.0868,-2.5321,-0.8384,
11.055730,-0.0366,0.7385,0.1253,-0.3636,-2.5615,0.8466,0.3670,-2.1518,-0.5646,
11.070555,-0.0366,0.7385,0.1253,-0.3636,-2.5615,0.8466,0.5518,-1.6022,-0.4447,
11.090785,0.0410,0.7026,0.0098,-0.3636,-2.5615,0.8466,0.5518,-1.6022,-0.4447,
11.093518,0.0410,0.7026,0.0098,0.5721,-2.9173,-0.1121,0.5518,-1.6022,-0.4447,
11.095105,0.0410,0.7026,0.0098,0.5721,-2.9173,-0.1121,0.5790,-1.2623,-0.3782,
11.111316,0.0410,0.7026,0.0098,0.5721,-2.9173,-0.1121,0.4735,-1.2314,-0.3057,
11.130199,0.0142,0.7715,-0.0252,0.5721,-2.9173,-0.1121,0.4735,-1.2314,-0.3057,
11.132479,0.0142,0.7715,-0.0252,0.4374,-2.2412,-0.2602,0.4735,-1.2314,-0.3057,
11.134239,0.0142,0.7715,-0.0252,0.4374,-2.2412,-0.2602,0.2913,-1.4035,-0.2429,
11.150601,0.0142,0.7715,-0.0252,0.4374,-2.2412,-0.2602,0.1454,-1.5830,-0.1816,
11.170334,-0.0369,0.8690,0.0298,0.4374,-2.2412,-0.2602,0.1454,-1.5830,-0.1816,
11.173254,-0.0369,0.8690,0.0298,0.0217,-1.2829,0.3434,0.1454,-1.5830,-0.1816,
11.175073,-0.0369,0.8690,0.0298,0.0217,-1.2829,0.3434,0.0889,-1.6629,-0.0858,
11.190620,-0.0369,0.8690,0.0298,0.0217,-1.2829,0.3434,0.0842,-1.5750,0.0660,
11.209833,-0.0020,0.9103,0.0552,0.0217,-1.2829,0.3434,0.0842,-1.5750,0.0660,
11.212111,-0.0020,0.9103,0.0552,0.3715,-0.8779,0.6008,0.0842,-1.5750,0.0660,
11.213842,-0.0020,0.9103,0.0552,0.3715,-0.8779,0.6008,0.0650,-1.5271,0.1614,
11.231327,-0.0020,0.9103,0.0552,0.3715,-0.8779,0.6008,0.0687,-1.3795,0.2019,
11.250642,-0.0320,0.9684,0.0156,0.3715,-0.8779,0.6008,0.0687,-1.3795,0.2019,
11.252856,-0.0320,0.9684,0.0156,0.0094,-0.3105,0.2178,0.0687,-1.3795,0.2019,
11.254402,-0.0320,0.9684,0.0156,0.0094,-0.3105,0.2178,0.0751,-1.2501,0.2349,
11.270983,-0.0320,0.9684,0.0156,0.0094,-0.3105,0.2178,0.0847,-1.1686,0.2908,
11.290169,-0.0882,0.9973,-0.0718,0.0094,-0.3105,0.2178,0.0847,-1.1686,0.2908,
11.293072,-0.0882,0.9973,-0.0718,-0.6371,-0.0305,-0.6208,0.0847,-1.1686,0.2908,
11.295214,-0.0882,0.9973,-0.0718,-0.6371,-0.0305,-0.6208,0.0698,-1.0685,0.3771,
11.312762,-0.0882,0.9973,-0.0718,-0.6371,-0.0305,-0.6208,-0.0570,-0.9225,0.4692,
11.329457,-0.1121,1.0515,-0.1950,-0.6371,-0.0305,-0.6208,-0.0570,-0.9225,0.4692,
11.331711,-0.1121,1.0515,-0.1950,-1.0081,0.4990,-1.8000,-0.0570,-0.9225,0.4692,
11.333431,-0.1121,1.0515,-0.1950,-1.0081,0.4990,-1.8000,-0.2882,-0.7041,0.5641,
11.349989,-0.1121,1.0515,-0.1950,-1.0081,0.4990,-1.8000,-0.4650,-0.3174,0.5337,
11.369762,-0.0877,1.1106,-0.1652,-1.0081,0.4990,-1.8000,-0.4650,-0.3174,0.5337,
11.372542,-0.0877,1.1106,-0.1652,-0.9654,1.0780,-1.6323,-0.4650,-0.3174,0.5337,
11.374211,-0.0877,1.1106,-0.1652,-0.9654,1.0780,-1.6323,-0.4240,0.0005,0.3063,
11.390492,-0.0877,1.1106,-0.1652,-0.9654,1.0780,-1.6323,-0.1385,-0.3579,0.0458,
11.410488,-0.2340,1.1157,-0.1595,-0.9654,1.0780,-1.6323,-0.1385,-0.3579,0.0458,
11.412621,-0.2340,1.1157,-0.1595,-2.4641,1.1299,-1.6815,-0.1385,-0.3579,0.0458,
11.414400,-0.2340,1.1157,-0.1595,-2.4641,1.1299,-1.6815,0.1699,-1.0525,-0.1566,
11.431007,-0.2340,1.1157,-0.1595,-2.4641,1.1299,-1.6815,0.3670,-1.3438,-0.2988,
11.450098,-0.2670,1.0657,-0.1994,-2.4641,1.1299,-1.6815,0.3670,-1.3438,-0.2988,
11.453590,-0.2670,1.0657,-0.1994,-2.7014,0.6372,-1.9603,0.3670,-1.3438,-0.2988,
11.455657,-0.2670,1.0657,-0.1994,-2.7014,0.6372,-1.9603,0.4559,-1.5020,-0.3483,
11.470085,-0.2670,1.0657,-0.1994,-2.7014,0.6372,-1.9603,0.5587,-1.8695,-0.3073,
11.490778,0.0677,1.3840,0.0975,-2.7014,0.6372,-1.9603,0.5587,-1.8695,-0.3073,
11.494507,0.0677,1.3840,0.0975,0.7134,3.7585,1.1483,0.5587,-1.8695,-0.3073,
11.496582,0.0677,1.3840,0.0975,0.7134,3.7585,1.1483,0.9028,-2.2360,-0.2999,
11.511770,0.0677,1.3840,0.0975,0.7134,3.7585,1.1483,1.3337,-2.6520,-0.3995,
11.529435,0.0359,1.1507,0.0586,0.7134,3.7585,1.1483,1.3337,-2.6520,-0.3995,
11.531723,0.0359,1.1507,0.0586,0.5774,1.4921,1.1918,1.3337,-2.6520,-0.3995,
11.533369,0.0359,1.1507,0.0586,0.5774,1.4921,1.1918,1.5121,-3.2064,-0.3286,
11.550390,0.0359,1.1507,0.0586,0.5774,1.4921,1.1918,1.2378,-3.8483,0.0208,
11.569785,0.2467,1.1040,-0.0247,0.5774,1.4921,1.1918,1.2378,-3.8483,0.0208,
11.572196,0.2467,1.1040,-0.0247,2.8290,1.0840,0.8648,1.2378,-3.8483,0.0208,
11.573482,0.2467,1.1040,-0.0247,2.8290,1.0840,0.8648,0.6274,-4.0288,0.3878,
11.590567,0.2467,1.1040,-0.0247,2.8290,1.0840,0.8648,-0.1901,-3.2986,0.5523,
11.609950,0.6017,1.0620,0.2008,2.8290,1.0840,0.8648,-0.1901,-3.2986,0.5523,
11.612743,0.6017,1.0620,0.2008,6.2943,0.6745,3.0988,-0.1901,-3.2986,0.5523,
11.614603,0.6017,1.0620,0.2008,6.2943,0.6745,3.0988,-0.9827,-1.9100,0.6200,
11.629878,0.6017,1.0620,0.2008,6.2943,0.6745,3.0988,-1.2597,-0.8788,0.6141,
11.649911,0.5595,0.7901,0.4263,6.2943,0.6745,3.0988,-1.2597,-0.8788,0.6141,
11.652158,0.5595,0.7901,0.4263,5.6787,-2.0392,4.8437,-1.2597,-0.8788,0.6141,
11.653868,0.5595,0.7901,0.4263,5.6787,-2.0392,4.8437,-0.9784,-0.8836,0.6887,
11.670070,0.5595,0.7901,0.4263,5.6787,-2.0392,4.8437,-0.4522,-1.3864,0.9422,
11.689603,0.4837,0.7806,0.1307,5.6787,-2.0392,4.8437,-0.4522,-1.3864,0.9422,
11.693535,0.4837,0.7806,0.1307,4.5646,-2.1495,1.6272,-0.4522,-1.3864,0.9422,
11.695406,0.4837,0.7806,0.1307,4.5646,-2.1495,1.6272,-0.0085,-1.5063,0.9657,
11.709787,0.4837,0.7806,0.1307,4.5646,-2.1495,1.6272,0.2653,-0.9513,0.6770,
11.731062,-0.0555,1.2166,0.0276,4.5646,-2.1495,1.6272,0.2653,-0.9513,0.6770,
11.733403,-0.0555,1.2166,0.0276,-1.0485,2.1372,0.6600,0.2653,-0.9513,0.6770,
11.735085,-0.0555,1.2166,0.0276,-1.0485,2.1372,0.6600,0.8357,0.6152,0.2690,
11.749313,-0.0555,1.2166,0.0276,-1.0485,2.1372,0.6600,1.8530,2.7926,0.0240,
11.769861,-0.5541,1.2452,-0.0078,-1.0485,2.1372,0.6600,1.8530,2.7926,0.0240,
11.773661,-0.5541,1.2452,-0.0078,-6.0376,2.4546,0.7983,1.8530,2.7926,0.0240,
11.775276,-0.5541,1.2452,-0.0078,-6.0376,2.4546,0.7983,2.3660,2.7638,0.5816,
11.789747,-0.5541,1.2452,-0.0078,-6.0376,2.4546,0.7983,2.2717,1.5659,1.4615,
11.809039,-0.2629,0.7901,-0.1827,-6.0376,2.4546,0.7983,2.2717,1.5659,1.4615,
11.810942,-0.2629,0.7901,-0.1827,-3.6021,-1.8664,-0.1237,2.2717,1.5659,1.4615,
11.812952,-0.2629,0.7901,-0.1827,-3.6021,-1.8664,-0.1237,1.6421,-0.2296,2.1188,
11.829919,-0.2629,0.7901,-0.1827,-3.6021,-1.8664,-0.1237,1.1302,-1.0780,2.4118,
11.849704,0.5516,0.6714,-0.8275,-3.6021,-1.8664,-0.1237,1.1302,-1.0780,2.4118,
11.853411,0.5516,0.6714,-0.8275,3.5813,-2.7872,-5.8485,1.1302,-1.0780,2.4118,
11.855899,0.5516,0.6714,-0.8275,3.5813,-2.7872,-5.8485,0.6157,-0.9342,2.0618,
11.869367,0.5516,0.6714,-0.8275,3.5813,-2.7872,-5.8485,-0.0304,-0.2519,1.1814,
11.889297,0.4246,0.6716,-0.6638,3.5813,-2.7872,-5.8485,-0.0304,-0.2519,1.1814,
11.892358,0.4246,0.6716,-0.6638,1.7832,-2.6063,-4.0359,-0.0304,-0.2519,1.1814,
11.894618,0.4246,0.6716,-0.6638,1.7832,-2.6063,-4.0359,-0.7260,0.1119,0.5768,
11.909303,0.4246,0.6716,-0.6638,1.7832,-2.6063,-4.0359,-1.0871,-0.1188,0.4005,
11.930412,0.3188,0.7051,-0.2910,1.7832,-2.6063,-4.0359,-1.0871,-0.1188,0.4005,
11.932861,0.3188,0.7051,-0.2910,0.5671,-2.3134,-0.7148,-1.0871,-0.1188,0.4005,
11.934736,0.3188,0.7051,-0.2910,0.5671,-2.3134,-0.7148,-1.0972,-0.2594,0.3606,
11.949124,0.3188,0.7051,-0.2910,0.5671,-2.3134,-0.7148,-1.0013,-0.1859,0.2791,
11.968795,0.4117,0.6144,-0.1972,0.5671,-2.3134,-0.7148,-1.0013,-0.1859,0.2791,
11.971378,0.4117,0.6144,-0.1972,1.3762,-3.2503,-0.1599,-1.0013,-0.1859,0.2791,
11.973024,0.4117,0.6144,-0.1972,1.3762,-3.2503,-0.1599,-0.7585,-0.0666,0.1001,
11.989296,0.4117,0.6144,-0.1972,1.3762,-3.2503,-0.1599,-0.3350,-0.0879,-0.0447,
12.009390,0.4197,0.8196,-0.3247,1.3762,-3.2503,-0.1599,-0.3350,-0.0879,-0.0447,
12.012081,0.4197,0.8196,-0.3247,1.4500,-1.2728,-1.6043,-0.3350,-0.0879,-0.0447,
12.013913,0.4197,0.8196,-0.3247,1.4500,-1.2728,-1.6043,-0.0298,-0.4426,-0.1385,
12.030259,0.4197,0.8196,-0.3247,1.4500,-1.2728,-1.6043,0.0927,-0.5380,-0.2115,
12.049632,0.5397,1.0383,-0.4119,1.4500,-1.2728,-1.6043,0.0927,-0.5380,-0.2115,
12.052386,0.5397,1.0383,-0.4119,2.6854,0.8709,-2.3574,0.0927,-0.5380,-0.2115,
12.053984,0.5397,1.0383,-0.4119,2.6854,0.8709,-2.3574,0.0597,-0.5119,-0.1470,
12.068710,0.5397,1.0383,-0.4119,2.6854,0.8709,-2.3574,0.0842,-0.6796,-0.0788,
12.089538,0.6210,1.7272,-0.3520,2.6854,0.8709,-2.3574,0.0842,-0.6796,-0.0788,
12.092515,0.6210,1.7272,-0.3520,3.5656,7.6159,-1.6832,0.0842,-0.6796,-0.0788,
12.094375,0.6210,1.7272,-0.3520,3.5656,7.6159,-1.6832,-0.1321,-1.1105,0.2083,
12.108564,0.6210,1.7272,-0.3520,3.5656,7.6159,-1.6832,-0.6887,-0.8943,-0.1145,
12.128580,0.6687,0.7764,-0.1654,3.5656,7.6159,-1.6832,-0.6887,-0.8943,-0.1145,
12.130718,0.6687,0.7764,-0.1654,4.0860,-1.7264,0.0937,-0.6887,-0.8943,-0.1145,
12.132432,0.6687,0.7764,-0.1654,4.0860,-1.7264,0.0937,-1.2650,-0.8458,-0.2637,
12.148632,0.6687,0.7764,-0.1654,4.0860,-1.7264,0.0937,-1.4823,-1.5761,-0.3100,
12.168675,0.5113,0.9262,-0.0564,4.0860,-1.7264,0.0937,-1.4823,-1.5761,-0.3100,
12.170859,0.5113,0.9262,-0.0564,2.7236,-0.3688,0.7608,-1.4823,-1.5761,-0.3100,
12.172534,0.5113,0.9262,-0.0564,2.7236,-0.3688,0.7608,-1.5670,-2.1279,-0.2306,
12.188153,0.5113,0.9262,-0.0564,2.7236,-0.3688,0.7608,-1.5425,-2.3968,-0.0820,
12.208764,0.5541,1.2066,0.0232,2.7236,-0.3688,0.7608,-1.5425,-2.3968,-0.0820,
12.210880,0.5541,1.2066,0.0232,3.3021,2.2966,1.1505,-1.5425,-2.3968,-0.0820,
12.212519,0.5541,1.2066,0.0232,3.3021,2.2966,1.1505,-1.7838,-2.7873,-0.2674,
12.228990,0.5541,1.2066,0.0232,3.3021,2.2966,1.1505,-2.4954,-3.4712,-0.3329,
12.247930,0.5700,0.9139,0.1239,3.3021,2.2966,1.1505,-2.4954,-3.4712,-0.3329,
12.249890,0.5700,0.9139,0.1239,3.6543,-0.6512,1.5719,-2.4954,-3.4712,-0.3329,
12.251595,0.5700,0.9139,0.1239,3.6543,-0.6512,1.5719,-3.2997,-3.5154,-0.4762,
12.268600,0.5700,0.9139,0.1239,3.6543,-0.6512,1.5719,-3.8935,-3.4088,-0.7686,
12.289535,0.5651,0.7644,0.7139,3.6543,-0.6512,1.5719,-3.8935,-3.4088,-0.7686,
12.293121,0.5651,0.7644,0.7139,3.8219,-2.1331,6.2249,-3.8935,-3.4088,-0.7686,
12.294819,0.5651,0.7644,0.7139,3.8219,-2.1331,6.2249,-3.8142,-3.0291,-1.2117,
12.308121,0.5651,0.7644,0.7139,3.8219,-2.1331,6.2249,-3.2480,-2.5353,-1.4525,
12.328839,0.2460,0.9166,1.2533,3.8219,-2.1331,6.2249,-3.2480,-2.5353,-1.4525,
12.330893,0.2460,0.9166,1.2533,1.0538,-0.5315,10.3326,-3.2480,-2.5353,-1.4525,
12.332746,0.2460,0.9166,1.2533,1.0538,-0.5315,10.3326,-1.9926,-2.0027,-1.3678,
12.349119,0.2460,0.9166,1.2533,1.0538,-0.5315,10.3326,-0.4282,-1.5798,-1.0589,
12.368616,0.0039,1.0236,0.7740,1.0538,-0.5315,10.3326,-0.4282,-1.5798,-1.0589,
12.371747,0.0039,1.0236,0.7740,-1.0165,0.5626,5.2624,-0.4282,-1.5798,-1.0589,
12.373891,0.0039,1.0236,0.7740,-1.0165,0.5626,5.2624,0.6035,-1.1436,-0.7430,
12.388127,0.0039,1.0236,0.7740,-1.0165,0.5626,5.2624,0.9838,-0.6440,-0.6242,
12.408605,0.0342,0.8008,0.2465,-1.0165,0.5626,5.2624,0.9838,-0.6440,-0.6242,
12.411562,0.0342,0.8008,0.2465,-0.5481,-1.7043,0.3808,0.9838,-0.6440,-0.6242,
12.413542,0.0342,0.8008,0.2465,-0.5481,-1.7043,0.3808,0.8591,-0.1896,-0.7867,
12.428210,0.0342,0.8008,0.2465,-0.5481,-1.7043,0.3808,0.4533,-0.0756,-1.1265,
12.447603,-0.0528,0.6682,0.1356,-0.5481,-1.7043,0.3808,0.4533,-0.0756,-1.1265,
12.449999,-0.0528,0.6682,0.1356,-1.0441,-3.0813,-0.4510,0.4533,-0.0756,-1.1265,
12.451390,-0.0528,0.6682,0.1356,-1.0441,-3.0813,-0.4510,0.0682,-0.5902,-1.4621,
12.468318,-0.0528,0.6682,0.1356,-1.0441,-3.0813,-0.4510,-0.2077,-1.5356,-1.6192,
12.487714,-0.2138,0.6926,0.1290,-1.0441,-3.0813,-0.4510,-0.2077,-1.5356,-1.6192,
12.490239,-0.2138,0.6926,0.1290,-2.1041,-2.8529,-0.5336,-0.2077,-1.5356,-1.6192,
12.492187,-0.2138,0.6926,0.1290,-2.1041,-2.8529,-0.5336,-0.3063,-2.3665,-1.4663,
12.509347,-0.2138,0.6926,0.1290,-2.1041,-2.8529,-0.5336,-0.2583,-2.7750,-1.1452,
12.527936,-0.2985,0.7676,0.0364,-2.1041,-2.8529,-0.5336,-0.2583,-2.7750,-1.1452,
12.530895,-0.2985,0.7676,0.0364,-2.6241,-2.0887,-1.5673,-0.2583,-2.7750,-1.1452,
12.532880,-0.2985,0.7676,0.0364,-2.6241,-2.0887,-1.5673,-0.1854,-2.6003,-0.7207,
12.547685,-0.2985,0.7676,0.0364,-2.6241,-2.0887,-1.5673,-0.1039,-1.9564,-0.2077,
12.568486,-0.1678,0.8551,0.0122,-2.6241,-2.0887,-1.5673,-0.1039,-1.9564,-0.2077,
12.572707,-0.1678,0.8551,0.0122,-1.3444,-1.2143,-1.8889,-0.1039,-1.9564,-0.2077,
12.575501,-0.1678,0.8551,0.0122,-1.3444,-1.2143,-1.8889,0.0037,-1.1904,0.1145,
12.588169,-0.1678,0.8551,0.0122,-1.3444,-1.2143,-1.8889,0.0921,-0.4671,0.0889,
12.608283,-0.0762,1.1807,0.0545,-1.3444,-1.2143,-1.8889,0.0921,-0.4671,0.0889,
12.610964,-0.0762,1.1807,0.0545,-0.5201,1.9658,-1.4299,0.0921,-0.4671,0.0889,
12.613016,-0.0762,1.1807,0.0545,-0.5201,1.9658,-1.4299,0.1779,-0.0373,0.0703,
12.628692,-0.0762,1.1807,0.0545,-0.5201,1.9658,-1.4299,0.2956,0.0314,0.1268,
12.647594,0.0166,1.3684,0.1280,-0.5201,1.9658,-1.4299,0.2956,0.0314,0.1268,
12.650424,0.0166,1.3684,0.1280,0.3516,3.7856,-0.6183,0.2956,0.0314,0.1268,
12.652270,0.0166,1.3684,0.1280,0.3516,3.7856,-0.6183,0.4969,-0.2189,0.1907,
12.667464,0.0166,1.3684,0.1280,0.3516,3.7856,-0.6183,0.7702,-0.6615,0.2109,
12.687866,0.0051,1.3642,0.1524,0.3516,3.7856,-0.6183,0.7702,-0.6615,0.2109,
12.690303,0.0051,1.3642,0.1524,0.1312,3.6995,-0.1370,0.7702,-0.6615,0.2109,
12.691801,0.0051,1.3642,0.1524,0.1312,3.6995,-0.1370,0.9795,-1.2080,0.1731,
12.707154,0.0051,1.3642,0.1524,0.1312,3.6995,-0.1370,1.1388,-1.8504,0.1614,
12.727658,0.0640,1.3417,0.1757,0.1312,3.6995,-0.1370,1.1388,-1.8504,0.1614,
12.729801,0.0640,1.3417,0.1757,0.5571,3.4188,0.5009,1.1388,-1.8504,0.1614,
12.731323,0.0640,1.3417,0.1757,0.5571,3.4188,0.5009,1.0610,-2.6584,0.0463,
12.748149,0.0640,1.3417,0.1757,0.5571,3.4188,0.5009,0.6301,-3.2278,0.0298,
12.767804,0.2863,0.9809,0.3117,0.5571,3.4188,0.5009,0.6301,-3.2278,0.0298,
12.769940,0.2863,0.9809,0.3117,2.6012,-0.1527,2.1801,0.6301,-3.2278,0.0298,
12.771627,0.2863,0.9809,0.3117,2.6012,-0.1527,2.1801,0.2653,-3.0435,0.1470,
12.788190,0.2863,0.9809,0.3117,2.6012,-0.1527,2.1801,0.1220,-2.2909,0.2210,
12.807553,0.4791,0.7959,0.3034,2.6012,-0.1527,2.1801,0.1220,-2.2909,0.2210,
12.809828,0.4791,0.7959,0.3034,4.3057,-1.9669,2.1856,0.1220,-2.2909,0.2210,
12.811503,0.4791,0.7959,0.3034,4.3057,-1.9669,2.1856,0.0543,-1.1819,0.2945,
12.827872,0.4791,0.7959,0.3034,4.3057,-1.9669,2.1856,0.0037,-0.0634,0.3393,
12.847792,0.5130,0.8905,0.1346,4.3057,-1.9669,2.1856,0.0037,-0.0634,0.3393,
12.849924,0.5130,0.8905,0.1346,4.4459,-1.0310,0.5341,0.0037,-0.0634,0.3393,
12.851553,0.5130,0.8905,0.1346,4.4459,-1.0310,0.5341,-0.1214,0.6429,0.2764,
12.868373,0.5130,0.8905,0.1346,4.4459,-1.0310,0.5341,-0.2418,0.8181,0.1087,
12.887798,0.2348,0.8768,0.1024,4.4459,-1.0310,0.5341,-0.2418,0.8181,0.1087,
12.890830,0.2348,0.8768,0.1024,1.5899,-1.1469,0.1064,-0.2418,0.8181,0.1087,
12.892874,0.2348,0.8768,0.1024,1.5899,-1.1469,0.1064,-0.2274,0.6509,0.0208,
12.907937,0.2348,0.8768,0.1024,1.5899,-1.1469,0.1064,0.1667,0.9486,0.0517,
12.928295,-0.3347,1.3935,0.1642,1.5899,-1.1469,0.1064,0.1667,0.9486,0.0517,
12.930473,-0.3347,1.3935,0.1642,-3.9753,3.9190,0.6779,0.1667,0.9486,0.0517,
12.932225,-0.3347,1.3935,0.1642,-3.9753,3.9190,0.6779,1.3103,2.3154,-0.1150,
12.948732,-0.3347,1.3935,0.1642,-3.9753,3.9190,0.6779,1.9265,2.0133,0.2562,
12.967851,-0.3772,0.7930,0.0437,-3.9753,3.9190,0.6779,1.9265,2.0133,0.2562,
12.971297,-0.3772,0.7930,0.0437,-4.2808,-2.0100,0.0427,1.9265,2.0133,0.2562,
12.973600,-0.3772,0.7930,0.0437,-4.2808,-2.0100,0.0427,1.9068,0.7132,1.2464,
12.987913,-0.3772,0.7930,0.0437,-4.2808,-2.0100,0.0427,1.3998,-0.8256,2.2030,
13.007575,-0.1529,0.4774,-0.0428,-4.2808,-2.0100,0.0427,1.3998,-0.8256,2.2030,
13.011619,-0.1529,0.4774,-0.0428,-2.7504,-5.0445,-0.1530,1.3998,-0.8256,2.2030,
13.014018,-0.1529,0.4774,-0.0428,-2.7504,-5.0445,-0.1530,1.1313,-0.9587,2.7835,
13.027178,-0.1529,0.4774,-0.0428,-2.7504,-5.0445,-0.1530,0.9252,-0.3334,2.3665,
13.047779,0.8639,0.6179,-0.1573,-2.7504,-5.0445,-0.1530,0.9252,-0.3334,2.3665,
13.050180,0.8639,0.6179,-0.1573,6.2359,-3.4688,-0.8382,0.9252,-0.3334,2.3665,
13.052055,0.8639,0.6179,-0.1573,6.2359,-3.4688,-0.8382,0.7622,-0.1427,1.2037,
13.066965,0.8639,0.6179,-0.1573,6.2359,-3.4688,-0.8382,0.8410,-0.0597,0.5236,
13.087657,0.3948,0.5819,-0.1862,6.2359,-3.4688,-0.8382,0.8410,-0.0597,0.5236,
13.090111,0.3948,0.5819,-0.1862,1.3154,-3.7107,-0.8081,0.8410,-0.0597,0.5236,
13.091882,0.3948,0.5819,-0.1862,1.3154,-3.7107,-0.8081,0.8661,-0.1113,0.1784,
13.108315,0.3948,0.5819,-0.1862,1.3154,-3.7107,-0.8081,0.5832,0.0170,0.1401,
13.127570,0.2714,0.5956,-0.3784,1.3154,-3.7107,-0.8081,0.5832,0.0170,0.1401,
13.132431,0.2714,0.5956,-0.3784,0.0487,-3.5267,-2.4158,0.5832,0.0170,0.1401,
13.135070,0.2714,0.5956,-0.3784,0.0487,-3.5267,-2.4158,0.1481,0.2626,0.2663,
13.147156,0.2714,0.5956,-0.3784,0.0487,-3.5267,-2.4158,-0.1625,0.1795,0.1971,
13.167611,0.3858,0.7757,-0.2660,0.0487,-3.5267,-2.4158,-0.1625,0.1795,0.1971,
13.169955,0.3858,0.7757,-0.2660,1.0712,-1.7379,-1.3406,-0.1625,0.1795,0.1971,
13.171778,0.3858,0.7757,-0.2660,1.0712,-1.7379,-1.3406,-0.2029,0.1390,0.0655,
13.187039,0.3858,0.7757,-0.2660,1.0712,-1.7379,-1.3406,-0.1635,0.0671,-0.0426,
13.207499,0.4297,0.8407,-0.2807,1.0712,-1.7379,-1.3406,-0.1635,0.0671,-0.0426,
13.210173,0.4297,0.8407,-0.2807,1.4928,-1.1088,-1.5637,-0.1635,0.0671,-0.0426,
13.211881,0.4297,0.8407,-0.2807,1.4928,-1.1088,-1.5637,-0.0810,-0.0005,-0.1896,
13.227002,0.4297,0.8407,-0.2807,1.4928,-1.1088,-1.5637,0.1044,0.0043,-0.3542,
13.247593,0.3296,1.3085,-0.3682,1.4928,-1.1088,-1.5637,0.1044,0.0043,-0.3542,
13.250335,0.3296,1.3085,-0.3682,0.6122,3.4480,-2.4153,0.1044,0.0043,-0.3542,
13.252259,0.3296,1.3085,-0.3682,0.6122,3.4480,-2.4153,0.4202,0.0197,-0.6530,
13.266623,0.3296,1.3085,-0.3682,0.6122,3.4480,-2.4153,0.2626,-0.5689,-0.4091,
13.287202,0.4280,1.4905,-0.3990,0.6122,3.4480,-2.4153,0.2626,-0.5689,-0.4091,
13.289646,0.4280,1.4905,-0.3990,1.7908,5.1956,-2.5620,0.2626,-0.5689,-0.4091,
13.291301,0.4280,1.4905,-0.3990,1.7908,5.1956,-2.5620,-0.3483,-0.9763,-0.0975,
13.307717,0.4280,1.4905,-0.3990,1.7908,5.1956,-2.5620,-1.0946,-1.1196,0.0383,
13.326166,0.6777,0.9315,-0.1747,1.7908,5.1956,-2.5620,-1.0946,-1.1196,0.0383,
13.327937,0.6777,0.9315,-0.1747,4.3028,-0.3219,-0.5371,-1.0946,-1.1196,0.0383,
13.329016,0.6777,0.9315,-0.1747,4.3028,-0.3219,-0.5371,-1.7199,-0.9992,-0.1726,
13.347028,0.6777,0.9315,-0.1747,4.3028,-0.3219,-0.5371,-1.7204,-0.3148,-0.3984,
13.366818,0.4849,0.9188,-0.0662,4.3028,-0.3219,-0.5371,-1.7204,-0.3148,-0.3984,
13.369085,0.4849,0.9188,-0.0662,2.5474,-0.5331,-0.0658,-1.7204,-0.3148,-0.3984,
13.370874,0.4849,0.9188,-0.0662,2.5474,-0.5331,-0.0658,-1.6112,-0.0378,-0.7425,
13.386902,0.4849,0.9188,-0.0662,2.5474,-0.5331,-0.0658,-1.7113,-0.2903,-0.9369,
13.407209,0.2494,1.0293,-0.0237,2.5474,-0.5331,-0.0658,-1.7113,-0.2903,-0.9369,
13.409546,0.2494,1.0293,-0.0237,0.5616,0.4627,-0.2719,-1.7113,-0.2903,-0.9369,
13.411180,0.2494,1.0293,-0.0237,0.5616,0.4627,-0.2719,-1.9612,-0.7228,-0.8181,
13.427211,0.2494,1.0293,-0.0237,0.5616,0.4627,-0.2719,-2.3319,-1.0876,-0.7345,
13.446910,0.3523,1.0464,0.2167,0.5616,0.4627,-0.2719,-2.3319,-1.0876,-0.7345,
13.450695,0.3523,1.0464,0.2167,1.8509,0.6128,1.3200,-2.3319,-1.0876,-0.7345,
13.452389,0.3523,1.0464,0.2167,1.8509,0.6128,1.3200,-2.6051,-1.1409,-1.0184,
13.466998,0.3523,1.0464,0.2167,1.8509,0.6128,1.3200,-2.3622,-1.3385,-1.2229,
13.487102,0.0354,1.0031,0.9665,1.8509,0.6128,1.3200,-2.3622,-1.3385,-1.2229,
13.490329,0.0354,1.0031,0.9665,-0.8872,0.2494,7.7840,-2.3622,-1.3385,-1.2229,
13.492334,0.0354,1.0031,0.9665,-0.8872,0.2494,7.7840,-1.2288,-0.6914,-1.0674,
13.508599,0.0354,1.0031,0.9665,-0.8872,0.2494,7.7840,0.3190,0.6738,-0.7601,
13.526444,0.0022,1.0053,0.6555,-0.8872,0.2494,7.7840,0.3190,0.6738,-0.7601,
13.529866,0.0022,1.0053,0.6555,-0.8631,0.2639,4.5652,0.3190,0.6738,-0.7601,
13.531727,0.0022,1.0053,0.6555,-0.8631,0.2639,4.5652,1.3247,1.3065,-0.5438,
13.547015,0.0022,1.0053,0.6555,-0.8631,0.2639,4.5652,1.4855,1.2128,-0.6136,
13.566704,0.0501,0.7559,0.1136,-0.8631,0.2639,4.5652,1.4855,1.2128,-0.6136,
13.570074,0.0501,0.7559,0.1136,-0.1013,-2.2778,-0.3052,1.4855,1.2128,-0.6136,
13.571927,0.0501,0.7559,0.1136,-0.1013,-2.2778,-0.3052,1.0088,0.8767,-0.9220,
13.586868,0.0501,0.7559,0.1136,-0.1013,-2.2778,-0.3052,0.3084,0.3164,-1.2059,
13.607617,0.0039,0.6782,0.0134,-0.1013,-2.2778,-0.3052,0.3084,0.3164,-1.2059,
13.610772,0.0039,0.6782,0.0134,-0.1101,-3.0888,-1.0416,0.3084,0.3164,-1.2059,
13.612811,0.0039,0.6782,0.0134,-0.1101,-3.0888,-1.0416,-0.2850,-0.2631,-1.4046,
13.626716,0.0039,0.6782,0.0134,-0.1101,-3.0888,-1.0416,-0.6759,-0.6498,-1.4381,
13.646551,-0.1209,0.6152,0.0183,-0.1101,-3.0888,-1.0416,-0.6759,-0.6498,-1.4381,
13.649968,-0.1209,0.6152,0.0183,-0.8049,-3.6754,-1.1833,-0.6759,-0.6498,-1.4381,
13.652264,-0.1209,0.6152,0.0183,-0.8049,-3.6754,-1.1833,-0.9081,-0.7755,-1.2719,
13.666085,-0.1209,0.6152,0.0183,-0.8049,-3.6754,-1.1833,-0.9790,-0.6977,-0.9119,
13.686598,-0.2421,0.7459,-0.0332,-0.8049,-3.6754,-1.1833,-0.9790,-0.6977,-0.9119,
13.689474,-0.2421,0.7459,-0.0332,-1.6162,-2.3111,-2.0698,-0.9790,-0.6977,-0.9119,
13.691318,-0.2421,0.7459,-0.0332,-1.6162,-2.3111,-2.0698,-0.9593,-0.3174,-0.4160,
13.707244,-0.2421,0.7459,-0.0332,-1.6162,-2.3111,-2.0698,-0.8016,0.2360,0.0799,
13.726651,-0.0953,0.7999,0.0406,-1.6162,-2.3111,-2.0698,-0.8016,0.2360,0.0799,
13.729078,-0.0953,0.7999,0.0406,-0.1149,-1.7093,-1.6849,-0.8016,0.2360,0.0799,
13.731035,-0.0953,0.7999,0.0406,-0.1149,-1.7093,-1.6849,-0.5081,0.8027,0.2988,
13.746625,-0.0953,0.7999,0.0406,-0.1149,-1.7093,-1.6849,-0.1886,1.1803,0.2738,
13.765888,-0.1151,1.0090,0.0547,-0.1149,-1.7093,-1.6849,-0.1886,1.1803,0.2738,
13.769000,-0.1151,1.0090,0.0547,-0.3325,0.3607,-1.6470,-0.1886,1.1803,0.2738,
13.770713,-0.1151,1.0090,0.0547,-0.3325,0.3607,-1.6470,0.0170,1.1915,0.3489,
13.786588,-0.1151,1.0090,0.0547,-0.3325,0.3607,-1.6470,0.0959,1.0067,0.4405,
13.805702,-0.1463,1.1426,0.0970,-0.3325,0.3607,-1.6470,0.0959,1.0067,0.4405,
13.806881,-0.1463,1.1426,0.0970,-0.6751,1.6429,-1.1234,0.0959,1.0067,0.4405,
13.807790,-0.1463,1.1426,0.0970,-0.6751,1.6429,-1.1234,0.1497,0.7436,0.4900,
13.826156,-0.1463,1.1426,0.0970,-0.6751,1.6429,-1.1234,0.2695,0.4591,0.5012,
13.845898,-0.1769,1.2572,0.1566,-0.6751,1.6429,-1.1234,0.2695,0.4591,0.5012,
13.849310,-0.1769,1.2572,0.1566,-1.1149,2.7352,-0.4422,0.2695,0.4591,0.5012,
13.851507,-0.1769,1.2572,0.1566,-1.1149,2.7352,-0.4422,0.4458,0.1949,0.5108,
13.867013,-0.1769,1.2572,0.1566,-1.1149,2.7352,-0.4422,0.6322,-0.0831,0.5129,
13.886013,-0.1468,1.4167,0.1476,-1.1149,2.7352,-0.4422,0.6322,-0.0831,0.5129,
13.889391,-0.1468,1.4167,0.1476,-1.0124,4.2475,-0.3224,0.6322,-0.0831,0.5129,
13.891056,-0.1468,1.4167,0.1476,-1.0124,4.2475,-0.3224,0.7654,-0.3419,0.4671,
13.906501,-0.1468,1.4167,0.1476,-1.0124,4.2475,-0.3224,0.7931,-0.5784,0.4011,
13.926505,-0.0796,1.4732,0.1823,-1.0124,4.2475,-0.3224,0.7931,-0.5784,0.4011,
13.928871,-0.0796,1.4732,0.1823,-0.5510,4.7444,0.3126,0.7931,-0.5784,0.4011,
13.930523,-0.0796,1.4732,0.1823,-0.5510,4.7444,0.3126,0.6195,-0.9454,0.3489,
13.947101,-0.0796,1.4732,0.1823,-0.5510,4.7444,0.3126,0.4629,-1.3966,0.4671,
13.966378,0.1612,1.0779,0.3149,-0.5510,4.7444,0.3126,0.4629,-1.3966,0.4671,
13.969401,0.1612,1.0779,0.3149,1.5882,0.8390,1.8170,0.4629,-1.3966,0.4671,
13.970869,0.1612,1.0779,0.3149,1.5882,0.8390,1.8170,0.4469,-1.6245,0.4932,
13.986016,0.1612,1.0779,0.3149,1.5882,0.8390,1.8170,0.4911,-1.5532,0.5081,
14.005807,0.3188,0.8844,0.2746,1.5882,0.8390,1.8170,0.4911,-1.5532,0.5081,
14.009479,0.3188,0.8844,0.2746,2.8630,-1.0766,1.6123,0.4911,-1.5532,0.5081,
14.011274,0.3188,0.8844,0.2746,2.8630,-1.0766,1.6123,0.4314,-1.1729,0.5310,
14.025992,0.3188,0.8844,0.2746,2.8630,-1.0766,1.6123,0.3036,-0.5694,0.5401,
14.045745,0.4112,0.9020,0.2020,2.8630,-1.0766,1.6123,0.3036,-0.5694,0.5401,
14.048240,0.4112,0.9020,0.2020,3.4934,-0.9071,1.0373,0.3036,-0.5694,0.5401,
14.049755,0.4112,0.9020,0.2020,3.4934,-0.9071,1.0373,0.1928,0.0911,0.5001,
14.066200,0.4112,0.9020,0.2020,3.4934,-0.9071,1.0373,0.1172,0.6083,0.4101,
14.085615,0.2111,0.9843,0.1253,3.4934,-0.9071,1.0373,0.1172,0.6083,0.4101,
14.088628,0.2111,0.9843,0.1253,1.3298,-0.0899,0.3158,0.1172,0.6083,0.4101,
14.090987,0.2111,0.9843,0.1253,1.3298,-0.0899,0.3158,0.1129,0.8756,0.4080,
14.105983,0.2111,0.9843,0.1253,1.3298,-0.0899,0.3158,0.4666,1.5052,0.4059,
14.126634,-0.2304,1.2653,0.1835,1.3298,-0.0899,0.3158,0.4666,1.5052,0.4059,
14.129024,-0.2304,1.2653,0.1835,-3.1127,2.6663,0.9598,0.4666,1.5052,0.4059,
14.130796,-0.2304,1.2653,0.1835,-3.1127,2.6663,0.9598,1.6368,3.0424,0.2152,
14.145944,-0.2304,1.2653,0.1835,-3.1127,2.6663,0.9598,2.3287,2.9487,0.3739,
14.166192,-0.1801,0.7647,0.0186,-3.1127,2.6663,0.9598,2.3287,2.9487,0.3739,
14.169658,-0.1801,0.7647,0.0186,-2.6284,-2.2727,-0.0147,2.3287,2.9487,0.3739,
14.171743,-0.1801,0.7647,0.0186,-2.6284,-2.2727,-0.0147,2.2669,1.6075,0.9678,
14.185859,-0.1801,0.7647,0.0186,-2.6284,-2.2727,-0.0147,1.7556,0.0245,1.6847,
14.205784,-0.1400,0.6682,-0.0310,-2.6284,-2.2727,-0.0147,1.7556,0.0245,1.6847,
14.209083,-0.1400,0.6682,-0.0310,-2.7520,-3.1451,0.2505,1.7556,0.0245,1.6847,
14.211107,-0.1400,0.6682,-0.0310,-2.7520,-3.1451,0.2505,1.3806,-0.5129,2.2493,
14.225668,-0.1400,0.6682,-0.0310,-2.7520,-3.1451,0.2505,1.2826,0.1182,2.6653,
14.246321,1.1316,0.6643,-0.1483,-2.7520,-3.1451,0.2505,1.2826,0.1182,2.6653,
14.248616,1.1316,0.6643,-0.1483,8.7743,-2.9586,-0.3774,1.2826,0.1182,2.6653,
14.250415,1.1316,0.6643,-0.1483,8.7743,-2.9586,-0.3774,1.0056,0.2535,1.9723,
14.266088,1.1316,0.6643,-0.1483,8.7743,-2.9586,-0.3774,0.8176,0.0170,0.5449,
14.285874,0.4610,0.5470,-0.1991,8.7743,-2.9586,-0.3774,0.8176,0.0170,0.5449,
14.288313,0.4610,0.5470,-0.1991,1.7236,-3.9342,-0.5478,0.8176,0.0170,0.5449,
14.290122,0.4610,0.5470,-0.1991,1.7236,-3.9342,-0.5478,0.7766,-0.2455,0.0895,
14.306697,0.4610,0.5470,-0.1991,1.7236,-3.9342,-0.5478,0.5374,-0.1678,-0.1230,
14.326329,0.1989,0.5692,-0.3508,1.7236,-3.9342,-0.5478,0.5374,-0.1678,-0.1230,
14.328649,0.1989,0.5692,-0.3508,-0.8265,-3.6778,-1.7682,0.5374,-0.1678,-0.1230,
14.330628,0.1989,0.5692,-0.3508,-0.8265,-3.6778,-1.7682,0.2562,0.3222,-0.0591,
14.346027,0.1989,0.5692,-0.3508,-0.8265,-3.6778,-1.7682,0.1028,0.5156,0.1278,
14.365979,0.2937,0.7583,-0.4454,-0.8265,-3.6778,-1.7682,0.1028,0.5156,0.1278,
14.369554,0.2937,0.7583,-0.4454,0.0615,-1.8088,-2.6751,0.1028,0.5156,0.1278,
14.371653,0.2937,0.7583,-0.4454,0.0615,-1.8088,-2.6751,-0.0314,0.3675,0.1491,
14.385219,0.2937,0.7583,-0.4454,0.0615,-1.8088,-2.6751,-0.3004,0.3952,0.0314,
14.405828,0.2893,1.0178,-0.2829,0.0615,-1.8088,-2.6751,-0.3004,0.3952,0.0314,
14.408281,0.2893,1.0178,-0.2829,-0.0448,0.7382,-1.1681,-0.3004,0.3952,0.0314,
14.410008,0.2893,1.0178,-0.2829,-0.0448,0.7382,-1.1681,-0.2748,0.5689,-0.1752,
14.426057,0.2893,1.0178,-0.2829,-0.0448,0.7382,-1.1681,0.1065,0.5635,-0.4985,
14.445498,0.2707,1.2166,-0.4099,-0.0448,0.7382,-1.1681,0.1065,0.5635,-0.4985,
14.449479,0.2707,1.2166,-0.4099,-0.1366,2.6443,-2.5031,0.1065,0.5635,-0.4985,
14.451475,0.2707,1.2166,-0.4099,-0.1366,2.6443,-2.5031,0.5507,0.5529,-0.8916,
14.465240,0.2707,1.2166,-0.4099,-0.1366,2.6443,-2.5031,0.2812,0.1012,-0.7313,
14.484933,0.4048,1.4839,-0.4239,-0.1366,2.6443,-2.5031,0.2812,0.1012,-0.7313,
14.488277,0.4048,1.4839,-0.4239,1.4592,5.2037,-2.5201,0.2812,0.1012,-0.7313,
14.490259,0.4048,1.4839,-0.4239,1.4592,5.2037,-2.5201,-0.4442,-0.2301,-0.1497,
14.506954,0.4048,1.4839,-0.4239,1.4592,5.2037,-2.5201,-1.3460,-0.5262,-0.2035,
14.524431,0.7605,0.8416,-0.1116,1.4592,5.2037,-2.5201,-1.3460,-0.5262,-0.2035,
14.526427,0.7605,0.8416,-0.1116,5.0337,-1.1611,0.2418,-1.3460,-0.5262,-0.2035,
14.527775,0.7605,0.8416,-0.1116,5.0337,-1.1611,0.2418,-1.7385,-0.3531,-0.0415,
14.545091,0.7605,0.8416,-0.1116,5.0337,-1.1611,0.2418,-1.6682,0.4085,-0.4447,
14.565224,0.3398,0.6860,-0.0161,5.0337,-1.1611,0.2418,-1.6682,0.4085,-0.4447,
14.568051,0.3398,0.6860,-0.0161,0.9291,-2.7577,0.5642,-1.6682,0.4085,-0.4447,
14.569793,0.3398,0.6860,-0.0161,0.9291,-2.7577,0.5642,-1.9484,-0.0618,-0.9129,
14.585105,0.3398,0.6860,-0.0161,0.9291,-2.7577,0.5642,-2.3905,-0.7872,-0.8522,
14.605907,0.2069,0.9565,0.1595,0.9291,-2.7577,0.5642,-2.3905,-0.7872,-0.8522,
14.608278,0.2069,0.9565,0.1595,-0.0790,-0.2042,1.5051,-2.3905,-0.7872,-0.8522,
14.610395,0.2069,0.9565,0.1595,-0.0790,-0.2042,1.5051,-2.4634,-0.6903,-0.4043,
14.625583,0.2069,0.9565,0.1595,-0.0790,-0.2042,1.5051,-2.2674,-0.2344,-0.2594,
14.644535,0.4808,1.0139,0.3987,-0.0790,-0.2042,1.5051,-2.2674,-0.2344,-0.2594,
14.646777,0.4808,1.0139,0.3987,2.6903,0.3857,2.9713,-2.2674,-0.2344,-0.2594,
14.648478,0.4808,1.0139,0.3987,2.6903,0.3857,2.9713,-2.1881,-0.3111,-0.5763,
14.664486,0.4808,1.0139,0.3987,2.6903,0.3857,2.9713,-1.9643,-0.5614,-0.8421,
14.684621,0.2436,1.1216,0.7869,2.6903,0.3857,2.9713,-1.9643,-0.5614,-0.8421,
14.687221,0.2436,1.1216,0.7869,0.6112,1.4970,6.0188,-1.9643,-0.5614,-0.8421,
14.688992,0.2436,1.1216,0.7869,0.6112,1.4970,6.0188,-1.2437,-0.2109,-0.9156,
14.704853,0.2436,1.1216,0.7869,0.6112,1.4970,6.0188,-0.2024,0.2892,-0.8799,
14.726329,0.0787,0.8558,0.4581,0.6112,1.4970,6.0188,-0.2024,0.2892,-0.8799,
14.728375,0.0787,0.8558,0.4581,-0.6678,-1.1074,2.4994,-0.2024,0.2892,-0.8799,
14.730202,0.0787,0.8558,0.4581,-0.6678,-1.1074,2.4994,0.5230,0.2866,-0.8149,
14.744676,0.0787,0.8558,0.4581,-0.6678,-1.1074,2.4994,0.6796,0.2306,-0.9470,
14.764696,0.0853,0.6736,0.0318,-0.6678,-1.1074,2.4994,0.6796,0.2306,-0.9470,
14.767951,0.0853,0.6736,0.0318,-0.2479,-2.9830,-1.4625,0.6796,0.2306,-0.9470,
14.770296,0.0853,0.6736,0.0318,-0.2479,-2.9830,-1.4625,0.3925,0.2706,-1.2709,
14.784866,0.0853,0.6736,0.0318,-0.2479,-2.9830,-1.4625,-0.1230,0.2434,-1.6181,
14.804579,-0.1236,0.7004,0.0310,-0.2479,-2.9830,-1.4625,-0.1230,0.2434,-1.6181,
14.807970,-0.1236,0.7004,0.0310,-1.7222,-2.7751,-1.4265,-0.1230,0.2434,-1.6181,
14.810121,-0.1236,0.7004,0.0310,-1.7222,-2.7751,-1.4265,-0.5651,-0.0506,-1.7646,
14.825008,-0.1236,0.7004,0.0310,-1.7222,-2.7751,-1.4265,-0.7718,-0.3968,-1.4418,
14.845144,-0.2746,0.7764,0.0484,-1.7222,-2.7751,-1.4265,-0.7718,-0.3968,-1.4418,
14.849264,-0.2746,0.7764,0.0484,-2.6022,-1.9941,-1.5128,-0.7718,-0.3968,-1.4418,
14.851056,-0.2746,0.7764,0.0484,-2.6022,-1.9941,-1.5128,-0.7286,-0.3835,-0.7377,
14.864853,-0.2746,0.7764,0.0484,-2.6022,-1.9941,-1.5128,-0.4906,0.0953,-0.2045,
14.885124,-0.1378,0.7385,0.0359,-2.6022,-1.9941,-1.5128,-0.4906,0.0953,-0.2045,
14.887426,-0.1378,0.7385,0.0359,-1.0928,-2.3108,-1.8687,-0.4906,0.0953,-0.2045,
14.889455,-0.1378,0.7385,0.0359,-1.0928,-2.3108,-1.8687,-0.1246,0.5912,0.1353,
14.904317,-0.1378,0.7385,0.0359,-1.0928,-2.3108,-1.8687,0.1252,0.8096,0.1726,
14.924701,-0.1268,0.9174,0.0225,-1.0928,-2.3108,-1.8687,0.1252,0.8096,0.1726,
14.926990,-0.1268,0.9174,0.0225,-0.9814,-0.5598,-1.9930,0.1252,0.8096,0.1726,
14.928913,-0.1268,0.9174,0.0225,-0.9814,-0.5598,-1.9930,0.1422,0.7217,0.2732,
14.944374,-0.1268,0.9174,0.0225,-0.9814,-0.5598,-1.9930,0.0724,0.4842,0.3963,
14.964420,-0.1251,1.1827,0.1407,-0.9814,-0.5598,-1.9930,0.0724,0.4842,0.3963,
14.967892,-0.1251,1.1827,0.1407,-1.0024,2.0186,-0.7427,0.0724,0.4842,0.3963,
14.969916,-0.1251,1.1827,0.1407,-1.0024,2.0186,-0.7427,0.0879,0.1667,0.4341,
14.984500,-0.1251,1.1827,0.1407,-1.0024,2.0186,-0.7427,0.3249,-0.2360,0.3968,
15.004362,-0.0584,1.2960,0.2814,-1.0024,2.0186,-0.7427,0.3249,-0.2360,0.3968,
15.008326,-0.0584,1.2960,0.2814,-0.5104,3.1099,0.7155,0.3249,-0.2360,0.3968,
15.009935,-0.0584,1.2960,0.2814,-0.5104,3.1099,0.7155,0.6796,-0.7627,0.3068,
15.024864,-0.0584,1.2960,0.2814,-0.5104,3.1099,0.7155,0.9209,-1.3694,0.2786,
15.044207,0.0459,1.4993,0.2966,-0.5104,3.1099,0.7155,0.9209,-1.3694,0.2786,
15.047150,0.0459,1.4993,0.2966,0.3195,5.0418,1.1734,0.9209,-1.3694,0.2786,
15.048921,0.0459,1.4993,0.2966,0.3195,5.0418,1.1734,0.9582,-1.9367,0.2184,
15.064060,0.0459,1.4993,0.2966,0.3195,5.0418,1.1734,0.6562,-2.0783,0.2445,
15.084147,0.1493,1.2872,0.3142,0.3195,5.0418,1.1734,0.6562,-2.0783,0.2445,
15.087410,0.1493,1.2872,0.3142,1.1183,2.9152,1.6770,0.6562,-2.0783,0.2445,
15.089253,0.1493,1.2872,0.3142,1.1183,2.9152,1.6770,0.2072,-1.7651,0.5987,
15.103839,0.1493,1.2872,0.3142,1.1183,2.9152,1.6770,-0.0783,-1.2037,0.8506,
15.123920,0.4322,0.9210,0.4129,1.1183,2.9152,1.6770,-0.0783,-1.2037,0.8506,
15.126228,0.4322,0.9210,0.4129,3.5293,-0.6618,2.6989,-0.0783,-1.2037,0.8506,
15.127809,0.4322,0.9210,0.4129,3.5293,-0.6618,2.6989,-0.0352,-0.4932,0.8155,
15.144494,0.4322,0.9210,0.4129,3.5293,-0.6618,2.6989,0.1965,0.1113,0.6109,
15.164185,0.3823,0.9267,0.2565,3.5293,-0.6618,2.6989,0.1965,0.1113,0.6109,
15.167491,0.3823,0.9267,0.2565,2.7549,-0.5867,1.2035,0.1965,0.1113,0.6109,
15.169225,0.3823,0.9267,0.2565,2.7549,-0.5867,1.2035,0.4618,0.5763,0.4101,
15.184313,0.3823,0.9267,0.2565,2.7549,-0.5867,1.2035,1.0083,1.5888,0.3723,
15.203786,-0.0286,1.2377,0.1121,2.7549,-0.5867,1.2035,1.0083,1.5888,0.3723,
15.206723,-0.0286,1.2377,0.1121,-1.3720,2.4425,0.0268,1.0083,1.5888,0.3723,
15.209045,-0.0286,1.2377,0.1121,-1.3720,2.4425,0.0268,1.8136,2.9726,0.5502,
15.224184,-0.0286,1.2377,0.1121,-1.3720,2.4425,0.0268,2.1375,2.9183,0.5912,
15.244133,-0.0176,0.8905,-0.0027,-1.3720,2.4425,0.0268,2.1375,2.9183,0.5912,
15.246331,-0.0176,0.8905,-0.0027,-1.3819,-0.9940,-0.4873,2.1375,2.9183,0.5912,
15.248241,-0.0176,0.8905,-0.0027,-1.3819,-0.9940,-0.4873,2.0762,2.0698,0.6328,
15.263959,-0.0176,0.8905,-0.0027,-1.3819,-0.9940,-0.4873,1.6815,0.7926,0.9800,
15.284566,-0.0559,0.7769,-0.0313,-1.3819,-0.9940,-0.4873,1.6815,0.7926,0.9800,
15.288110,-0.0559,0.7769,-0.0313,-2.0494,-2.0757,-0.1195,1.6815,0.7926,0.9800,
15.289945,-0.0559,0.7769,-0.0313,-2.0494,-2.0757,-0.1195,1.3337,0.0192,1.5643,
15.303904,-0.0559,0.7769,-0.0313,-2.0494,-2.0757,-0.1195,1.3135,0.2147,2.0789,
15.324681,0.1725,0.5656,-0.0667,-2.0494,-2.0757,-0.1195,1.3135,0.2147,2.0789,
15.327190,0.1725,0.5656,-0.0667,-0.5125,-3.9888,0.0323,1.3135,0.2147,2.0789,
15.329047,0.1725,0.5656,-0.0667,-0.5125,-3.9888,0.0323,1.2245,0.3792,2.4799,
15.343970,0.1725,0.5656,-0.0667,-0.5125,-3.9888,0.0323,1.0509,0.1800,1.5228,
15.363793,0.7244,0.6078,-0.0650,-0.5125,-3.9888,0.0323,1.0509,0.1800,1.5228,
15.366266,0.7244,0.6078,-0.0650,4.1344,-3.3280,0.4476,1.0509,0.1800,1.5228,
15.367927,0.7244,0.6078,-0.0650,4.1344,-3.3280,0.4476,1.0264,-0.1342,0.4549,
15.383597,0.7244,0.6078,-0.0650,4.1344,-3.3280,0.4476,1.0168,-0.4543,0.2407,
15.405233,0.1715,0.6826,-0.2277,4.1344,-3.3280,0.4476,1.0168,-0.4543,0.2407,
15.409014,0.1715,0.6826,-0.2277,-1.3962,-2.5009,-0.7345,1.0168,-0.4543,0.2407,
15.411037,0.1715,0.6826,-0.2277,-1.3962,-2.5009,-0.7345,0.7984,-0.4282,0.1012,
15.425412,0.1715,0.6826,-0.2277,-1.3962,-2.5009,-0.7345,0.5188,-0.0357,0.1454,
15.443914,0.2617,0.6423,-0.2656,-1.3962,-2.5009,-0.7345,0.5188,-0.0357,0.1454,
15.446352,0.2617,0.6423,-0.2656,-0.5431,-2.8377,-0.8360,0.5188,-0.0357,0.1454,
15.448379,0.2617,0.6423,-0.2656,-0.5431,-2.8377,-0.8360,0.2109,0.2301,0.2674,
15.463498,0.2617,0.6423,-0.2656,-0.5431,-2.8377,-0.8360,0.0314,0.3063,0.2338,
15.483538,0.4891,0.5849,-0.2592,-0.5431,-2.8377,-0.8360,0.0314,0.3063,0.2338,
15.486236,0.4891,0.5849,-0.2592,1.5757,-3.3601,-0.7635,0.0314,0.3063,0.2338,
