
time,gFx,gFy,gFz,ax,ay,az,wx,wy,wz,
0.020920,-0.0286,0.1945,0.9645,0.0000,0.0000,0.0000,0.0000,0.0000,0.0000,
0.023471,-0.0286,0.1945,0.9645,0.0000,0.0000,0.0000,0.0389,-0.0815,-0.1827,
0.040064,-0.0286,0.1945,0.9645,0.0000,0.0000,0.0000,0.0389,-0.0815,-0.1827,
0.059980,-0.0264,0.3034,0.8925,0.0000,0.0000,0.0000,0.0389,-0.0815,-0.1827,
0.061470,-0.0264,0.3034,0.8925,0.0158,-0.1819,-0.5350,0.0389,-0.0815,-0.1827,
0.062966,-0.0264,0.3034,0.8925,0.0158,-0.1819,-0.5350,0.0389,-0.0815,-0.1827,
0.079720,-0.0264,0.3034,0.8925,0.0158,-0.1819,-0.5350,0.0389,-0.0815,-0.1827,
0.099847,0.0237,0.2003,0.6496,0.0158,-0.1819,-0.5350,0.0389,-0.0815,-0.1827,
0.100875,0.0237,0.2003,0.6496,0.2900,-1.0999,-2.9496,0.0389,-0.0815,-0.1827,
0.101568,0.0237,0.2003,0.6496,0.2900,-1.0999,-2.9496,-0.1513,2.3654,1.7295,
0.119714,0.0237,0.2003,0.6496,0.2900,-1.0999,-2.9496,-0.8133,2.7393,1.8136,
0.139517,-0.3051,0.2226,0.7920,0.2900,-1.0999,-2.9496,-0.8133,2.7393,1.8136,
0.140796,-0.3051,0.2226,0.7920,-1.4233,-0.6703,-1.4892,-0.8133,2.7393,1.8136,
0.141824,-0.3051,0.2226,0.7920,-1.4233,-0.6703,-1.4892,-0.9694,1.9201,1.7087,
0.159456,-0.3051,0.2226,0.7920,-1.4233,-0.6703,-1.4892,-0.6924,1.1883,1.4994,
0.180373,-0.1300,0.1888,1.0574,-1.4233,-0.6703,-1.4892,-0.6924,1.1883,1.4994,
0.183288,-0.1300,0.1888,1.0574,0.1043,-0.4433,0.9277,-0.6924,1.1883,1.4994,
0.185047,-0.1300,0.1888,1.0574,0.1043,-0.4433,0.9277,-0.4650,-0.0096,1.0727,
0.200737,-0.1300,0.1888,1.0574,0.1043,-0.4433,0.9277,0.0756,-0.4362,0.5955,
0.220559,-0.5797,0.1361,0.9345,0.1043,-0.4433,0.9277,0.0756,-0.4362,0.5955,
0.223625,-0.5797,0.1361,0.9345,-2.4680,-0.4875,0.0733,0.0756,-0.4362,0.5955,
0.225403,-0.5797,0.1361,0.9345,-2.4680,-0.4875,0.0733,0.5396,-0.6695,0.9555,
0.240566,-0.5797,0.1361,0.9345,-2.4680,-0.4875,0.0733,0.1555,0.1838,1.7369,
0.260114,-0.4051,0.1483,0.8568,-2.4680,-0.4875,0.0733,0.1555,0.1838,1.7369,
0.262364,-0.4051,0.1483,0.8568,-0.3601,-0.2414,-0.5629,0.1555,0.1838,1.7369,
0.264580,-0.4051,0.1483,0.8568,-0.3601,-0.2414,-0.5629,-0.6503,0.9055,2.3787,
0.279442,-0.4051,0.1483,0.8568,-0.3601,-0.2414,-0.5629,-0.6482,0.6179,2.5769,
0.300885,-0.2091,0.3196,1.0322,-0.3601,-0.2414,-0.5629,-0.6482,0.6179,2.5769,
0.303721,-0.2091,0.3196,1.0322,0.7727,0.8936,0.9943,-0.6482,0.6179,2.5769,
0.305538,-0.2091,0.3196,1.0322,0.7727,0.8936,0.9943,-0.1220,-0.1475,2.4176,
0.320280,-0.2091,0.3196,1.0322,0.7727,0.8936,0.9943,0.1438,-0.4772,2.0831,
0.339695,-0.1116,0.2431,0.7886,0.7727,0.8936,0.9943,0.1438,-0.4772,2.0831,
0.342657,-0.1116,0.2431,0.7886,1.4010,-0.1000,-1.4248,0.1438,-0.4772,2.0831,
0.345187,-0.1116,0.2431,0.7886,1.4010,-0.1000,-1.4248,-0.1326,-0.0953,1.9233,
0.359750,-0.1116,0.2431,0.7886,1.4010,-0.1000,-1.4248,-0.4879,-0.0410,2.0570,
0.379732,-0.0024,0.2592,1.0053,1.4010,-0.1000,-1.4248,-0.4879,-0.0410,2.0570,
0.382950,-0.0024,0.2592,1.0053,2.2147,-0.0158,0.6529,-0.4879,-0.0410,2.0570,
0.384418,-0.0024,0.2592,1.0053,2.2147,-0.0158,0.6529,-0.4165,-0.3350,2.1284,
0.400797,-0.0024,0.2592,1.0053,2.2147,-0.0158,0.6529,-0.2376,-0.5119,1.9036,
0.419934,0.1937,0.3095,0.9843,2.2147,-0.0158,0.6529,-0.2376,-0.5119,1.9036,
0.422012,0.1937,0.3095,0.9843,3.6993,0.4258,0.3657,-0.2376,-0.5119,1.9036,
0.423357,0.1937,0.3095,0.9843,3.6993,0.4258,0.3657,-0.1007,-0.7350,1.6325,
0.440195,0.1937,0.3095,0.9843,3.6993,0.4258,0.3657,-0.0458,-0.8804,1.3763,
0.459632,-0.3494,0.7024,1.2919,3.6993,0.4258,0.3657,-0.0458,-0.8804,1.3763,
0.461816,-0.3494,0.7024,1.2919,-2.0815,4.2078,3.3219,-0.0458,-0.8804,1.3763,
0.463680,-0.3494,0.7024,1.2919,-2.0815,4.2078,3.3219,1.2911,-0.8698,0.5838,
0.479857,-0.3494,0.7024,1.2919,-2.0815,4.2078,3.3219,1.7454,-0.1609,1.6730,
0.499245,0.0740,0.3025,1.0065,-2.0815,4.2078,3.3219,1.7454,-0.1609,1.6730,
0.502065,0.0740,0.3025,1.0065,1.7398,-0.3228,0.6805,1.7454,-0.1609,1.6730,
0.504616,0.0740,0.3025,1.0065,1.7398,-0.3228,0.6805,1.8440,-0.2583,1.2197,
0.520358,0.0740,0.3025,1.0065,1.7398,-0.3228,0.6805,1.8381,-0.6748,1.3188,
0.540216,0.3200,0.4715,0.5375,1.7398,-0.3228,0.6805,1.8381,-0.6748,1.3188,
0.542910,0.3200,0.4715,0.5375,3.7665,0.6156,-3.6620,1.8381,-0.6748,1.3188,
0.544623,0.3200,0.4715,0.5375,3.7665,0.6156,-3.6620,1.4253,-0.5103,1.1137,
0.559313,0.3200,0.4715,0.5375,3.7665,0.6156,-3.6620,0.3265,-0.1784,0.6562,
0.579861,0.3371,0.5394,0.7732,3.7665,0.6156,-3.6620,0.3265,-0.1784,0.6562,
0.584064,0.3371,0.5394,0.7732,3.6083,0.9375,-1.2067,0.3265,-0.1784,0.6562,
0.585692,0.3371,0.5394,0.7732,3.6083,0.9375,-1.2067,-0.4522,-0.0783,0.1209,
0.599652,0.3371,0.5394,0.7732,3.6083,0.9375,-1.2067,-0.4559,-0.6333,-0.2695,
0.620000,-0.0232,0.4041,1.1285,3.6083,0.9375,-1.2067,-0.4559,-0.6333,-0.2695,
0.622034,-0.0232,0.4041,1.1285,-0.0600,-0.2285,2.1932,-0.4559,-0.6333,-0.2695,
0.624004,-0.0232,0.4041,1.1285,-0.0600,-0.2285,2.1932,0.0096,-0.8325,-0.1641,
0.640327,-0.0232,0.4041,1.1285,-0.0600,-0.2285,2.1932,0.6493,-0.8400,0.3137,
0.660197,-0.0169,0.4344,0.6943,-0.0600,-0.2285,2.1932,0.6493,-0.8400,0.3137,
0.663226,-0.0169,0.4344,0.6943,-0.3142,-0.0516,-2.0039,0.6493,-0.8400,0.3137,
0.665382,-0.0169,0.4344,0.6943,-0.3142,-0.0516,-2.0039,0.7835,-0.3478,0.8975,
0.680535,-0.0169,0.4344,0.6943,-0.3142,-0.0516,-2.0039,0.2807,-0.1886,1.1936,
0.699124,0.1610,0.4478,0.6565,-0.3142,-0.0516,-2.0039,0.2807,-0.1886,1.1936,
0.702006,0.1610,0.4478,0.6565,1.1503,-0.0939,-2.2786,0.2807,-0.1886,1.1936,
0.704428,0.1610,0.4478,0.6565,1.1503,-0.0939,-2.2786,-0.1481,-0.0831,1.0701,
0.719105,0.1610,0.4478,0.6565,1.1503,-0.0939,-2.2786,-0.7617,0.3622,1.1958,
0.739498,0.5138,0.4957,1.1910,1.1503,-0.0939,-2.2786,-0.7617,0.3622,1.1958,
0.741709,0.5138,0.4957,1.1910,4.4474,0.5572,2.8780,-0.7617,0.3622,1.1958,
0.743444,0.5138,0.4957,1.1910,4.4474,0.5572,2.8780,0.1587,-0.6477,0.7814,
0.759601,0.5138,0.4957,1.1910,4.4474,0.5572,2.8780,0.5577,0.1710,0.5108,
0.779773,0.3709,0.3398,0.8243,4.4474,0.5572,2.8780,0.5577,0.1710,0.5108,
0.782271,0.3709,0.3398,0.8243,2.7899,-1.0665,-0.6469,0.5577,0.1710,0.5108,
0.784273,0.3709,0.3398,0.8243,2.7899,-1.0665,-0.6469,0.1033,0.1071,0.3766,
0.800614,0.3709,0.3398,0.8243,2.7899,-1.0665,-0.6469,0.2876,-0.5007,0.3776,
0.819043,0.3743,0.4498,0.7657,2.7899,-1.0665,-0.6469,0.2876,-0.5007,0.3776,
0.821294,0.3743,0.4498,0.7657,2.5944,-0.0386,-1.1712,0.2876,-0.5007,0.3776,
0.823167,0.3743,0.4498,0.7657,2.5944,-0.0386,-1.1712,0.3968,-0.6637,0.4000,
0.839554,0.3743,0.4498,0.7657,2.5944,-0.0386,-1.1712,0.2306,-1.0504,-0.0559,
0.859404,0.2856,0.5934,0.8135,2.5944,-0.0386,-1.1712,0.2306,-1.0504,-0.0559,
0.861503,0.2856,0.5934,0.8135,1.3408,1.2568,-0.5867,0.2306,-1.0504,-0.0559,
0.863405,0.2856,0.5934,0.8135,1.3408,1.2568,-0.5867,0.4314,-1.3380,-0.3100,
0.879542,0.2856,0.5934,0.8135,1.3408,1.2568,-0.5867,0.8155,-2.2179,0.3286,
0.898492,0.4283,0.7635,0.7356,1.3408,1.2568,-0.5867,0.8155,-2.2179,0.3286,
0.900893,0.4283,0.7635,0.7356,2.1212,2.7023,-1.0987,0.8155,-2.2179,0.3286,
0.902491,0.4283,0.7635,0.7356,2.1212,2.7023,-1.0987,1.6874,-2.6978,0.7356,
0.918779,0.4283,0.7635,0.7356,2.1212,2.7023,-1.0987,2.3265,-2.3324,0.4266,
0.939223,0.4539,0.7490,0.5133,2.1212,2.7023,-1.0987,2.3265,-2.3324,0.4266,
0.941944,0.4539,0.7490,0.5133,1.4258,1.9482,-2.5827,2.3265,-2.3324,0.4266,
0.943812,0.4539,0.7490,0.5133,1.4258,1.9482,-2.5827,2.4155,-2.5684,0.0064,
0.959179,0.4539,0.7490,0.5133,1.4258,1.9482,-2.5827,2.4341,-3.2437,-0.0703,
0.979834,0.6147,0.7490,0.4329,1.4258,1.9482,-2.5827,2.4341,-3.2437,-0.0703,
0.982848,0.6147,0.7490,0.4329,2.1570,1.2318,-2.3833,2.4341,-3.2437,-0.0703,
0.984549,0.6147,0.7490,0.4329,2.1570,1.2318,-2.3833,2.4379,-3.1207,-0.0916,
0.998342,0.6147,0.7490,0.4329,2.1570,1.2318,-2.3833,2.4501,-2.7111,-0.0831,
1.019096,0.5871,0.7095,0.4065,2.1570,1.2318,-2.3833,2.4501,-2.7111,-0.0831,
1.022730,0.5871,0.7095,0.4065,1.1791,0.2328,-1.5015,2.4501,-2.7111,-0.0831,
1.024692,0.5871,0.7095,0.4065,1.1791,0.2328,-1.5015,2.5167,-2.7393,-0.1071,
1.038741,0.5871,0.7095,0.4065,1.1791,0.2328,-1.5015,2.4703,-2.8373,-0.2594,
1.058652,0.6345,0.5612,0.3677,1.1791,0.2328,-1.5015,2.4703,-2.8373,-0.2594,
1.061175,0.6345,0.5612,0.3677,1.1304,-1.7221,-0.6557,2.4703,-2.8373,-0.2594,
1.063241,0.6345,0.5612,0.3677,1.1304,-1.7221,-0.6557,2.3430,-2.5044,-0.4075,
1.079095,0.6345,0.5612,0.3677,1.1304,-1.7221,-0.6557,2.2930,-2.0341,-0.4565,
1.098226,0.7332,0.6919,0.4292,1.1304,-1.7221,-0.6557,2.2930,-2.0341,-0.4565,
1.100935,0.7332,0.6919,0.4292,1.8606,-0.8355,1.0730,2.2930,-2.0341,-0.4565,
1.102869,0.7332,0.6919,0.4292,1.8606,-0.8355,1.0730,2.0869,-1.5942,-0.5017,
1.119226,0.7332,0.6919,0.4292,1.8606,-0.8355,1.0730,1.7753,-1.5606,-0.5683,
1.138238,0.7266,0.5514,0.2626,1.8606,-0.8355,1.0730,1.7753,-1.5606,-0.5683,
1.141197,0.7266,0.5514,0.2626,1.7453,-2.4859,0.3303,1.7753,-1.5606,-0.5683,
1.142782,0.7266,0.5514,0.2626,1.7453,-2.4859,0.3303,1.2927,-1.3502,-0.5380,
1.158851,0.7266,0.5514,0.2626,1.7453,-2.4859,0.3303,0.8554,-1.1318,-0.4922,
1.178725,0.6855,0.6386,0.2382,1.7453,-2.4859,0.3303,0.8554,-1.1318,-0.4922,
1.181787,0.6855,0.6386,0.2382,1.3661,-1.7864,0.6590,0.8554,-1.1318,-0.4922,
1.184313,0.6855,0.6386,0.2382,1.3661,-1.7864,0.6590,0.6674,-1.0674,-0.4613,
1.197970,0.6855,0.6386,0.2382,1.3661,-1.7864,0.6590,0.5790,-1.0621,-0.4378,
1.218689,0.5954,0.6218,0.1693,1.3661,-1.7864,0.6590,0.5790,-1.0621,-0.4378,
1.220964,0.5954,0.6218,0.1693,0.5465,-2.0680,0.3940,0.5790,-1.0621,-0.4378,
1.222487,0.5954,0.6218,0.1693,0.5465,-2.0680,0.3940,0.4687,-0.9811,-0.3009,
1.238343,0.5954,0.6218,0.1693,0.5465,-2.0680,0.3940,0.3318,-0.9518,-0.1625,
1.258149,0.6205,0.6266,0.0821,0.5465,-2.0680,0.3940,0.3318,-0.9518,-0.1625,
1.261160,0.6205,0.6266,0.0821,0.8218,-2.0830,-0.1291,0.3318,-0.9518,-0.1625,
1.263037,0.6205,0.6266,0.0821,0.8218,-2.0830,-0.1291,0.2338,-0.8629,-0.0341,
1.279343,0.6205,0.6266,0.0821,0.8218,-2.0830,-0.1291,0.2653,-0.8234,0.0842,
1.299016,0.6430,0.6970,0.0144,0.8218,-2.0830,-0.1291,0.2653,-0.8234,0.0842,
1.301226,0.6430,0.6970,0.0144,0.9933,-1.3872,-0.5368,0.2653,-0.8234,0.0842,
1.303140,0.6430,0.6970,0.0144,0.9933,-1.3872,-0.5368,0.3595,-0.6461,0.1811,
1.318002,0.6430,0.6970,0.0144,0.9933,-1.3872,-0.5368,0.4000,-0.3878,0.1806,
1.337993,0.5565,0.8790,-0.0447,0.9933,-1.3872,-0.5368,0.4000,-0.3878,0.1806,
1.340830,0.5565,0.8790,-0.0447,0.0550,0.4397,-0.8813,0.4000,-0.3878,0.1806,
1.342796,0.5565,0.8790,-0.0447,0.0550,0.4397,-0.8813,0.4692,-0.4256,0.1577,
1.357785,0.5565,0.8790,-0.0447,0.0550,0.4397,-0.8813,0.6301,-0.5401,0.2216,
1.378778,0.4727,1.0129,-0.0432,0.0550,0.4397,-0.8813,0.6301,-0.5401,0.2216,
1.380867,0.4727,1.0129,-0.0432,-0.8277,1.7821,-0.5806,0.6301,-0.5401,0.2216,
1.382929,0.4727,1.0129,-0.0432,-0.8277,1.7821,-0.5806,0.8826,-0.8128,0.3462,
1.398200,0.4727,1.0129,-0.0432,-0.8277,1.7821,-0.5806,1.1622,-1.0578,0.4362,
1.418580,0.5494,1.1580,-0.0198,-0.8277,1.7821,-0.5806,1.1622,-1.0578,0.4362,
1.421314,0.5494,1.1580,-0.0198,-0.1985,3.2952,0.1867,1.1622,-1.0578,0.4362,
1.423115,0.5494,1.1580,-0.0198,-0.1985,3.2952,0.1867,1.4392,-1.0509,0.4389,
1.437837,0.5494,1.1580,-0.0198,-0.1985,3.2952,0.1867,1.7369,-1.1356,0.3680,
1.457853,0.4649,1.0520,0.0748,-0.1985,3.2952,0.1867,1.7369,-1.1356,0.3680,
1.460846,0.4649,1.0520,0.0748,-1.1225,2.3943,1.8613,1.7369,-1.1356,0.3680,
1.462424,0.4649,1.0520,0.0748,-1.1225,2.3943,1.8613,1.9196,-1.4626,0.2850,
1.477752,0.4649,1.0520,0.0748,-1.1225,2.3943,1.8613,1.7891,-1.3822,0.1641,
1.497282,0.7092,0.8370,0.0027,-1.1225,2.3943,1.8613,1.7891,-1.3822,0.1641,
1.499888,0.7092,0.8370,0.0027,1.2912,0.4555,2.0579,1.7891,-1.3822,0.1641,
1.501378,0.7092,0.8370,0.0027,1.2912,0.4555,2.0579,1.4424,-0.9103,-0.1273,
1.517242,0.7092,0.8370,0.0027,1.2912,0.4555,2.0579,0.9545,-0.2839,-0.5060,
1.538093,0.7476,0.5199,-0.0440,1.2912,0.4555,2.0579,0.9545,-0.2839,-0.5060,
1.540085,0.7476,0.5199,-0.0440,1.7796,-2.6111,2.0231,0.9545,-0.2839,-0.5060,
1.541771,0.7476,0.5199,-0.0440,1.7796,-2.6111,2.0231,0.3510,0.2972,-0.7137,
1.557911,0.7476,0.5199,-0.0440,1.7796,-2.6111,2.0231,-0.1582,0.7116,-0.6786,
1.578759,0.6393,0.6662,0.0811,1.7796,-2.6111,2.0231,-0.1582,0.7116,-0.6786,
1.581305,0.6393,0.6662,0.0811,0.8529,-1.3139,3.1104,-0.1582,0.7116,-0.6786,
1.582996,0.6393,0.6662,0.0811,0.8529,-1.3139,3.1104,-0.4708,0.7569,-0.6205,
1.597634,0.6393,0.6662,0.0811,0.8529,-1.3139,3.1104,-0.7031,0.7707,-0.6168,
1.618363,0.6623,0.6643,-0.0415,0.8529,-1.3139,3.1104,-0.7031,0.7707,-0.6168,
1.621432,0.6623,0.6643,-0.0415,1.1743,-1.5021,1.5203,-0.7031,0.7707,-0.6168,
1.623567,0.6623,0.6643,-0.0415,1.1743,-1.5021,1.5203,-1.2192,0.8080,-0.6839,
1.638183,0.6623,0.6643,-0.0415,1.1743,-1.5021,1.5203,-1.8903,0.8208,-0.7260,
1.657976,0.6193,0.7600,-0.1019,1.1743,-1.5021,1.5203,-1.8903,0.8208,-0.7260,
1.660714,0.6193,0.7600,-0.1019,0.8911,-0.7883,0.2319,-1.8903,0.8208,-0.7260,
1.662359,0.6193,0.7600,-0.1019,0.8911,-0.7883,0.2319,-2.4698,0.8464,-0.7803,
1.678742,0.6193,0.7600,-0.1019,0.8911,-0.7883,0.2319,-2.8506,0.7643,-0.7952,
1.697653,0.6645,0.7613,-0.3271,0.8911,-0.7883,0.2319,-2.8506,0.7643,-0.7952,
1.700184,0.6645,0.7613,-0.3271,1.5099,-0.9711,-2.9672,-2.8506,0.7643,-0.7952,
1.702302,0.6645,0.7613,-0.3271,1.5099,-0.9711,-2.9672,-3.1889,0.7031,-0.6386,
1.717016,0.6645,0.7613,-0.3271,1.5099,-0.9711,-2.9672,-3.3881,0.8495,-0.4016,
1.737545,0.7981,0.5971,-0.4827,1.5099,-0.9711,-2.9672,-3.3881,0.8495,-0.4016,
1.739665,0.7981,0.5971,-0.4827,2.9716,-2.6166,-5.6995,-3.3881,0.8495,-0.4016,
1.741573,0.7981,0.5971,-0.4827,2.9716,-2.6166,-5.6995,-3.4041,1.0514,-0.1795,
1.757590,0.7981,0.5971,-0.4827,2.9716,-2.6166,-5.6995,-2.9748,0.8725,0.2003,
1.778697,0.7715,0.6630,-0.4307,2.9716,-2.6166,-5.6995,-2.9748,0.8725,0.2003,
1.781159,0.7715,0.6630,-0.4307,2.7494,-1.7622,-6.4099,-2.9748,0.8725,0.2003,
1.782996,0.7715,0.6630,-0.4307,2.7494,-1.7622,-6.4099,-1.2309,0.7302,0.6967,
1.797431,0.7715,0.6630,-0.4307,2.7494,-1.7622,-6.4099,0.0575,1.1015,1.0120,
1.817173,0.7486,0.6435,-0.5020,2.7494,-1.7622,-6.4099,0.0575,1.1015,1.0120,
1.819993,0.7486,0.6435,-0.5020,2.3259,-1.7315,-7.4625,0.0575,1.1015,1.0120,
1.821725,0.7486,0.6435,-0.5020,2.3259,-1.7315,-7.4625,0.4863,1.0099,1.2661,
1.837553,0.7486,0.6435,-0.5020,2.3259,-1.7315,-7.4625,0.8613,0.6930,1.6139,
1.857166,0.6943,0.4329,-0.1998,2.3259,-1.7315,-7.4625,0.8613,0.6930,1.6139,
1.859720,0.6943,0.4329,-0.1998,1.3921,-3.5607,-4.4053,0.8613,0.6930,1.6139,
1.861705,0.6943,0.4329,-0.1998,1.3921,-3.5607,-4.4053,1.3699,0.4378,1.7817,
1.877465,0.6943,0.4329,-0.1998,1.3921,-3.5607,-4.4053,1.8967,0.2972,1.6261,
1.897329,0.5790,0.4867,-0.3252,1.3921,-3.5607,-4.4053,1.8967,0.2972,1.6261,
1.899453,0.5790,0.4867,-0.3252,-0.2298,-2.7948,-5.2110,1.8967,0.2972,1.6261,
1.901442,0.5790,0.4867,-0.3252,-0.2298,-2.7948,-5.2110,1.9601,0.5992,1.4541,
1.916993,0.5790,0.4867,-0.3252,-0.2298,-2.7948,-5.2110,1.3944,0.6019,1.1617,
1.937343,0.3977,0.7654,0.1798,-0.2298,-2.7948,-5.2110,1.3944,0.6019,1.1617,
1.939782,0.3977,0.7654,0.1798,-2.3528,0.1313,0.0926,1.3944,0.6019,1.1617,
1.941573,0.3977,0.7654,0.1798,-2.3528,0.1313,0.0926,1.0418,-0.1949,0.7606,
1.957541,0.3977,0.7654,0.1798,-2.3528,0.1313,0.0926,1.0535,-1.2485,0.0293,
1.976860,0.4786,0.6560,0.1055,-2.3528,0.1313,0.0926,1.0535,-1.2485,0.0293,
1.978944,0.4786,0.6560,0.1055,-1.7164,-0.9017,-0.1461,1.0535,-1.2485,0.0293,
1.980906,0.4786,0.6560,0.1055,-1.7164,-0.9017,-0.1461,1.1675,-1.4173,-0.8005,
1.997233,0.4786,0.6560,0.1055,-1.7164,-0.9017,-0.1461,1.2240,-1.1478,-1.3071,
2.016691,0.6672,0.4610,0.0286,-1.7164,-0.9017,-0.1461,1.2240,-1.1478,-1.3071,
2.020421,0.6672,0.4610,0.0286,0.4031,-3.1160,-0.2207,1.2240,-1.1478,-1.3071,
2.022659,0.6672,0.4610,0.0286,0.4031,-3.1160,-0.2207,1.1478,-1.4408,-1.8919,
2.036560,0.6672,0.4610,0.0286,0.4031,-3.1160,-0.2207,1.3119,-1.1595,-3.2842,
2.057000,0.2140,0.2074,-0.0914,0.4031,-3.1160,-0.2207,1.3119,-1.1595,-3.2842,
2.060175,0.2140,0.2074,-0.0914,-3.2282,-6.1998,-0.7061,1.3119,-1.1595,-3.2842,
2.062205,0.2140,0.2074,-0.0914,-3.2282,-6.1998,-0.7061,1.4573,-1.3103,-4.3047,
2.077224,0.2140,0.2074,-0.0914,-3.2282,-6.1998,-0.7061,1.4978,-0.1933,-4.6291,
2.097474,0.1984,0.3083,-0.7862,-3.2282,-6.1998,-0.7061,1.4978,-0.1933,-4.6291,
2.100722,0.1984,0.3083,-0.7862,-1.8234,-5.9930,-6.8579,1.4978,-0.1933,-4.6291,
2.103179,0.1984,0.3083,-0.7862,-1.8234,-5.9930,-6.8579,1.2373,0.7867,-4.8565,
2.117069,0.1984,0.3083,-0.7862,-1.8234,-5.9930,-6.8579,-0.0325,3.1990,-4.2701,
2.136670,0.0657,0.2697,-0.1182,-1.8234,-5.9930,-6.8579,-0.0325,3.1990,-4.2701,
2.139907,0.0657,0.2697,-0.1182,-1.4961,-6.8886,-0.3009,-0.0325,3.1990,-4.2701,
2.142307,0.0657,0.2697,-0.1182,-1.4961,-6.8886,-0.3009,-0.5923,5.2693,-3.7220,
2.156803,0.0657,0.2697,-0.1182,-1.4961,-6.8886,-0.3009,0.3031,5.2491,-2.8198,
2.178260,0.7305,3.5698,-0.5678,-1.4961,-6.8886,-0.3009,0.3031,5.2491,-2.8198,
2.182086,0.7305,3.5698,-0.5678,6.1503,25.2412,-5.0840,0.3031,5.2491,-2.8198,
2.184721,0.7305,3.5698,-0.5678,6.1503,25.2412,-5.0840,1.4946,4.7159,-1.4642,
2.200031,0.7305,3.5698,-0.5678,6.1503,25.2412,-5.0840,1.2607,1.6927,-3.9979,
2.217089,-1.1810,1.5120,-0.5558,6.1503,25.2412,-5.0840,1.2607,1.6927,-3.9979,
2.220399,-1.1810,1.5120,-0.5558,-11.6029,5.0542,-4.5285,1.2607,1.6927,-3.9979,
2.222204,-1.1810,1.5120,-0.5558,-11.6029,5.0542,-4.5285,0.1214,2.1502,-2.7931,
2.236917,-1.1810,1.5120,-0.5558,-11.6029,5.0542,-4.5285,-0.0783,2.8767,-0.6013,
2.256741,-0.2458,0.5507,-0.1263,-11.6029,5.0542,-4.5285,-0.0783,2.8767,-0.6013,
2.259429,-0.2458,0.5507,-0.1263,-1.8697,-4.3476,-0.2721,-0.0783,2.8767,-0.6013,
2.261487,-0.2458,0.5507,-0.1263,-1.8697,-4.3476,-0.2721,-0.1135,2.8347,0.5241,
2.276549,-0.2458,0.5507,-0.1263,-1.8697,-4.3476,-0.2721,-0.1172,2.2280,0.6653,
2.297238,0.0970,0.6330,-0.2150,-1.8697,-4.3476,-0.2721,-0.1172,2.2280,0.6653,
2.299820,0.0970,0.6330,-0.2150,1.1869,-3.5474,-1.0885,-0.1172,2.2280,0.6653,
2.301717,0.0970,0.6330,-0.2150,1.1869,-3.5474,-1.0885,-0.3089,1.2906,0.4011,
2.316798,0.0970,0.6330,-0.2150,1.1869,-3.5474,-1.0885,-0.6269,0.2818,-0.0751,
2.337200,0.0239,0.9027,-0.2062,1.1869,-3.5474,-1.0885,-0.6269,0.2818,-0.0751,
2.339444,0.0239,0.9027,-0.2062,0.3843,-0.9195,-1.1420,-0.6269,0.2818,-0.0751,
2.341271,0.0239,0.9027,-0.2062,0.3843,-0.9195,-1.1420,-0.7872,-0.2791,-0.3894,
2.357214,0.0239,0.9027,-0.2062,0.3843,-0.9195,-1.1420,-0.8277,-0.2450,-0.4517,
2.376760,-0.0066,1.0566,-0.1461,0.3843,-0.9195,-1.1420,-0.8277,-0.2450,-0.4517,
2.378880,-0.0066,1.0566,-0.1461,0.2567,0.5729,-0.8152,-0.8277,-0.2450,-0.4517,
2.380621,-0.0066,1.0566,-0.1461,0.2567,0.5729,-0.8152,-0.7771,0.0229,-0.4421,
2.396233,-0.0066,1.0566,-0.1461,0.2567,0.5729,-0.8152,-0.5124,0.1811,-0.3878,
2.416229,0.0401,1.0388,0.0594,0.2567,0.5729,-0.8152,-0.5124,0.1811,-0.3878,
2.419011,0.0401,1.0388,0.0594,0.8565,0.3921,0.9673,-0.5124,0.1811,-0.3878,
2.420435,0.0401,1.0388,0.0594,0.8565,0.3921,0.9673,-0.0895,0.2354,-0.3585,
2.436151,0.0401,1.0388,0.0594,0.8565,0.3921,0.9673,0.2993,-0.0767,-0.3329,
2.456463,0.0706,1.0317,0.0366,0.8565,0.3921,0.9673,0.2993,-0.0767,-0.3329,
2.459175,0.0706,1.0317,0.0366,1.2599,0.3298,0.7842,0.2993,-0.0767,-0.3329,
2.460889,0.0706,1.0317,0.0366,1.2599,0.3298,0.7842,0.5422,-0.6887,-0.1507,
2.477309,0.0706,1.0317,0.0366,1.2599,0.3298,0.7842,0.6210,-1.3705,0.0527,
2.496875,0.1578,1.0730,-0.0687,1.2599,0.3298,0.7842,0.6210,-1.3705,0.0527,
2.498765,0.1578,1.0730,-0.0687,2.1252,0.7457,-0.0485,0.6210,-1.3705,0.0527,
2.500510,0.1578,1.0730,-0.0687,2.1252,0.7457,-0.0485,0.5992,-1.9121,0.2232,
2.516795,0.1578,1.0730,-0.0687,2.1252,0.7457,-0.0485,0.5369,-2.2456,0.2983,
2.537152,0.3051,1.0444,-0.1568,2.1252,0.7457,-0.0485,0.5369,-2.2456,0.2983,
2.539266,0.3051,1.0444,-0.1568,3.4930,0.4743,-0.7360,0.5369,-2.2456,0.2983,
2.540980,0.3051,1.0444,-0.1568,3.4930,0.4743,-0.7360,0.4708,-2.4176,0.2727,
2.556770,0.3051,1.0444,-0.1568,3.4930,0.4743,-0.7360,0.3925,-2.4251,0.2051,
2.577026,0.4273,1.0122,-0.3046,3.4930,0.4743,-0.7360,0.3925,-2.4251,0.2051,
2.580563,0.4273,1.0122,-0.3046,4.6655,0.1680,-2.0597,0.3925,-2.4251,0.2051,
2.582471,0.4273,1.0122,-0.3046,4.6655,0.1680,-2.0597,0.2871,-2.1715,0.1731,
2.596080,0.4273,1.0122,-0.3046,4.6655,0.1680,-2.0597,0.0202,-1.6213,-0.0208,
2.616375,0.5414,1.0337,-0.3965,4.6655,0.1680,-2.0597,0.0202,-1.6213,-0.0208,
2.620036,0.5414,1.0337,-0.3965,5.8255,0.3831,-2.9371,0.0202,-1.6213,-0.0208,
2.621985,0.5414,1.0337,-0.3965,5.8255,0.3831,-2.9371,-0.2599,-0.8511,-0.2663,
2.635435,0.5414,1.0337,-0.3965,5.8255,0.3831,-2.9371,-0.4336,-0.1470,-0.5049,
2.655651,0.4671,1.0046,-0.3484,5.8255,0.3831,-2.9371,-0.4336,-0.1470,-0.5049,
2.657273,0.4671,1.0046,-0.3484,5.2655,0.0954,-2.6114,-0.4336,-0.1470,-0.5049,
2.658264,0.4671,1.0046,-0.3484,5.2655,0.0954,-2.6114,-0.5268,0.2924,-0.6200,
2.676804,0.4671,1.0046,-0.3484,5.2655,0.0954,-2.6114,-0.5236,0.5827,-0.5262,
2.695827,0.3772,1.0217,-0.2995,5.2655,0.0954,-2.6114,-0.5236,0.5827,-0.5262,
2.698082,0.3772,1.0217,-0.2995,4.5959,0.2664,-2.3230,-0.5236,0.5827,-0.5262,
2.699757,0.3772,1.0217,-0.2995,4.5959,0.2664,-2.3230,-0.4048,0.8341,-0.3281,
2.715590,0.3772,1.0217,-0.2995,4.5959,0.2664,-2.3230,-0.1886,1.0578,-0.1433,
2.736240,0.4268,1.1824,-0.3862,4.5959,0.2664,-2.3230,-0.1886,1.0578,-0.1433,
2.738800,0.4268,1.1824,-0.3862,5.1526,1.8439,-3.2528,-0.1886,1.0578,-0.1433,
2.740534,0.4268,1.1824,-0.3862,5.1526,1.8439,-3.2528,0.1060,1.5127,0.0133,
2.755937,0.4268,1.1824,-0.3862,5.1526,1.8439,-3.2528,0.6269,2.6365,-0.0730,
2.777239,0.2467,1.0429,-0.3442,5.1526,1.8439,-3.2528,0.6269,2.6365,-0.0730,
2.779420,0.2467,1.0429,-0.3442,3.3477,0.4874,-2.6203,0.6269,2.6365,-0.0730,
2.781218,0.2467,1.0429,-0.3442,3.3477,0.4874,-2.6203,1.1798,3.6869,-0.2253,
2.796295,0.2467,1.0429,-0.3442,3.3477,0.4874,-2.6203,1.1782,2.6136,0.1704,
2.816308,0.1427,0.8358,-0.1498,3.3477,0.4874,-2.6203,1.1782,2.6136,0.1704,
2.818691,0.1427,0.8358,-0.1498,2.1520,-1.4940,-0.1219,1.1782,2.6136,0.1704,
2.820460,0.1427,0.8358,-0.1498,2.1520,-1.4940,-0.1219,1.0967,1.5313,0.4330,
2.837597,0.1427,0.8358,-0.1498,2.1520,-1.4940,-0.1219,1.0701,1.0397,0.7297,
2.856495,0.1461,0.9914,-0.2463,2.1520,-1.4940,-0.1219,1.0701,1.0397,0.7297,
2.858752,0.1461,0.9914,-0.2463,1.8195,0.0859,-0.6004,1.0701,1.0397,0.7297,
2.860504,0.1461,0.9914,-0.2463,1.8195,0.0859,-0.6004,0.9614,1.2091,0.9683,
2.876203,0.1461,0.9914,-0.2463,1.8195,0.0859,-0.6004,0.8490,1.7817,0.6882,
2.895876,0.2118,1.3109,-0.1258,1.8195,0.0859,-0.6004,0.8490,1.7817,0.6882,
2.898371,0.2118,1.3109,-0.1258,2.0257,3.2835,0.9354,0.8490,1.7817,0.6882,
2.900320,0.2118,1.3109,-0.1258,2.0257,3.2835,0.9354,0.9023,2.3766,-0.1683,
2.915865,0.2118,1.3109,-0.1258,2.0257,3.2835,0.9354,0.9433,3.2858,-1.0482,
2.936296,-0.2639,1.2132,-0.1434,2.0257,3.2835,0.9354,0.9433,3.2858,-1.0482,
2.939174,-0.2639,1.2132,-0.1434,-2.6714,2.4095,1.1026,0.9433,3.2858,-1.0482,
2.940829,-0.2639,1.2132,-0.1434,-2.6714,2.4095,1.1026,0.9923,3.8898,-1.6954,
2.955710,-0.2639,1.2132,-0.1434,-2.6714,2.4095,1.1026,1.0322,3.6123,-1.8504,
2.977817,-0.7527,0.9142,-0.2905,-2.6714,2.4095,1.1026,1.0322,3.6123,-1.8504,
2.981552,-0.7527,0.9142,-0.2905,-7.1981,-0.4087,0.0486,1.0322,3.6123,-1.8504,
2.984124,-0.7527,0.9142,-0.2905,-7.1981,-0.4087,0.0486,0.8815,2.3702,-1.7193,
2.995921,-0.7527,0.9142,-0.2905,-7.1981,-0.4087,0.0486,0.6908,0.5076,-1.5643,
3.015546,-0.9748,0.5253,-0.3423,-7.1981,-0.4087,0.0486,0.6908,0.5076,-1.5643,
3.017948,-0.9748,0.5253,-0.3423,-8.8988,-4.0979,-0.1505,0.6908,0.5076,-1.5643,
3.020058,-0.9748,0.5253,-0.3423,-8.8988,-4.0979,-0.1505,0.2589,-0.4788,-0.3510,
3.036161,-0.9748,0.5253,-0.3423,-8.8988,-4.0979,-0.1505,0.0607,-1.0818,0.6216,
3.055987,-0.2143,0.4845,-0.1820,-8.8988,-4.0979,-0.1505,0.0607,-1.0818,0.6216,
3.058241,-0.2143,0.4845,-0.1820,-1.3939,-4.4812,1.4568,0.0607,-1.0818,0.6216,
3.060159,-0.2143,0.4845,-0.1820,-1.3939,-4.4812,1.4568,0.1156,-1.4157,0.6839,
3.075302,-0.2143,0.4845,-0.1820,-1.3939,-4.4812,1.4568,0.1268,-1.6666,0.8426,
3.095488,-0.0892,0.6652,-0.3279,-1.3939,-4.4812,1.4568,0.1268,-1.6666,0.8426,
3.098320,-0.0892,0.6652,-0.3279,-0.2502,-2.7141,0.0311,0.1268,-1.6666,0.8426,
3.100484,-0.0892,0.6652,-0.3279,-0.2502,-2.7141,0.0311,0.0447,-1.8418,1.1244,
3.115648,-0.0892,0.6652,-0.3279,-0.2502,-2.7141,0.0311,-0.0644,-2.0032,1.1494,
3.135311,0.2597,0.8240,-0.3765,-0.2502,-2.7141,0.0311,-0.0644,-2.0032,1.1494,
3.137425,0.2597,0.8240,-0.3765,2.9967,-1.1834,-0.4899,-0.0644,-2.0032,1.1494,
3.139398,0.2597,0.8240,-0.3765,2.9967,-1.1834,-0.4899,-0.1875,-2.4064,0.8016,
3.155675,0.2597,0.8240,-0.3765,2.9967,-1.1834,-0.4899,-0.2589,-2.9481,0.4613,
3.175826,0.1957,0.8636,-0.4622,2.9967,-1.1834,-0.4899,-0.2589,-2.9481,0.4613,
3.178051,0.1957,0.8636,-0.4622,2.4704,-0.8352,-1.4641,-0.2589,-2.9481,0.4613,
3.180059,0.1957,0.8636,-0.4622,2.4704,-0.8352,-1.4641,-0.2866,-3.1542,0.5268,
3.195297,0.1957,0.8636,-0.4622,2.4704,-0.8352,-1.4641,-0.3356,-3.1079,0.8474,
3.216394,0.2182,0.7625,-0.5231,2.4704,-0.8352,-1.4641,-0.3356,-3.1079,0.8474,
3.219374,0.2182,0.7625,-0.5231,2.8046,-1.8800,-2.2520,-0.3356,-3.1079,0.8474,
3.221500,0.2182,0.7625,-0.5231,2.8046,-1.8800,-2.2520,-0.4730,-3.2709,0.9779,
3.235713,0.2182,0.7625,-0.5231,2.8046,-1.8800,-2.2520,-0.4895,-3.0488,1.1478,
3.255326,0.1722,0.6758,-0.3621,2.8046,-1.8800,-2.2520,-0.4895,-3.0488,1.1478,
3.258491,0.1722,0.6758,-0.3621,2.3023,-2.8104,-0.9374,-0.4895,-3.0488,1.1478,
3.260434,0.1722,0.6758,-0.3621,2.3023,-2.8104,-0.9374,-0.3382,-2.0879,1.4024,
3.275423,0.1722,0.6758,-0.3621,2.3023,-2.8104,-0.9374,-0.3419,-1.2533,1.3412,
3.295548,0.2130,0.6753,-0.2868,2.3023,-2.8104,-0.9374,-0.3419,-1.2533,1.3412,
3.297732,0.2130,0.6753,-0.2868,2.3534,-2.8741,-0.3598,-0.3419,-1.2533,1.3412,
3.299708,0.2130,0.6753,-0.2868,2.3534,-2.8741,-0.3598,-0.4368,-0.8538,1.1478,
3.315563,0.2130,0.6753,-0.2868,2.3534,-2.8741,-0.3598,-0.4682,-0.7942,1.0008,
3.335045,0.0799,0.6899,-0.1962,2.3534,-2.8741,-0.3598,-0.4682,-0.7942,1.0008,
3.337871,0.0799,0.6899,-0.1962,0.7178,-2.7775,0.3531,-0.4682,-0.7942,1.0008,
3.339920,0.0799,0.6899,-0.1962,0.7178,-2.7775,0.3531,-0.4085,-0.7894,0.9523,
3.355229,0.0799,0.6899,-0.1962,0.7178,-2.7775,0.3531,-0.3111,-0.7366,0.9215,
3.375568,0.0581,0.6506,-0.1358,0.7178,-2.7775,0.3531,-0.3111,-0.7366,0.9215,
3.379234,0.0581,0.6506,-0.1358,0.2144,-3.1869,0.8135,-0.3111,-0.7366,0.9215,
3.381038,0.0581,0.6506,-0.1358,0.2144,-3.1869,0.8135,-0.1891,-0.6631,0.8703,
3.395139,0.0581,0.6506,-0.1358,0.2144,-3.1869,0.8135,-0.0080,-0.4980,0.7670,
3.415933,0.1615,1.0889,-0.2538,0.2144,-3.1869,0.8135,-0.0080,-0.4980,0.7670,
3.418198,0.1615,1.0889,-0.2538,0.9639,1.1158,-0.3696,-0.0080,-0.4980,0.7670,
3.419980,0.1615,1.0889,-0.2538,0.9639,1.1158,-0.3696,0.1550,-0.2104,0.5257,
3.434976,0.1615,1.0889,-0.2538,0.9639,1.1158,-0.3696,0.2780,0.3025,0.2051,
3.455775,0.2915,2.2391,-0.4989,0.9639,1.1158,-0.3696,0.2780,0.3025,0.2051,
3.459466,0.2915,2.2391,-0.4989,2.0931,12.4164,-2.6903,0.2780,0.3025,0.2051,
3.461544,0.2915,2.2391,-0.4989,2.0931,12.4164,-2.6903,0.3201,0.8448,-0.2562,
3.474824,0.2915,2.2391,-0.4989,2.0931,12.4164,-2.6903,0.5619,1.1755,-0.7068,
3.495310,-0.0941,1.6970,-0.2245,2.0931,12.4164,-2.6903,0.5619,1.1755,-0.7068,
3.498455,-0.0941,1.6970,-0.2245,-1.5944,7.1295,0.1357,0.5619,1.1755,-0.7068,
3.501025,-0.0941,1.6970,-0.2245,-1.5944,7.1295,0.1357,0.9278,1.5169,-0.3744,
3.514860,-0.0941,1.6970,-0.2245,-1.5944,7.1295,0.1357,1.0770,1.6245,0.1619,
3.535123,0.1671,0.9479,-0.1647,-1.5944,7.1295,0.1357,1.0770,1.6245,0.1619,
3.539343,0.1671,0.9479,-0.1647,0.8467,-0.1122,1.0609,1.0770,1.6245,0.1619,
3.541452,0.1671,0.9479,-0.1647,0.8467,-0.1122,1.0609,1.0051,1.2847,0.1220,
3.555111,0.1671,0.9479,-0.1647,0.8467,-0.1122,1.0609,0.9374,0.9135,-0.0075,
3.575419,0.0972,0.8521,-0.2179,0.8467,-0.1122,1.0609,0.9374,0.9135,-0.0075,
3.577719,0.0972,0.8521,-0.2179,0.0185,-0.9400,0.8602,0.9374,0.9135,-0.0075,
3.579544,0.0972,0.8521,-0.2179,0.0185,-0.9400,0.8602,0.9033,0.7558,-0.1459,
3.594810,0.0972,0.8521,-0.2179,0.0185,-0.9400,0.8602,0.8378,0.9758,-0.3238,
3.614319,0.0073,0.6775,-0.2035,0.0185,-0.9400,0.8602,0.8378,0.9758,-0.3238,
3.616612,0.0073,0.6775,-0.2035,-0.8796,-2.5591,1.2703,0.8378,0.9758,-0.3238,
3.617813,0.0073,0.6775,-0.2035,-0.8796,-2.5591,1.2703,0.8043,1.4546,-0.3952,
3.634760,0.0073,0.6775,-0.2035,-0.8796,-2.5591,1.2703,0.8069,1.8035,-0.4277,
3.654824,0.0491,0.5470,-0.1825,-0.8796,-2.5591,1.2703,0.8069,1.8035,-0.4277,
3.657825,0.0491,0.5470,-0.1825,-0.5401,-3.7451,1.7063,0.8069,1.8035,-0.4277,
3.659793,0.0491,0.5470,-0.1825,-0.5401,-3.7451,1.7063,0.8165,1.9398,-0.4799,
3.674887,0.0491,0.5470,-0.1825,-0.5401,-3.7451,1.7063,0.8117,1.9430,-0.4996,
3.694982,0.0792,0.4471,-0.1815,-0.5401,-3.7451,1.7063,0.8117,1.9430,-0.4996,
3.697261,0.0792,0.4471,-0.1815,-0.3483,-4.6277,1.9283,0.8117,1.9430,-0.4996,
3.699173,0.0792,0.4471,-0.1815,-0.3483,-4.6277,1.9283,0.7952,1.8845,-0.5028,
3.715232,0.0792,0.4471,-0.1815,-0.3483,-4.6277,1.9283,0.7494,1.8466,-0.6104,
3.734482,0.1393,0.4747,-0.1945,-0.3483,-4.6277,1.9283,0.7494,1.8466,-0.6104,
3.737341,0.1393,0.4747,-0.1945,0.1564,-4.2657,1.9912,0.7494,1.8466,-0.6104,
3.739430,0.1393,0.4747,-0.1945,0.1564,-4.2657,1.9912,0.7159,1.7603,-0.7393,
3.754602,0.1393,0.4747,-0.1945,0.1564,-4.2657,1.9912,0.7212,1.6661,-0.8618,
3.774743,0.1903,0.7476,-0.2531,0.1564,-4.2657,1.9912,0.7212,1.6661,-0.8618,
3.777161,0.1903,0.7476,-0.2531,0.6683,-1.5160,1.5882,0.7212,1.6661,-0.8618,
3.778722,0.1903,0.7476,-0.2531,0.6683,-1.5160,1.5882,0.7388,1.4791,-0.9673,
3.794013,0.1903,0.7476,-0.2531,0.6683,-1.5160,1.5882,0.6924,1.3337,-1.0908,
3.814227,0.3501,1.4321,-0.4715,0.6683,-1.5160,1.5882,0.6924,1.3337,-1.0908,
3.817280,0.3501,1.4321,-0.4715,2.3435,5.2571,-0.3852,0.6924,1.3337,-1.0908,
3.819184,0.3501,1.4321,-0.4715,2.3435,5.2571,-0.3852,0.5497,1.0647,-1.2304,
3.835120,0.3501,1.4321,-0.4715,2.3435,5.2571,-0.3852,0.3356,0.6615,-1.3129,
3.855070,0.2744,1.6205,-0.4889,2.3435,5.2571,-0.3852,0.3356,0.6615,-1.3129,
3.857362,0.2744,1.6205,-0.4889,1.8984,7.1309,-0.4335,0.3356,0.6615,-1.3129,
3.859139,0.2744,1.6205,-0.4889,1.8984,7.1309,-0.4335,0.1438,0.1135,-1.0674,
3.874679,0.2744,1.6205,-0.4889,1.8984,7.1309,-0.4335,-0.0735,-0.5582,-0.6120,
3.894725,0.3147,1.4991,-0.5534,1.8984,7.1309,-0.4335,-0.0735,-0.5582,-0.6120,
3.897611,0.3147,1.4991,-0.5534,2.6273,5.9256,-1.0487,-0.0735,-0.5582,-0.6120,
3.899605,0.3147,1.4991,-0.5534,2.6273,5.9256,-1.0487,-0.4506,-1.2693,-0.2051,
3.915543,0.3147,1.4991,-0.5534,2.6273,5.9256,-1.0487,-0.8213,-1.6197,0.1337,
3.934146,0.2678,1.1776,-0.3965,2.6273,5.9256,-1.0487,-0.8213,-1.6197,0.1337,
3.937326,0.2678,1.1776,-0.3965,2.4260,2.6658,0.2830,-0.8213,-1.6197,0.1337,
3.939238,0.2678,1.1776,-0.3965,2.4260,2.6658,0.2830,-1.0509,-1.7444,0.4314,
3.955038,0.2678,1.1776,-0.3965,2.4260,2.6658,0.2830,-1.2405,-1.8600,0.6360,
3.975053,0.1820,1.0654,-0.4016,2.4260,2.6658,0.2830,-1.2405,-1.8600,0.6360,
3.977088,0.1820,1.0654,-0.4016,1.6806,1.3881,-0.1674,-1.2405,-1.8600,0.6360,
3.978844,0.1820,1.0654,-0.4016,1.6806,1.3881,-0.1674,-1.4338,-2.1023,0.8597,
3.995977,0.1820,1.0654,-0.4016,1.6806,1.3881,-0.1674,-1.5542,-2.5375,1.0626,
4.014619,0.0921,0.8463,-0.3792,1.6806,1.3881,-0.1674,-1.5542,-2.5375,1.0626,
4.017186,0.0921,0.8463,-0.3792,0.7717,-0.9641,-0.4832,-1.5542,-2.5375,1.0626,
4.019085,0.0921,0.8463,-0.3792,0.7717,-0.9641,-0.4832,-1.5697,-3.1686,1.1659,
4.034417,0.0921,0.8463,-0.3792,0.7717,-0.9641,-0.4832,-1.2959,-3.3998,1.1888,
4.054129,0.0049,0.5858,-0.5536,0.7717,-0.9641,-0.4832,-1.2959,-3.3998,1.1888,
4.056690,0.0049,0.5858,-0.5536,-0.1587,-3.6614,-2.6474,-1.2959,-3.3998,1.1888,
4.058732,0.0049,0.5858,-0.5536,-0.1587,-3.6614,-2.6474,-0.5971,-2.5167,1.0903,
4.074568,0.0049,0.5858,-0.5536,-0.1587,-3.6614,-2.6474,0.0698,-1.2730,0.7372,
4.094328,0.0721,0.2893,-0.8509,-0.1587,-3.6614,-2.6474,0.0698,-1.2730,0.7372,
4.097005,0.0721,0.2893,-0.8509,0.3602,-6.5873,-5.6415,0.0698,-1.2730,0.7372,
4.098988,0.0721,0.2893,-0.8509,0.3602,-6.5873,-5.6415,0.1864,-0.3041,0.5087,
4.114941,0.0721,0.2893,-0.8509,0.3602,-6.5873,-5.6415,0.1007,0.6887,0.3963,
4.134243,0.0826,0.5448,-0.3215,0.3602,-6.5873,-5.6415,0.1007,0.6887,0.3963,
4.138029,0.0826,0.5448,-0.3215,0.2726,-4.0597,-0.4040,0.1007,0.6887,0.3963,
4.140654,0.0826,0.5448,-0.3215,0.2726,-4.0597,-0.4040,-0.0953,0.8187,0.4197,
4.154265,0.0826,0.5448,-0.3215,0.2726,-4.0597,-0.4040,-0.2392,0.5635,0.5326,
4.174417,0.1498,0.6911,-0.1615,0.2726,-4.0597,-0.4040,-0.2392,0.5635,0.5326,
4.176926,0.1498,0.6911,-0.1615,0.6764,-2.6309,1.0832,-0.2392,0.5635,0.5326,
4.178716,0.1498,0.6911,-0.1615,0.6764,-2.6309,1.0832,-0.2285,0.3366,0.5529,
4.195236,0.1498,0.6911,-0.1615,0.6764,-2.6309,1.0832,-0.1470,0.2653,0.4618,
4.214319,0.1796,0.6618,-0.1229,0.6764,-2.6309,1.0832,-0.1470,0.2653,0.4618,
4.216651,0.1796,0.6618,-0.1229,0.7474,-2.9197,1.3805,-0.1470,0.2653,0.4618,
4.218467,0.1796,0.6618,-0.1229,0.7474,-2.9197,1.3805,-0.0256,0.2386,0.3814,
4.234354,0.1796,0.6618,-0.1229,0.7474,-2.9197,1.3805,0.0330,0.1007,0.2509,
4.253767,0.1085,0.6738,-0.1710,0.7474,-2.9197,1.3805,0.0330,0.1007,0.2509,
4.256204,0.1085,0.6738,-0.1710,-0.0858,-2.7883,0.9028,0.0330,0.1007,0.2509,
4.258105,0.1085,0.6738,-0.1710,-0.0858,-2.7883,0.9028,0.0383,0.0703,0.1901,
4.273832,0.1085,0.6738,-0.1710,-0.0858,-2.7883,0.9028,0.0330,0.2173,0.1587,
4.293850,0.1192,1.0324,-0.2844,-0.0858,-2.7883,0.9028,0.0330,0.2173,0.1587,
4.296444,0.1192,1.0324,-0.2844,-0.0607,0.7383,-0.2016,0.0330,0.2173,0.1587,
4.298260,0.1192,1.0324,-0.2844,-0.0607,0.7383,-0.2016,0.0021,0.4421,0.0985,
4.314791,0.1192,1.0324,-0.2844,-0.0607,0.7383,-0.2016,-0.0746,0.5832,-0.0272,
4.334275,0.1720,1.5460,-0.3623,-0.0607,0.7383,-0.2016,-0.0746,0.5832,-0.0272,
4.336811,0.1720,1.5460,-0.3623,0.3903,5.7691,-1.0048,-0.0746,0.5832,-0.0272,
4.338623,0.1720,1.5460,-0.3623,0.3903,5.7691,-1.0048,-0.1475,0.5784,-0.2067,
4.354028,0.1720,1.5460,-0.3623,0.3903,5.7691,-1.0048,0.0096,0.4815,-0.3084,
4.373999,0.2336,1.9188,-0.1869,0.3903,5.7691,-1.0048,0.0096,0.4815,-0.3084,
4.376401,0.2336,1.9188,-0.1869,1.0376,9.4024,0.6611,0.0096,0.4815,-0.3084,
4.378020,0.2336,1.9188,-0.1869,1.0376,9.4024,0.6611,0.4927,0.1475,-0.3915,
4.393822,0.2336,1.9188,-0.1869,1.0376,9.4024,0.6611,1.0344,-0.1539,-0.3350,
4.414458,0.2380,1.3923,-0.3174,1.0376,9.4024,0.6611,1.0344,-0.1539,-0.3350,
4.419215,0.2380,1.3923,-0.3174,1.2170,4.3055,-0.3336,1.0344,-0.1539,-0.3350,
4.421127,0.2380,1.3923,-0.3174,1.2170,4.3055,-0.3336,1.1420,-0.2631,-0.2658,
4.433484,0.2380,1.3923,-0.3174,1.2170,4.3055,-0.3336,0.9023,-0.1854,-0.2844,
4.453999,0.2807,1.0718,-0.3897,1.2170,4.3055,-0.3336,0.9023,-0.1854,-0.2844,
4.457092,0.2807,1.0718,-0.3897,1.7641,1.2737,-0.6548,0.9023,-0.1854,-0.2844,
4.459070,0.2807,1.0718,-0.3897,1.7641,1.2737,-0.6548,0.4874,0.1593,-0.4112,
4.474051,0.2807,1.0718,-0.3897,1.7641,1.2737,-0.6548,0.1704,0.7563,-0.5406,
4.493731,0.1617,0.7119,-0.2243,1.7641,1.2737,-0.6548,0.1704,0.7563,-0.5406,
4.496404,0.1617,0.7119,-0.2243,0.7112,-2.2282,1.0697,0.1704,0.7563,-0.5406,
4.498353,0.1617,0.7119,-0.2243,0.7112,-2.2282,1.0697,0.0437,1.3374,-0.5891,
4.513814,0.1617,0.7119,-0.2243,0.7112,-2.2282,1.0697,0.0463,1.6927,-0.6477,
4.533283,0.1410,0.4827,-0.1534,0.7112,-2.2282,1.0697,0.0463,1.6927,-0.6477,
4.535459,0.1410,0.4827,-0.1534,0.5387,-4.4892,1.7290,0.0463,1.6927,-0.6477,
4.536535,0.1410,0.4827,-0.1534,0.5387,-4.4892,1.7290,0.0969,1.9223,-0.7212,
4.553196,0.1410,0.4827,-0.1534,0.5387,-4.4892,1.7290,0.1321,1.9228,-0.6908,
4.572864,0.1595,0.4117,-0.1793,0.5387,-4.4892,1.7290,0.1321,1.9228,-0.6908,
4.573925,0.1595,0.4117,-0.1793,0.7335,-5.1947,1.4533,0.1321,1.9228,-0.6908,
4.574649,0.1595,0.4117,-0.1793,0.7335,-5.1947,1.4533,0.1443,1.5627,-0.6424,
4.592495,0.1595,0.4117,-0.1793,0.7335,-5.1947,1.4533,0.1965,1.1984,-0.6408,
4.613417,0.1351,0.4779,-0.1849,0.7335,-5.1947,1.4533,0.1965,1.1984,-0.6408,
4.614982,0.1351,0.4779,-0.1849,0.5532,-4.5447,1.4164,0.1965,1.1984,-0.6408,
4.616320,0.1351,0.4779,-0.1849,0.5532,-4.5447,1.4164,0.3025,1.0519,-0.6658,
4.633494,0.1351,0.4779,-0.1849,0.5532,-4.5447,1.4164,0.4096,1.0429,-0.6541,
4.653736,0.1468,0.5165,-0.1852,0.5532,-4.5447,1.4164,0.4096,1.0429,-0.6541,
4.656063,0.1468,0.5165,-0.1852,0.7741,-4.1387,1.5150,0.4096,1.0429,-0.6541,
4.657781,0.1468,0.5165,-0.1852,0.7741,-4.1387,1.5150,0.5412,0.9065,-0.6301,
4.673617,0.1468,0.5165,-0.1852,0.7741,-4.1387,1.5150,0.6658,0.8687,-0.6285,
4.692902,0.1805,0.5819,-0.1984,0.7741,-4.1387,1.5150,0.6658,0.8687,-0.6285,
4.696091,0.1805,0.5819,-0.1984,1.2136,-3.4298,1.5850,0.6658,0.8687,-0.6285,
4.698144,0.1805,0.5819,-0.1984,1.2136,-3.4298,1.5850,0.7313,0.9417,-0.6003,
4.713207,0.1805,0.5819,-0.1984,1.2136,-3.4298,1.5850,0.7217,0.9119,-0.5209,
4.733491,0.3249,1.2042,-0.4539,1.2136,-3.4298,1.5850,0.7217,0.9119,-0.5209,
4.735842,0.3249,1.2042,-0.4539,2.6802,2.7622,-0.6780,0.7217,0.9119,-0.5209,
4.737528,0.3249,1.2042,-0.4539,2.6802,2.7622,-0.6780,0.5417,0.6397,-0.4362,
4.753199,0.3249,1.2042,-0.4539,2.6802,2.7622,-0.6780,0.1023,0.2061,-0.3212,
4.773007,0.3721,2.0133,-0.8045,2.6802,2.7622,-0.6780,0.1023,0.2061,-0.3212,
4.775323,0.3721,2.0133,-0.8045,3.2139,10.7339,-4.0056,0.1023,0.2061,-0.3212,
4.777186,0.3721,2.0133,-0.8045,3.2139,10.7339,-4.0056,-0.6131,-0.4634,-0.1683,
4.794485,0.3721,2.0133,-0.8045,3.2139,10.7339,-4.0056,-1.2043,-1.1180,0.3467,
4.813633,0.2700,1.7761,-0.5028,3.2139,10.7339,-4.0056,-1.2043,-1.1180,0.3467,
4.817601,0.2700,1.7761,-0.5028,2.2979,8.2756,-1.3652,-1.2043,-1.1180,0.3467,
4.819779,0.2700,1.7761,-0.5028,2.2979,8.2756,-1.3652,-1.3593,-1.8552,0.7148,
4.833422,0.2700,1.7761,-0.5028,2.2979,8.2756,-1.3652,-1.1638,-2.5577,0.9726,
4.853162,0.1124,1.0850,-0.3345,2.2979,8.2756,-1.3652,-1.1638,-2.5577,0.9726,
4.855934,0.1124,1.0850,-0.3345,0.7352,1.3451,-0.1507,-1.1638,-2.5577,0.9726,
4.857343,0.1124,1.0850,-0.3345,0.7352,1.3451,-0.1507,-0.8357,-2.7026,1.1388,
4.872950,0.1124,1.0850,-0.3345,0.7352,1.3451,-0.1507,-0.6163,-2.4272,1.0818,
4.892908,0.0872,0.7911,-0.3271,0.7352,1.3451,-0.1507,-0.6163,-2.4272,1.0818,
4.895409,0.0872,0.7911,-0.3271,0.3834,-1.6039,-0.3061,-0.6163,-2.4272,1.0818,
4.897241,0.0872,0.7911,-0.3271,0.3834,-1.6039,-0.3061,-0.4884,-2.0778,0.7627,
4.912933,0.0872,0.7911,-0.3271,0.3834,-1.6039,-0.3061,-0.2397,-1.4466,0.3505,
4.933628,-0.1092,0.6936,-0.4752,0.3834,-1.6039,-0.3061,-0.2397,-1.4466,0.3505,
4.936122,-0.1092,0.6936,-0.4752,-1.5477,-2.5773,-1.8173,-0.2397,-1.4466,0.3505,
4.938104,-0.1092,0.6936,-0.4752,-1.5477,-2.5773,-1.8173,-0.0352,-0.4517,0.2764,
4.953541,-0.1092,0.6936,-0.4752,-1.5477,-2.5773,-1.8173,-0.1609,-0.1353,0.2812,
4.972900,0.0552,0.6332,-0.5157,-1.5477,-2.5773,-1.8173,-0.1609,-0.1353,0.2812,
4.975532,0.0552,0.6332,-0.5157,-0.0071,-3.1670,-2.2220,-0.1609,-0.1353,0.2812,
4.977487,0.0552,0.6332,-0.5157,-0.0071,-3.1670,-2.2220,-0.2647,-0.2610,0.2546,
4.992657,0.0552,0.6332,-0.5157,-0.0071,-3.1670,-2.2220,-0.3686,-0.1891,0.3201,
5.013144,0.1197,0.5705,-0.3401,-0.0071,-3.1670,-2.2220,-0.3686,-0.1891,0.3201,
5.015992,0.1197,0.5705,-0.3401,0.5424,-3.8106,-0.6139,-0.3686,-0.1891,0.3201,
5.017876,0.1197,0.5705,-0.3401,0.5424,-3.8106,-0.6139,-0.4437,-0.1912,0.4091,
5.032347,0.1197,0.5705,-0.3401,0.5424,-3.8106,-0.6139,-0.4378,-0.3819,0.5683,
5.052337,0.1554,0.5854,-0.2108,0.5424,-3.8106,-0.6139,-0.4378,-0.3819,0.5683,
5.054063,0.1554,0.5854,-0.2108,0.7383,-3.6972,0.4950,-0.4378,-0.3819,0.5683,
5.055330,0.1554,0.5854,-0.2108,0.7383,-3.6972,0.4950,-0.4053,-0.7302,0.7409,
5.073089,0.1554,0.5854,-0.2108,0.7383,-3.6972,0.4950,-0.3473,-1.1414,0.8517,
5.093044,0.2314,0.6318,-0.1920,0.7383,-3.6972,0.4950,-0.3473,-1.1414,0.8517,
5.095393,0.2314,0.6318,-0.1920,1.2758,-3.2517,0.5709,-0.3473,-1.1414,0.8517,
5.097124,0.2314,0.6318,-0.1920,1.2758,-3.2517,0.5709,-0.2993,-1.5329,0.8570,
5.114057,0.2314,0.6318,-0.1920,1.2758,-3.2517,0.5709,-0.2738,-1.6954,0.8123,
5.132863,0.1512,0.5934,-0.2074,1.2758,-3.2517,0.5709,-0.2738,-1.6954,0.8123,
5.134636,0.1512,0.5934,-0.2074,0.3314,-3.6195,0.3812,-0.2738,-1.6954,0.8123,
5.135938,0.1512,0.5934,-0.2074,0.3314,-3.6195,0.3812,-0.2967,-1.4813,0.7894,
5.152380,0.1512,0.5934,-0.2074,0.3314,-3.6195,0.3812,-0.3297,-0.9950,0.7334,
5.172832,0.1261,0.6709,-0.1634,0.3314,-3.6195,0.3812,-0.3297,-0.9950,0.7334,
5.175073,0.1261,0.6709,-0.1634,-0.0826,-2.8531,0.7550,-0.3297,-0.9950,0.7334,
5.176871,0.1261,0.6709,-0.1634,-0.0826,-2.8531,0.7550,-0.3009,-0.4298,0.6503,
5.194619,0.1261,0.6709,-0.1634,-0.0826,-2.8531,0.7550,-0.2253,0.0581,0.5167,
5.212229,0.1815,1.0996,-0.2191,-0.0826,-2.8531,0.7550,-0.2253,0.0581,0.5167,
5.214041,0.1815,1.0996,-0.2191,0.2586,1.3573,0.1201,-0.2253,0.0581,0.5167,
5.215082,0.1815,1.0996,-0.2191,0.2586,1.3573,0.1201,-0.1273,0.4400,0.3329,
5.232707,0.1815,1.0996,-0.2191,0.2586,1.3573,0.1201,-0.0474,0.6141,0.0607,
5.252949,0.2138,1.6886,-0.2265,0.2586,1.3573,0.1201,-0.0474,0.6141,0.0607,
5.255136,0.2138,1.6886,-0.2265,0.4536,7.1343,-0.0182,-0.0474,0.6141,0.0607,
5.256840,0.2138,1.6886,-0.2265,0.4536,7.1343,-0.0182,0.1284,0.6253,-0.2083,
5.272984,0.2138,1.6886,-0.2265,0.4536,7.1343,-0.0182,0.5992,0.5092,-0.3174,
5.292869,0.2981,2.1887,-0.2555,0.4536,7.1343,-0.0182,0.5992,0.5092,-0.3174,
5.295133,0.2981,2.1887,-0.2555,1.3279,12.0508,-0.2033,0.5992,0.5092,-0.3174,
5.296910,0.2981,2.1887,-0.2555,1.3279,12.0508,-0.2033,1.2149,0.0959,-0.4985,
5.312685,0.2981,2.1887,-0.2555,1.3279,12.0508,-0.2033,1.3417,0.2189,-0.5001,
5.332736,0.2384,1.1785,-0.3968,1.3279,12.0508,-0.2033,1.3417,0.2189,-0.5001,
5.335089,0.2384,1.1785,-0.3968,0.9142,2.2503,-1.1189,1.3417,0.2189,-0.5001,
5.336691,0.2384,1.1785,-0.3968,0.9142,2.2503,-1.1189,0.9838,0.5934,-0.3499,
5.352172,0.2384,1.1785,-0.3968,0.9142,2.2503,-1.1189,0.5577,0.9380,-0.4037,
5.372577,0.2895,0.9931,-0.3042,0.9142,2.2503,-1.1189,0.5577,0.9380,-0.4037,
5.374792,0.2895,0.9931,-0.3042,1.4645,0.5013,0.0314,0.5577,0.9380,-0.4037,
5.376392,0.2895,0.9931,-0.3042,1.4645,0.5013,0.0314,0.2913,1.4301,-0.5843,
5.393311,0.2895,0.9931,-0.3042,1.4645,0.5013,0.0314,0.2386,1.9457,-0.7436,
5.412852,0.2196,0.7202,-0.1837,1.4645,0.5013,0.0314,0.2386,1.9457,-0.7436,
5.416322,0.2196,0.7202,-0.1837,0.8124,-2.1778,1.2117,0.2386,1.9457,-0.7436,
5.418317,0.2196,0.7202,-0.1837,0.8124,-2.1778,1.2117,0.3095,2.2642,-0.8879,
5.432821,0.2196,0.7202,-0.1837,0.8124,-2.1778,1.2117,0.4144,2.4277,-0.9577,
5.452847,0.2001,0.5673,-0.1688,0.8124,-2.1778,1.2117,0.4144,2.4277,-0.9577,
5.456452,0.2001,0.5673,-0.1688,0.6791,-3.6814,1.3683,0.4144,2.4277,-0.9577,
5.458104,0.2001,0.5673,-0.1688,0.6791,-3.6814,1.3683,0.4948,2.2749,-0.9928,
5.472159,0.2001,0.5673,-0.1688,0.6791,-3.6814,1.3683,0.5444,1.7769,-0.9449,
5.492846,0.2287,0.5663,-0.2140,0.6791,-3.6814,1.3683,0.5444,1.7769,-0.9449,
5.495069,0.2287,0.5663,-0.2140,1.0688,-3.6751,1.0169,0.5444,1.7769,-0.9449,
5.496830,0.2287,0.5663,-0.2140,1.0688,-3.6751,1.0169,0.5689,0.9561,-0.8261,
5.512655,0.2287,0.5663,-0.2140,1.0688,-3.6751,1.0169,0.5902,0.2423,-0.7452,
5.532066,0.2030,0.5707,-0.2424,1.0688,-3.6751,1.0169,0.5902,0.2423,-0.7452,
5.534707,0.2030,0.5707,-0.2424,1.0304,-3.5916,0.9258,0.5902,0.2423,-0.7452,
5.536275,0.2030,0.5707,-0.2424,1.0304,-3.5916,0.9258,0.5747,0.0426,-0.7111,
5.552732,0.2030,0.5707,-0.2424,1.0304,-3.5916,0.9258,0.4740,0.1433,-0.6232,
5.573570,0.2235,0.6174,-0.2978,1.0304,-3.5916,0.9258,0.4740,0.1433,-0.6232,
5.576003,0.2235,0.6174,-0.2978,1.4627,-3.0856,0.5711,0.4740,0.1433,-0.6232,
5.577756,0.2235,0.6174,-0.2978,1.4627,-3.0856,0.5711,0.3159,0.2748,-0.4400,
5.592560,0.2235,0.6174,-0.2978,1.4627,-3.0856,0.5711,0.1534,0.2780,-0.2115,
5.612516,0.2675,0.5634,-0.2169,1.4627,-3.0856,0.5711,0.1534,0.2780,-0.2115,
5.614989,0.2675,0.5634,-0.2169,1.9752,-3.5902,1.4430,0.1534,0.2780,-0.2115,
5.616693,0.2675,0.5634,-0.2169,1.9752,-3.5902,1.4430,0.0708,0.1976,-0.0075,
5.632414,0.2675,0.5634,-0.2169,1.9752,-3.5902,1.4430,0.0655,0.1273,0.0852,
5.652537,0.3679,0.7004,-0.2147,1.9752,-3.5902,1.4430,0.0655,0.1273,0.0852,
5.656191,0.3679,0.7004,-0.2147,2.9221,-2.2363,1.4851,0.0655,0.1273,0.0852,
5.658020,0.3679,0.7004,-0.2147,2.9221,-2.2363,1.4851,0.1220,0.0863,0.0815,
5.672196,0.3679,0.7004,-0.2147,2.9221,-2.2363,1.4851,0.1598,0.0133,0.0181,
5.692096,0.2700,1.1277,-0.3357,2.9221,-2.2363,1.4851,0.1598,0.0133,0.0181,
5.694242,0.2700,1.1277,-0.3357,1.9004,1.9716,0.3391,0.1598,0.0133,0.0181,
5.696006,0.2700,1.1277,-0.3357,1.9004,1.9716,0.3391,0.1726,-0.0352,0.1635,
5.712369,0.2700,1.1277,-0.3357,1.9004,1.9716,0.3391,0.0964,-0.0277,0.2684,
5.732088,0.3547,1.5482,-0.5563,1.9004,1.9716,0.3391,0.0964,-0.0277,0.2684,
5.734213,0.3547,1.5482,-0.5563,2.6575,6.1184,-1.7731,0.0964,-0.0277,0.2684,
5.736136,0.3547,1.5482,-0.5563,2.6575,6.1184,-1.7731,-0.2621,-0.0799,0.1113,
5.752100,0.3547,1.5482,-0.5563,2.6575,6.1184,-1.7731,-0.6903,-0.1374,0.1049,
5.772658,0.2582,1.8030,-0.5331,2.6575,6.1184,-1.7731,-0.6903,-0.1374,0.1049,
5.776230,0.2582,1.8030,-0.5331,1.6883,8.5510,-1.7142,-0.6903,-0.1374,0.1049,
5.777887,0.2582,1.8030,-0.5331,1.6883,8.5510,-1.7142,-0.8554,-0.3084,0.4549,
5.792158,0.2582,1.8030,-0.5331,1.6883,8.5510,-1.7142,-1.2117,-0.8133,0.5502,
5.812484,0.1085,1.3024,-0.3188,1.6883,8.5510,-1.7142,-1.2117,-0.8133,0.5502,
5.814770,0.1085,1.3024,-0.3188,0.1106,3.5263,0.0279,-1.2117,-0.8133,0.5502,
5.816411,0.1085,1.3024,-0.3188,0.1106,3.5263,0.0279,-1.4520,-1.4440,0.6434,
5.832156,0.1085,1.3024,-0.3188,0.1106,3.5263,0.0279,-1.3332,-1.9553,0.9609,
5.852059,0.0833,0.9682,-0.2509,0.1106,3.5263,0.0279,-1.3332,-1.9553,0.9609,
5.854198,0.0833,0.9682,-0.2509,-0.2373,0.1202,0.2430,-1.3332,-1.9553,0.9609,
5.856096,0.0833,0.9682,-0.2509,-0.2373,0.1202,0.2430,-1.1372,-2.4150,1.2416,
5.871995,0.0833,0.9682,-0.2509,-0.2373,0.1202,0.2430,-0.9614,-2.6525,1.1926,
5.892412,0.0745,0.9313,-0.3518,-0.2373,0.1202,0.2430,-0.9614,-2.6525,1.1926,
5.894837,0.0745,0.9313,-0.3518,-0.5226,-0.2925,-1.0228,-0.9614,-2.6525,1.1926,
5.896846,0.0745,0.9313,-0.3518,-0.5226,-0.2925,-1.0228,-0.7063,-2.3356,0.9092,
5.912624,0.0745,0.9313,-0.3518,-0.5226,-0.2925,-1.0228,-0.5284,-1.5180,0.7340,
5.931883,0.0579,0.7229,-0.4134,-0.5226,-0.2925,-1.0228,-0.5284,-1.5180,0.7340,
5.935186,0.0579,0.7229,-0.4134,-0.7963,-2.3397,-1.7068,-0.5284,-1.5180,0.7340,
5.937033,0.0579,0.7229,-0.4134,-0.7963,-2.3397,-1.7068,-0.3665,-0.7137,0.7057,
5.951643,0.0579,0.7229,-0.4134,-0.7963,-2.3397,-1.7068,-0.4618,-0.9646,0.5497,
5.972513,0.0713,0.6626,-0.3941,-0.7963,-2.3397,-1.7068,-0.4618,-0.9646,0.5497,
5.975115,0.0713,0.6626,-0.3941,-0.8228,-2.9322,-1.6218,-0.4618,-0.9646,0.5497,
5.977174,0.0713,0.6626,-0.3941,-0.8228,-2.9322,-1.6218,-0.7015,-1.4898,0.5960,
5.992735,0.0713,0.6626,-0.3941,-0.8228,-2.9322,-1.6218,-1.0013,-1.9249,0.6397,
6.011874,0.1771,0.7275,-0.3823,-0.8228,-2.9322,-1.6218,-1.0013,-1.9249,0.6397,
6.014749,0.1771,0.7275,-0.3823,0.1261,-2.3294,-1.7218,-1.0013,-1.9249,0.6397,
6.016641,0.1771,0.7275,-0.3823,0.1261,-2.3294,-1.7218,-1.3092,-2.3228,0.6354,
6.031633,0.1771,0.7275,-0.3823,0.1261,-2.3294,-1.7218,-1.5579,-2.7308,0.6195,
6.051409,0.1920,0.6567,-0.3032,0.1261,-2.3294,-1.7218,-1.5579,-2.7308,0.6195,
6.054621,0.1920,0.6567,-0.3032,0.2200,-3.0875,-1.3223,-1.5579,-2.7308,0.6195,
6.056203,0.1920,0.6567,-0.3032,0.2200,-3.0875,-1.3223,-1.7135,-3.1281,0.6519,
6.072136,0.1920,0.6567,-0.3032,0.2200,-3.0875,-1.3223,-1.7896,-3.5356,0.6546,
6.092670,0.2419,0.6313,-0.2465,0.2200,-3.0875,-1.3223,-1.7896,-3.5356,0.6546,
6.095004,0.2419,0.6313,-0.2465,0.6481,-3.3921,-1.2105,-1.7896,-3.5356,0.6546,
6.096813,0.2419,0.6313,-0.2465,0.6481,-3.3921,-1.2105,-1.7838,-3.9292,0.5736,
6.112525,0.2419,0.6313,-0.2465,0.6481,-3.3921,-1.2105,-1.6890,-4.1535,0.4490,
6.132064,0.2025,0.6320,-0.1942,0.6481,-3.3921,-1.2105,-1.6890,-4.1535,0.4490,
6.137019,0.2025,0.6320,-0.1942,0.2274,-3.4192,-1.0836,-1.6890,-4.1535,0.4490,
6.139246,0.2025,0.6320,-0.1942,0.2274,-3.4192,-1.0836,-1.5494,-4.2190,0.3180,
6.151793,0.2025,0.6320,-0.1942,0.2274,-3.4192,-1.0836,-1.3587,-4.1503,0.2258,
6.171777,0.1661,0.5548,-0.1468,0.2274,-3.4192,-1.0836,-1.3587,-4.1503,0.2258,
6.175160,0.1661,0.5548,-0.1468,-0.1204,-4.1964,-0.8853,-1.3587,-4.1503,0.2258,
6.177389,0.1661,0.5548,-0.1468,-0.1204,-4.1964,-0.8853,-1.1516,-4.0214,0.1513,
6.194697,0.1661,0.5548,-0.1468,-0.1204,-4.1964,-0.8853,-0.9369,-3.9559,0.0032,
6.211334,0.2753,0.9215,-0.1700,-0.1204,-4.1964,-0.8853,-0.9369,-3.9559,0.0032,
6.214335,0.2753,0.9215,-0.1700,0.9966,-0.6175,-1.2393,-0.9369,-3.9559,0.0032,
6.216457,0.2753,0.9215,-0.1700,0.9966,-0.6175,-1.2393,-0.7297,-3.9899,-0.2551,
6.231850,0.2753,0.9215,-0.1700,0.9966,-0.6175,-1.2393,-0.4218,-4.1828,-0.7329,
6.252170,0.3345,1.4788,-0.1903,0.9966,-0.6175,-1.2393,-0.4218,-4.1828,-0.7329,
6.255830,0.3345,1.4788,-0.1903,1.8380,4.8029,-1.3999,-0.4218,-4.1828,-0.7329,
6.257454,0.3345,1.4788,-0.1903,1.8380,4.8029,-1.3999,-0.1166,-4.2126,-1.1766,
6.272126,0.3345,1.4788,-0.1903,1.8380,4.8029,-1.3999,0.2381,-3.9111,-1.5611,
6.291666,0.2959,1.9552,-0.2739,1.8380,4.8029,-1.3999,0.2381,-3.9111,-1.5611,
6.294722,0.2959,1.9552,-0.2739,2.0795,9.4118,-2.0088,0.2381,-3.9111,-1.5611,
6.296638,0.2959,1.9552,-0.2739,2.0795,9.4118,-2.0088,0.5262,-3.2038,-1.8594,
6.312170,0.2959,1.9552,-0.2739,2.0795,9.4118,-2.0088,0.6056,-2.1428,-1.8408,
6.331271,0.0298,1.5506,-0.3381,2.0795,9.4118,-2.0088,0.6056,-2.1428,-1.8408,
6.333626,0.0298,1.5506,-0.3381,0.2789,5.4349,-2.3696,0.6056,-2.1428,-1.8408,
6.335528,0.0298,1.5506,-0.3381,0.2789,5.4349,-2.3696,0.5183,-0.8725,-1.3524,
6.351477,0.0298,1.5506,-0.3381,0.2789,5.4349,-2.3696,0.2754,0.0421,-1.0274,
6.371201,0.2274,1.1221,-0.2915,0.2789,5.4349,-2.3696,0.2754,0.0421,-1.0274,
6.373923,0.2274,1.1221,-0.2915,2.6976,1.2628,-1.7590,0.2754,0.0421,-1.0274,
6.375808,0.2274,1.1221,-0.2915,2.6976,1.2628,-1.7590,0.0341,0.3143,-0.9673,
6.390789,0.2274,1.1221,-0.2915,2.6976,1.2628,-1.7590,-0.0575,0.2684,-0.9215,
6.411558,0.1722,0.7886,-0.2006,2.6976,1.2628,-1.7590,-0.0575,0.2684,-0.9215,
6.414306,0.1722,0.7886,-0.2006,2.5088,-1.9816,-0.8655,-0.0575,0.2684,-0.9215,
6.416470,0.1722,0.7886,-0.2006,2.5088,-1.9816,-0.8655,-0.0543,0.2152,-0.8171,
6.431134,0.1722,0.7886,-0.2006,2.5088,-1.9816,-0.8655,-0.0740,0.1939,-0.6983,
6.451577,0.1642,0.6977,-0.2660,2.5088,-1.9816,-0.8655,-0.0740,0.1939,-0.6983,
6.454020,0.1642,0.6977,-0.2660,2.6505,-2.8490,-1.4891,-0.0740,0.1939,-0.6983,
6.455942,0.1642,0.6977,-0.2660,2.6505,-2.8490,-1.4891,-0.1699,0.1214,-0.5891,
6.471975,0.1642,0.6977,-0.2660,2.6505,-2.8490,-1.4891,-0.3414,-0.0368,-0.5156,
6.491276,0.1559,0.6858,-0.3264,2.6505,-2.8490,-1.4891,-0.3414,-0.0368,-0.5156,
6.494083,0.1559,0.6858,-0.3264,2.7819,-2.9519,-2.1781,-0.3414,-0.0368,-0.5156,
6.496167,0.1559,0.6858,-0.3264,2.7819,-2.9519,-2.1781,-0.5609,-0.2775,-0.4400,
6.510640,0.1559,0.6858,-0.3264,2.7819,-2.9519,-2.1781,-0.7750,-0.4639,-0.3372,
6.531194,0.1287,0.6435,-0.2839,2.7819,-2.9519,-2.1781,-0.7750,-0.4639,-0.3372,
6.533414,0.1287,0.6435,-0.2839,2.6783,-3.3689,-2.0382,-0.7750,-0.4639,-0.3372,
6.535352,0.1287,0.6435,-0.2839,2.6783,-3.3689,-2.0382,-0.8831,-0.5742,-0.2296,
6.551282,0.1287,0.6435,-0.2839,2.6783,-3.3689,-2.0382,-0.8746,-0.6780,-0.1459,
6.571032,0.1251,0.6354,-0.2404,2.6783,-3.3689,-2.0382,-0.8746,-0.6780,-0.1459,
6.573586,0.1251,0.6354,-0.2404,2.7287,-3.4565,-1.9884,-0.8746,-0.6780,-0.1459,
6.575548,0.1251,0.6354,-0.2404,2.7287,-3.4565,-1.9884,-0.7984,-0.8330,-0.0474,
6.591395,0.1251,0.6354,-0.2404,2.7287,-3.4565,-1.9884,-0.6663,-1.0179,0.0298,
6.611587,0.1600,0.7129,-0.2511,2.7287,-3.4565,-1.9884,-0.6663,-1.0179,0.0298,
6.614767,0.1600,0.7129,-0.2511,3.0813,-2.7029,-2.4335,-0.6663,-1.0179,0.0298,
6.616782,0.1600,0.7129,-0.2511,3.0813,-2.7029,-2.4335,-0.5230,-1.1095,0.0501,
6.630865,0.1600,0.7129,-0.2511,3.0813,-2.7029,-2.4335,-0.4000,-1.0296,0.0597,
6.651173,0.1085,0.8619,-0.2682,3.0813,-2.7029,-2.4335,-0.4000,-1.0296,0.0597,
6.654764,0.1085,0.8619,-0.2682,2.5507,-1.2440,-2.8441,-0.4000,-1.0296,0.0597,
6.656679,0.1085,0.8619,-0.2682,2.5507,-1.2440,-2.8441,-0.2866,-1.0472,0.1230,
6.670672,0.1085,0.8619,-0.2682,2.5507,-1.2440,-2.8441,-0.2093,-1.1334,0.1896,
6.691015,0.0640,0.8453,-0.3218,2.5507,-1.2440,-2.8441,-0.2093,-1.1334,0.1896,
6.693740,0.0640,0.8453,-0.3218,2.0415,-1.4130,-3.5278,-0.2093,-1.1334,0.1896,
6.695805,0.0640,0.8453,-0.3218,2.0415,-1.4130,-3.5278,-0.2226,-1.0796,0.2546,
6.711095,0.0640,0.8453,-0.3218,2.0415,-1.4130,-3.5278,-0.3143,-0.9507,0.3228,
6.730695,0.0777,1.0039,-0.3152,2.0415,-1.4130,-3.5278,-0.3143,-0.9507,0.3228,
6.733653,0.0777,1.0039,-0.3152,0.9974,0.1095,-1.8739,-0.3143,-0.9507,0.3228,
6.735511,0.0777,1.0039,-0.3152,0.9974,0.1095,-1.8739,-0.3345,-0.7947,0.3973,
6.750268,0.0777,1.0039,-0.3152,0.9974,0.1095,-1.8739,-0.0298,-0.8565,0.3617,
6.771239,0.2128,1.4832,-0.0877,0.9974,0.1095,-1.8739,-0.0298,-0.8565,0.3617,
6.773585,0.2128,1.4832,-0.0877,2.2121,4.7956,0.2783,-0.0298,-0.8565,0.3617,
6.775307,0.2128,1.4832,-0.0877,2.2121,4.7956,0.2783,0.6637,-1.4003,0.1593,
6.793191,0.2128,1.4832,-0.0877,2.2121,4.7956,0.2783,1.4067,-2.1279,0.0000,
6.810867,0.0735,1.7878,-0.2069,2.2121,4.7956,0.2783,1.4067,-2.1279,0.0000,
6.812876,0.0735,1.7878,-0.2069,0.9095,7.8361,-0.4973,1.4067,-2.1279,0.0000,
6.814656,0.0735,1.7878,-0.2069,0.9095,7.8361,-0.4973,1.9947,-2.5694,0.0613,
6.831419,0.0735,1.7878,-0.2069,0.9095,7.8361,-0.4973,2.2387,-2.7473,0.2402,
6.850329,-0.1461,1.2120,-0.3095,0.9095,7.8361,-0.4973,2.2387,-2.7473,0.2402,
6.853733,-0.1461,1.2120,-0.3095,-1.0978,2.3531,-0.7222,2.2387,-2.7473,0.2402,
6.855438,-0.1461,1.2120,-0.3095,-1.0978,2.3531,-0.7222,2.0368,-2.6509,0.6173,
6.870698,-0.1461,1.2120,-0.3095,-1.0978,2.3531,-0.7222,1.6943,-2.3686,1.0647,
6.890503,0.1153,1.2846,-0.2360,-1.0978,2.3531,-0.7222,1.6943,-2.3686,1.0647,
6.893822,0.1153,1.2846,-0.2360,1.4138,3.2503,0.6679,1.6943,-2.3686,1.0647,
6.895408,0.1153,1.2846,-0.2360,1.4138,3.2503,0.6679,1.4488,-2.3532,1.1334,
6.910424,0.1153,1.2846,-0.2360,1.4138,3.2503,0.6679,1.4376,-2.4421,0.9955,
6.930379,0.1434,1.1756,-0.1033,1.4138,3.2503,0.6679,1.4376,-2.4421,0.9955,
6.933842,0.1434,1.1756,-0.1033,1.6058,2.3592,2.4793,1.4376,-2.4421,0.9955,
6.935896,0.1434,1.1756,-0.1033,1.6058,2.3592,2.4793,1.5691,-2.3329,0.7830,
6.950161,0.1434,1.1756,-0.1033,1.6058,2.3592,2.4793,1.6623,-1.8094,0.6189,
6.970861,0.1209,0.9213,-0.1202,1.6058,2.3592,2.4793,1.6623,-1.8094,0.6189,
6.972970,0.1209,0.9213,-0.1202,1.4426,0.1043,2.8795,1.6623,-1.8094,0.6189,
6.974628,0.1209,0.9213,-0.1202,1.4426,0.1043,2.8795,1.6208,-0.8187,0.5177,
6.990692,0.1209,0.9213,-0.1202,1.4426,0.1043,2.8795,1.4520,0.9129,0.4027,
7.010426,0.1390,0.8812,-0.1532,1.4426,0.1043,2.8795,1.4520,0.9129,0.4027,
7.012848,0.1390,0.8812,-0.1532,1.4218,-0.0556,3.0403,1.4520,0.9129,0.4027,
7.014748,0.1390,0.8812,-0.1532,1.4218,-0.0556,3.0403,1.1670,2.4954,0.2269,
7.030793,0.1390,0.8812,-0.1532,1.4218,-0.0556,3.0403,0.8948,3.3497,0.1193,
7.050337,0.0586,0.8389,-0.1241,1.4218,-0.0556,3.0403,0.8948,3.3497,0.1193,
7.053305,0.0586,0.8389,-0.1241,0.0160,-0.2988,3.6066,0.8948,3.3497,0.1193,
7.055119,0.0586,0.8389,-0.1241,0.0160,-0.2988,3.6066,0.6727,3.7620,0.0975,
7.070986,0.0586,0.8389,-0.1241,0.0160,-0.2988,3.6066,0.4751,3.9005,0.0948,
7.091513,0.0337,0.8473,-0.1173,0.0160,-0.2988,3.6066,0.4751,3.9005,0.0948,
7.093630,0.0337,0.8473,-0.1173,-1.0035,-0.1073,3.7146,0.4751,3.9005,0.0948,
7.095522,0.0337,0.8473,-0.1173,-1.0035,-0.1073,3.7146,0.3084,3.8509,0.0900,
7.110814,0.0337,0.8473,-0.1173,-1.0035,-0.1073,3.7146,0.1795,3.5841,0.1108,
7.130142,-0.0020,0.8047,-0.0985,-1.0035,-0.1073,3.7146,0.1795,3.5841,0.1108,
7.132550,-0.0020,0.8047,-0.0985,-2.1020,-0.4699,3.7259,0.1795,3.5841,0.1108,
7.134358,-0.0020,0.8047,-0.0985,-2.1020,-0.4699,3.7259,0.1007,3.0126,0.1736,
7.150090,-0.0020,0.8047,-0.0985,-2.1020,-0.4699,3.7259,0.0261,2.0213,0.2674,
7.170394,0.0266,0.7581,-0.1573,-2.1020,-0.4699,3.7259,0.0261,2.0213,0.2674,
7.172846,0.0266,0.7581,-0.1573,-2.3532,-0.8946,2.9359,0.0261,2.0213,0.2674,
7.174667,0.0266,0.7581,-0.1573,-2.3532,-0.8946,2.9359,-0.1172,0.5896,0.3606,
7.190373,0.0266,0.7581,-0.1573,-2.3532,-0.8946,2.9359,-0.3792,-1.1899,0.4767,
7.209825,0.0831,0.9186,-0.2922,-2.3532,-0.8946,2.9359,-0.3792,-1.1899,0.4767,
7.212227,0.0831,0.9186,-0.2922,-1.8865,0.6795,1.5648,-0.3792,-1.1899,0.4767,
7.213957,0.0831,0.9186,-0.2922,-1.8865,0.6795,1.5648,-0.7569,-3.1207,0.6125,
7.230081,0.0831,0.9186,-0.2922,-1.8865,0.6795,1.5648,-1.1286,-4.7580,0.7681,
7.250161,0.0489,1.0850,-0.3176,-1.8865,0.6795,1.5648,-1.1286,-4.7580,0.7681,
7.252115,0.0489,1.0850,-0.3176,-1.7000,2.1675,1.3333,-1.1286,-4.7580,0.7681,
7.253506,0.0489,1.0850,-0.3176,-1.7000,2.1675,1.3333,-1.3801,-5.6129,0.9673,
7.269991,0.0489,1.0850,-0.3176,-1.7000,2.1675,1.3333,-1.5207,-5.7487,1.1292,
7.291040,0.1187,0.9721,-0.3188,-1.7000,2.1675,1.3333,-1.5207,-5.7487,1.1292,
7.293085,0.1187,0.9721,-0.3188,-0.3662,0.8785,1.2392,-1.5207,-5.7487,1.1292,
7.294889,0.1187,0.9721,-0.3188,-0.3662,0.8785,1.2392,-1.6277,-5.4696,1.1766,
7.310758,0.1187,0.9721,-0.3188,-0.3662,0.8785,1.2392,-1.7657,-5.0541,1.2048,
7.330325,0.2123,1.3097,-0.3660,-0.3662,0.8785,1.2392,-1.7657,-5.0541,1.2048,
7.332670,0.2123,1.3097,-0.3660,1.0229,3.9614,0.4515,-1.7657,-5.0541,1.2048,
7.334257,0.2123,1.3097,-0.3660,1.0229,3.9614,0.4515,-1.9047,-4.7628,1.1899,
7.349876,0.2123,1.3097,-0.3660,1.0229,3.9614,0.4515,-1.8791,-4.6600,1.0962,
7.369844,0.2121,1.3520,-0.2279,1.0229,3.9614,0.4515,-1.8791,-4.6600,1.0962,
7.372266,0.2121,1.3520,-0.2279,1.3215,4.1319,1.2970,-1.8791,-4.6600,1.0962,
7.373835,0.2121,1.3520,-0.2279,1.3215,4.1319,1.2970,-1.6602,-4.5338,0.9918,
7.390343,0.2121,1.3520,-0.2279,1.3215,4.1319,1.2970,-1.4685,-4.1487,0.8629,
7.409979,0.2204,1.2259,-0.2573,1.3215,4.1319,1.2970,-1.4685,-4.1487,0.8629,
7.412222,0.2204,1.2259,-0.2573,1.6334,2.7143,0.5460,-1.4685,-4.1487,0.8629,
7.413827,0.2204,1.2259,-0.2573,1.6334,2.7143,0.5460,-1.3545,-3.3401,0.7116,
7.429753,0.2204,1.2259,-0.2573,1.6334,2.7143,0.5460,-1.1031,-2.4405,0.4389,
7.451821,0.1568,1.1111,-0.3076,1.6334,2.7143,0.5460,-1.1031,-2.4405,0.4389,
7.455127,0.1568,1.1111,-0.3076,1.1272,1.4591,-0.3528,-1.1031,-2.4405,0.4389,
7.457500,0.1568,1.1111,-0.3076,1.1272,1.4591,-0.3528,-0.8549,-1.5947,0.2125,
7.469780,0.1568,1.1111,-0.3076,1.1272,1.4591,-0.3528,-0.6956,-1.0083,0.1337,
7.489576,0.2184,1.0764,-0.2138,1.1272,1.4591,-0.3528,-0.6956,-1.0083,0.1337,
7.492815,0.2184,1.0764,-0.2138,1.7970,1.0434,0.2922,-0.6956,-1.0083,0.1337,
7.494868,0.2184,1.0764,-0.2138,1.7970,1.0434,0.2922,-0.4788,-0.9566,0.0852,
7.509681,0.2184,1.0764,-0.2138,1.7970,1.0434,0.2922,-0.2498,-1.3481,0.0304,
7.529597,0.1959,0.8648,-0.2038,1.7970,1.0434,0.2922,-0.2498,-1.3481,0.0304,
7.532095,0.1959,0.8648,-0.2038,1.6365,-1.0626,0.2647,-0.2498,-1.3481,0.0304,
7.533759,0.1959,0.8648,-0.2038,1.6365,-1.0626,0.2647,-0.1252,-1.8024,-0.0330,
7.549794,0.1959,0.8648,-0.2038,1.6365,-1.0626,0.2647,-0.1720,-1.9888,-0.0698,
7.570151,0.1524,0.7901,-0.2426,1.6365,-1.0626,0.2647,-0.1720,-1.9888,-0.0698,
7.572534,0.1524,0.7901,-0.2426,1.3556,-1.8071,-0.1525,-0.1720,-1.9888,-0.0698,
7.574337,0.1524,0.7901,-0.2426,1.3556,-1.8071,-0.1525,-0.3159,-1.8791,-0.0676,
7.592076,0.1524,0.7901,-0.2426,1.3556,-1.8071,-0.1525,-0.3856,-1.7332,-0.1198,
7.609866,0.2089,0.8380,-0.1309,1.3556,-1.8071,-0.1525,-0.3856,-1.7332,-0.1198,
7.612301,0.2089,0.8380,-0.1309,2.0802,-1.3683,0.8109,-0.3856,-1.7332,-0.1198,
7.613976,0.2089,0.8380,-0.1309,2.0802,-1.3683,0.8109,-0.2834,-1.7034,-0.2109,
7.629540,0.2089,0.8380,-0.1309,2.0802,-1.3683,0.8109,-0.0447,-1.7518,-0.3558,
7.650312,0.2257,0.9032,-0.1263,2.0802,-1.3683,0.8109,-0.0447,-1.7518,-0.3558,
7.652615,0.2257,0.9032,-0.1263,2.4665,-0.7420,0.7804,-0.0447,-1.7518,-0.3558,
7.654305,0.2257,0.9032,-0.1263,2.4665,-0.7420,0.7804,0.2061,-1.7630,-0.5023,
7.670277,0.2257,0.9032,-0.1263,2.4665,-0.7420,0.7804,0.3494,-1.6815,-0.6029,
7.689862,0.1991,0.8734,-0.1903,2.4665,-0.7420,0.7804,0.3494,-1.6815,-0.6029,
7.691938,0.1991,0.8734,-0.1903,2.5370,-1.0033,0.2288,0.3494,-1.6815,-0.6029,
7.693684,0.1991,0.8734,-0.1903,2.5370,-1.0033,0.2288,0.3750,-1.5052,-0.6493,
7.709528,0.1991,0.8734,-0.1903,2.5370,-1.0033,0.2288,0.3308,-1.2900,-0.6498,
7.729869,0.2243,0.9540,-0.2138,2.5370,-1.0033,0.2288,0.3308,-1.2900,-0.6498,
7.732378,0.2243,0.9540,-0.2138,3.0949,-0.1690,0.0885,0.3308,-1.2900,-0.6498,
7.734079,0.2243,0.9540,-0.2138,3.0949,-0.1690,0.0885,0.2647,-1.1201,-0.6551,
7.749403,0.2243,0.9540,-0.2138,3.0949,-0.1690,0.0885,0.2184,-1.0397,-0.6807,
7.770022,0.2248,0.9662,-0.1898,3.0949,-0.1690,0.0885,0.2184,-1.0397,-0.6807,
7.772359,0.2248,0.9662,-0.1898,3.3735,-0.0098,0.3646,0.2184,-1.0397,-0.6807,
7.774152,0.2248,0.9662,-0.1898,3.3735,-0.0098,0.3646,0.2178,-1.0125,-0.6919,
7.789899,0.2248,0.9662,-0.1898,3.3735,-0.0098,0.3646,0.2439,-0.9646,-0.6892,
7.809557,0.2443,1.0737,-0.1915,3.3735,-0.0098,0.3646,0.2439,-0.9646,-0.6892,
7.811307,0.2443,1.0737,-0.1915,3.8575,1.0913,0.3771,0.2439,-0.9646,-0.6892,
7.812449,0.2443,1.0737,-0.1915,3.8575,1.0913,0.3771,0.3020,-0.8650,-0.6748,
7.829363,0.2443,1.0737,-0.1915,3.8575,1.0913,0.3771,0.4075,-0.7372,-0.6274,
7.849568,0.1754,1.0090,-0.2128,3.8575,1.0913,0.3771,0.4075,-0.7372,-0.6274,
7.853184,0.1754,1.0090,-0.2128,3.4449,0.5202,0.2461,0.4075,-0.7372,-0.6274,
7.854749,0.1754,1.0090,-0.2128,3.4449,0.5202,0.2461,0.4714,-0.7404,-0.4831,
7.869406,0.1754,1.0090,-0.2128,3.4449,0.5202,0.2461,0.4181,-0.9300,-0.3159,
7.890386,0.2182,1.2122,-0.3012,3.4449,0.5202,0.2461,0.4181,-0.9300,-0.3159,
7.892480,0.2182,1.2122,-0.3012,4.0925,2.5838,-0.5167,0.4181,-0.9300,-0.3159,
7.894256,0.2182,1.2122,-0.3012,4.0925,2.5838,-0.5167,0.2860,-1.1441,-0.1710,
7.909431,0.2182,1.2122,-0.3012,4.0925,2.5838,-0.5167,0.2887,-1.1105,-0.0431,
7.929206,0.1673,1.4668,-0.2106,4.0925,2.5838,-0.5167,0.2887,-1.1105,-0.0431,
7.932379,0.1673,1.4668,-0.2106,3.7450,5.1154,0.3863,0.2887,-1.1105,-0.0431,
7.934318,0.1673,1.4668,-0.2106,3.7450,5.1154,0.3863,0.5300,-0.8618,0.1230,
7.949601,0.1673,1.4668,-0.2106,3.7450,5.1154,0.3863,0.7313,-0.6226,0.3686,
7.969467,0.0274,0.6638,-0.1881,3.7450,5.1154,0.3863,0.7313,-0.6226,0.3686,
7.972597,0.0274,0.6638,-0.1881,2.2905,-2.7289,0.7669,0.7313,-0.6226,0.3686,
7.974218,0.0274,0.6638,-0.1881,2.2905,-2.7289,0.7669,0.7398,-0.4591,0.6450,
7.992451,0.0274,0.6638,-0.1881,2.2905,-2.7289,0.7669,0.5944,-0.4389,0.9097,
8.010049,0.1410,0.9755,-0.2067,2.2905,-2.7289,0.7669,0.5944,-0.4389,0.9097,
8.012473,0.1410,0.9755,-0.2067,3.0924,0.3205,0.7804,0.5944,-0.4389,0.9097,
8.014014,0.1410,0.9755,-0.2067,3.0924,0.3205,0.7804,0.4650,-0.5060,0.9976,
8.030202,0.1410,0.9755,-0.2067,3.0924,0.3205,0.7804,0.6051,-0.4554,0.9657,
8.049514,0.1312,1.1590,-0.0603,3.0924,0.3205,0.7804,0.6051,-0.4554,0.9657,
8.052939,0.1312,1.1590,-0.0603,2.6733,2.1134,2.3719,0.6051,-0.4554,0.9657,
8.054279,0.1312,1.1590,-0.0603,2.6733,2.1134,2.3719,0.9385,-0.3276,0.8645,
8.069279,0.1312,1.1590,-0.0603,2.6733,2.1134,2.3719,1.2991,-0.0027,0.8224,
8.089158,0.0772,1.0491,-0.1173,2.6733,2.1134,2.3719,1.2991,-0.0027,0.8224,
8.091931,0.0772,1.0491,-0.1173,1.8338,1.1261,2.1980,1.2991,-0.0027,0.8224,
8.093960,0.0772,1.0491,-0.1173,1.8338,1.1261,2.1980,1.5047,0.5081,0.8330,
8.109784,0.0772,1.0491,-0.1173,1.8338,1.1261,2.1980,1.4775,1.1105,0.8687,
8.129658,0.0630,0.9797,-0.1507,1.8338,1.1261,2.1980,1.4775,1.1105,0.8687,
8.131762,0.0630,0.9797,-0.1507,1.2391,0.6089,2.3869,1.4775,1.1105,0.8687,
8.133351,0.0630,0.9797,-0.1507,1.2391,0.6089,2.3869,1.3135,1.7087,0.8826,
8.149756,0.0630,0.9797,-0.1507,1.2391,0.6089,2.3869,1.0903,2.2477,0.8485,
8.169263,0.0391,0.9728,-0.1371,1.2391,0.6089,2.3869,1.0903,2.2477,0.8485,
8.171671,0.0391,0.9728,-0.1371,0.3527,0.6925,2.8998,1.0903,2.2477,0.8485,
8.173252,0.0391,0.9728,-0.1371,0.3527,0.6925,2.8998,0.8256,2.7095,0.7707,
8.189322,0.0391,0.9728,-0.1371,0.3527,0.6925,2.8998,0.5230,3.1239,0.6456,
8.209603,-0.0479,0.9416,-0.1197,0.3527,0.6925,2.8998,0.5230,3.1239,0.6456,
8.211844,-0.0479,0.9416,-0.1197,-1.2429,0.4780,3.1882,0.5230,3.1239,0.6456,
8.213599,-0.0479,0.9416,-0.1197,-1.2429,0.4780,3.1882,0.2397,3.4419,0.5294,
8.228946,-0.0479,0.9416,-0.1197,-1.2429,0.4780,3.1882,-0.0341,3.5654,0.4517,
8.249095,-0.1214,0.9174,-0.1283,-1.2429,0.4780,3.1882,-0.0341,3.5654,0.4517,
8.252545,-0.1214,0.9174,-0.1283,-2.7080,0.2558,2.9353,-0.0341,3.5654,0.4517,
8.254058,-0.1214,0.9174,-0.1283,-2.7080,0.2558,2.9353,-0.2780,3.4222,0.4016,
8.268904,-0.1214,0.9174,-0.1283,-2.7080,0.2558,2.9353,-0.5428,2.8389,0.3553,
8.288634,-0.1549,0.8451,-0.1967,-2.7080,0.2558,2.9353,-0.5428,2.8389,0.3553,
8.290912,-0.1549,0.8451,-0.1967,-3.6520,-0.4990,1.8828,-0.5428,2.8389,0.3553,
8.292307,-0.1549,0.8451,-0.1967,-3.6520,-0.4990,1.8828,-0.8495,1.7689,0.3686,
8.309172,-0.1549,0.8451,-0.1967,-3.6520,-0.4990,1.8828,-1.1814,0.3505,0.4975,
8.328681,-0.0677,0.7652,-0.1798,-3.6520,-0.4990,1.8828,-1.1814,0.3505,0.4975,
8.331480,-0.0677,0.7652,-0.1798,-3.1080,-1.3876,1.5887,-1.1814,0.3505,0.4975,
8.333108,-0.0677,0.7652,-0.1798,-3.1080,-1.3876,1.5887,-1.4642,-1.2986,0.6977,
8.349143,-0.0677,0.7652,-0.1798,-3.1080,-1.3876,1.5887,-1.5564,-2.9044,0.8213,
8.369469,0.0103,0.7207,-0.1258,-3.1080,-1.3876,1.5887,-1.5564,-2.9044,0.8213,
8.371971,0.0103,0.7207,-0.1258,-2.3512,-1.9384,1.7896,-1.5564,-2.9044,0.8213,
8.373765,0.0103,0.7207,-0.1258,-2.3512,-1.9384,1.7896,-1.4887,-4.1588,0.9183,
8.389161,0.0103,0.7207,-0.1258,-2.3512,-1.9384,1.7896,-1.3646,-4.9753,1.0051,
8.409266,0.0225,0.6980,-0.1935,-2.3512,-1.9384,1.7896,-1.3646,-4.9753,1.0051,
8.411737,0.0225,0.6980,-0.1935,-2.0384,-2.2398,1.0401,-1.3646,-4.9753,1.0051,
8.413585,0.0225,0.6980,-0.1935,-2.0384,-2.2398,1.0401,-1.2895,-5.3487,1.0392,
8.429214,0.0225,0.6980,-0.1935,-2.0384,-2.2398,1.0401,-1.2746,-5.3311,1.0434,
8.449487,0.0371,0.7187,-0.2465,-2.0384,-2.2398,1.0401,-1.2746,-5.3311,1.0434,
8.452758,0.0371,0.7187,-0.2465,-1.6481,-2.0977,0.5093,-1.2746,-5.3311,1.0434,
8.454425,0.0371,0.7187,-0.2465,-1.6481,-2.0977,0.5093,-1.3081,-5.0515,1.0120,
8.468742,0.0371,0.7187,-0.2465,-1.6481,-2.0977,0.5093,-1.3998,-4.6025,0.9737,
8.488945,0.0559,0.7437,-0.2538,-1.6481,-2.0977,0.5093,-1.3998,-4.6025,0.9737,
8.491141,0.0559,0.7437,-0.2538,-1.2732,-1.9329,0.3103,-1.3998,-4.6025,0.9737,
8.492966,0.0559,0.7437,-0.2538,-1.2732,-1.9329,0.3103,-1.5058,-4.0198,0.9390,
8.508711,0.0559,0.7437,-0.2538,-1.2732,-1.9329,0.3103,-1.5521,-3.3811,0.8682,
8.528951,0.0513,0.6894,-0.1725,-1.2732,-1.9329,0.3103,-1.5521,-3.3811,0.8682,
8.531425,0.0513,0.6894,-0.1725,-1.2595,-2.5621,0.8058,-1.5521,-3.3811,0.8682,
8.533336,0.0513,0.6894,-0.1725,-1.2595,-2.5621,0.8058,-1.4962,-2.7814,0.7910,
8.548805,0.0513,0.6894,-0.1725,-1.2595,-2.5621,0.8058,-1.3502,-2.2552,0.7420,
8.569181,0.0985,0.6765,-0.1270,-1.2595,-2.5621,0.8058,-1.3502,-2.2552,0.7420,
8.571594,0.0985,0.6765,-0.1270,-0.8500,-2.7665,0.8978,-1.3502,-2.2552,0.7420,
8.573403,0.0985,0.6765,-0.1270,-0.8500,-2.7665,0.8978,-1.1297,-1.7481,0.6461,
8.589003,0.0985,0.6765,-0.1270,-0.8500,-2.7665,0.8978,-0.8266,-1.3065,0.3595,
8.609331,0.2338,1.1509,-0.1043,-0.8500,-2.7665,0.8978,-0.8266,-1.3065,0.3595,
8.611832,0.2338,1.1509,-0.1043,0.4115,1.8405,0.8618,-0.8266,-1.3065,0.3595,
8.613442,0.2338,1.1509,-0.1043,0.4115,1.8405,0.8618,-0.2221,-0.7878,-0.2317,
8.628741,0.2338,1.1509,-0.1043,0.4115,1.8405,0.8618,0.3739,-0.3659,-0.7808,
8.648077,0.2336,1.7385,-0.1434,0.4115,1.8405,0.8618,0.3739,-0.3659,-0.7808,
8.650621,0.2336,1.7385,-0.1434,0.6418,7.5691,0.5475,0.3739,-0.3659,-0.7808,
8.652132,0.2336,1.7385,-0.1434,0.6418,7.5691,0.5475,1.0631,0.2024,-1.2682,
8.668900,0.2336,1.7385,-0.1434,0.6418,7.5691,0.5475,1.6485,1.0733,-1.4663,
8.688951,0.1019,1.5843,-0.3342,0.6418,7.5691,0.5475,1.6485,1.0733,-1.4663,
8.691007,0.1019,1.5843,-0.3342,-0.1901,6.1003,-0.8451,1.6485,1.0733,-1.4663,
8.692947,0.1019,1.5843,-0.3342,-0.1901,6.1003,-0.8451,1.7822,2.1763,-1.3263,
8.708411,0.1019,1.5843,-0.3342,-0.1901,6.1003,-0.8451,1.6421,3.0674,-1.1766,
8.727665,0.2067,1.2403,-0.3718,-0.1901,6.1003,-0.8451,1.6421,3.0674,-1.1766,
8.729956,0.2067,1.2403,-0.3718,1.0195,2.8599,-0.6855,1.6421,3.0674,-1.1766,
8.731421,0.2067,1.2403,-0.3718,1.0195,2.8599,-0.6855,1.3870,3.5851,-1.0685,
8.747980,0.2067,1.2403,-0.3718,1.0195,2.8599,-0.6855,1.0642,3.6081,-1.1127,
8.768655,0.2961,0.9257,-0.3486,1.0195,2.8599,-0.6855,1.0642,3.6081,-1.1127,
8.770960,0.2961,0.9257,-0.3486,1.8488,-0.1159,-0.1530,1.0642,3.6081,-1.1127,
8.772817,0.2961,0.9257,-0.3486,1.8488,-0.1159,-0.1530,0.8064,3.2709,-1.1665,
8.792082,0.2961,0.9257,-0.3486,1.8488,-0.1159,-0.1530,0.6791,2.9646,-1.1441,
8.808279,0.2639,0.7007,-0.2577,1.8488,-0.1159,-0.1530,0.6791,2.9646,-1.1441,
8.810732,0.2639,0.7007,-0.2577,1.5050,-2.2728,0.8614,0.6791,2.9646,-1.1441,
8.812557,0.2639,0.7007,-0.2577,1.5050,-2.2728,0.8614,0.6663,2.8437,-1.1462,
8.828534,0.2639,0.7007,-0.2577,1.5050,-2.2728,0.8614,0.7244,2.8432,-1.1952,
8.849295,0.2548,0.6183,-0.2238,1.5050,-2.2728,0.8614,0.7244,2.8432,-1.1952,
8.851625,0.2548,0.6183,-0.2238,1.4508,-3.0335,1.3266,0.7244,2.8432,-1.1952,
8.853372,0.2548,0.6183,-0.2238,1.4508,-3.0335,1.3266,0.7979,2.8602,-1.2581,
8.868823,0.2548,0.6183,-0.2238,1.4508,-3.0335,1.3266,0.8938,2.7569,-1.3225,
8.889020,0.1593,0.5336,-0.1461,1.4508,-3.0335,1.3266,0.8938,2.7569,-1.3225,
8.891110,0.1593,0.5336,-0.1461,0.5779,-3.7931,2.2839,0.8938,2.7569,-1.3225,
8.892898,0.1593,0.5336,-0.1461,0.5779,-3.7931,2.2839,1.0136,2.4304,-1.2735,
8.908153,0.1593,0.5336,-0.1461,0.5779,-3.7931,2.2839,1.0999,1.9079,-1.2107,
8.928676,0.1419,0.3545,-0.1124,0.5779,-3.7931,2.2839,1.0999,1.9079,-1.2107,
8.932314,0.1419,0.3545,-0.1124,0.5180,-5.4337,2.9064,1.0999,1.9079,-1.2107,
8.934510,0.1419,0.3545,-0.1124,0.5180,-5.4337,2.9064,1.1547,1.3060,-1.1819,
8.948473,0.1419,0.3545,-0.1124,0.5180,-5.4337,2.9064,1.1697,0.8069,-1.2496,
8.967890,0.2074,0.4591,-0.1693,0.5180,-5.4337,2.9064,1.1697,0.8069,-1.2496,
8.971077,0.2074,0.4591,-0.1693,1.4116,-4.2509,2.7259,1.1697,0.8069,-1.2496,
8.972791,0.2074,0.4591,-0.1693,1.4116,-4.2509,2.7259,1.1713,0.4581,-1.2858,
8.988209,0.2074,0.4591,-0.1693,1.4116,-4.2509,2.7259,1.1840,0.4240,-1.2773,
9.008701,0.4757,1.4883,-0.6743,1.4116,-4.2509,2.7259,1.1840,0.4240,-1.2773,
9.011610,0.4757,1.4883,-0.6743,4.3610,6.0214,-1.8398,1.1840,0.4240,-1.2773,
9.013331,0.4757,1.4883,-0.6743,4.3610,6.0214,-1.8398,0.8858,0.9220,-1.3342,
9.028774,0.4757,1.4883,-0.6743,4.3610,6.0214,-1.8398,0.1209,1.8679,-1.2597,
9.048448,0.4398,2.4418,-0.9408,4.3610,6.0214,-1.8398,0.1209,1.8679,-1.2597,
9.051813,0.4398,2.4418,-0.9408,4.1774,15.4540,-4.2896,0.1209,1.8679,-1.2597,
9.053886,0.4398,2.4418,-0.9408,4.1774,15.4540,-4.2896,-0.7968,2.6786,-0.8538,
9.068527,0.4398,2.4418,-0.9408,4.1774,15.4540,-4.2896,-1.0871,2.3761,-0.1864,
9.088063,0.2138,1.4700,-0.2321,4.1774,15.4540,-4.2896,-1.0871,2.3761,-0.1864,
9.090340,0.2138,1.4700,-0.2321,1.6577,5.7463,2.3070,-1.0871,2.3761,-0.1864,
9.092020,0.2138,1.4700,-0.2321,1.6577,5.7463,2.3070,-0.8607,1.1249,0.4282,
9.107744,0.2138,1.4700,-0.2321,1.6577,5.7463,2.3070,-0.5832,-0.2727,0.8783,
9.127652,0.1456,0.9951,-0.3144,1.6577,5.7463,2.3070,-0.5832,-0.2727,0.8783,
9.130000,0.1456,0.9951,-0.3144,0.6848,0.9801,1.2409,-0.5832,-0.2727,0.8783,
9.131155,0.1456,0.9951,-0.3144,0.6848,0.9801,1.2409,-0.5832,-1.2000,1.1265,
9.147820,0.1456,0.9951,-0.3144,0.6848,0.9801,1.2409,-0.8810,-1.4605,1.3188,
9.168028,0.1136,0.9535,-0.4178,0.6848,0.9801,1.2409,-0.8810,-1.4605,1.3188,
9.170743,0.1136,0.9535,-0.4178,0.1653,0.4912,0.0155,-0.8810,-1.4605,1.3188,
9.172569,0.1136,0.9535,-0.4178,0.1653,0.4912,0.0155,-1.2964,-1.4813,1.4520,
9.187524,0.1136,0.9535,-0.4178,0.1653,0.4912,0.0155,-1.6293,-1.7156,1.4520,
9.209161,0.0691,0.8480,-0.2919,0.1653,0.4912,0.0155,-1.6293,-1.7156,1.4520,
9.211401,0.0691,0.8480,-0.2919,-0.5403,-0.7079,0.7940,-1.6293,-1.7156,1.4520,
9.213279,0.0691,0.8480,-0.2919,-0.5403,-0.7079,0.7940,-1.8104,-2.0943,1.3502,
9.228405,0.0691,0.8480,-0.2919,-0.5403,-0.7079,0.7940,-1.7561,-2.6925,1.1244,
9.247843,-0.0889,0.7090,-0.1576,-0.5403,-0.7079,0.7940,-1.7561,-2.6925,1.1244,
9.250312,-0.0889,0.7090,-0.1576,-2.2088,-2.2500,1.5828,-1.7561,-2.6925,1.1244,
9.252276,-0.0889,0.7090,-0.1576,-2.2088,-2.2500,1.5828,-1.3822,-3.0131,0.8554,
9.268101,-0.0889,0.7090,-0.1576,-2.2088,-2.2500,1.5828,-0.9449,-2.6994,0.8325,
9.288243,-0.2497,0.5990,-0.2910,-2.2088,-2.2500,1.5828,-0.9449,-2.6994,0.8325,
9.289879,-0.2497,0.5990,-0.2910,-3.7567,-3.4219,-0.0046,-0.9449,-2.6994,0.8325,
9.291042,-0.2497,0.5990,-0.2910,-3.7567,-3.4219,-0.0046,-0.6844,-2.2397,1.0599,
9.306797,-0.2497,0.5990,-0.2910,-3.7567,-3.4219,-0.0046,-0.7771,-2.1268,1.3577,
9.327607,-0.0354,0.5206,-0.4446,-3.7567,-3.4219,-0.0046,-0.7771,-2.1268,1.3577,
9.329103,-0.0354,0.5206,-0.4446,-1.8633,-4.2037,-1.6601,-0.7771,-2.1268,1.3577,
9.330128,-0.0354,0.5206,-0.4446,-1.8633,-4.2037,-1.6601,-1.1521,-2.2195,1.3348,
9.347740,-0.0354,0.5206,-0.4446,-1.8633,-4.2037,-1.6601,-1.4445,-2.1002,1.2842,
9.367861,-0.0105,0.6176,-0.3257,-1.8633,-4.2037,-1.6601,-1.4445,-2.1002,1.2842,
9.370388,-0.0105,0.6176,-0.3257,-1.8876,-3.2981,-0.8356,-1.4445,-2.1002,1.2842,
9.372400,-0.0105,0.6176,-0.3257,-1.8876,-3.2981,-0.8356,-1.5494,-1.7066,1.1574,
9.388811,-0.0105,0.6176,-0.3257,-1.8876,-3.2981,-0.8356,-1.3971,-1.3795,0.9412,
9.407726,-0.0054,0.6728,-0.1312,-1.8876,-3.2981,-0.8356,-1.3971,-1.3795,0.9412,
9.410202,-0.0054,0.6728,-0.1312,-2.0984,-2.8028,0.6358,-1.3971,-1.3795,0.9412,
9.412204,-0.0054,0.6728,-0.1312,-2.0984,-2.8028,0.6358,-1.0663,-1.1137,0.7393,
9.428597,-0.0054,0.6728,-0.1312,-2.0984,-2.8028,0.6358,-0.6839,-0.8709,0.5566,
9.447878,0.0061,0.5802,-0.0723,-2.0984,-2.8028,0.6358,-0.6839,-0.8709,0.5566,
9.450284,0.0061,0.5802,-0.0723,-2.1584,-3.7179,0.9683,-0.6839,-0.8709,0.5566,
9.452182,0.0061,0.5802,-0.0723,-2.1584,-3.7179,0.9683,-0.3654,-0.6834,0.4336,
9.467688,0.0061,0.5802,-0.0723,-2.1584,-3.7179,0.9683,-0.1609,-0.5268,0.3318,
9.488217,0.0777,0.7925,-0.1292,-2.1584,-3.7179,0.9683,-0.1609,-0.5268,0.3318,
9.490388,0.0777,0.7925,-0.1292,-1.5607,-1.6200,0.3666,-0.1609,-0.5268,0.3318,
9.492343,0.0777,0.7925,-0.1292,-1.5607,-1.6200,0.3666,-0.0053,-0.3936,0.2397,
9.507261,0.0777,0.7925,-0.1292,-1.5607,-1.6200,0.3666,0.1593,-0.3840,0.0778,
9.527599,0.2658,1.4011,-0.2194,-1.5607,-1.6200,0.3666,0.1593,-0.3840,0.0778,
9.530943,0.2658,1.4011,-0.2194,0.2831,4.3558,-0.4498,0.1593,-0.3840,0.0778,
9.533101,0.2658,1.4011,-0.2194,0.2831,4.3558,-0.4498,0.3563,-0.5412,-0.2573,
9.547109,0.2658,1.4011,-0.2194,0.2831,4.3558,-0.4498,0.7207,-0.7926,-0.6658,
9.567219,0.3709,2.1487,-0.2460,0.2831,4.3558,-0.4498,0.7207,-0.7926,-0.6658,
9.569938,0.3709,2.1487,-0.2460,1.5335,11.6808,-0.4504,0.7207,-0.7926,-0.6658,
9.571807,0.3709,2.1487,-0.2460,1.5335,11.6808,-0.4504,1.2874,-1.0099,-1.0498,
9.592230,0.3709,2.1487,-0.2460,1.5335,11.6808,-0.4504,1.7129,-0.6685,-1.1579,
9.606868,0.2541,1.5296,-0.4185,1.5335,11.6808,-0.4504,1.7129,-0.6685,-1.1579,
9.609235,0.2541,1.5296,-0.4185,0.8764,5.6687,-1.5170,1.7129,-0.6685,-1.1579,
9.611009,0.2541,1.5296,-0.4185,0.8764,5.6687,-1.5170,1.6959,0.2967,-0.9827,
9.627253,0.2541,1.5296,-0.4185,0.8764,5.6687,-1.5170,1.4642,1.2064,-0.9614,
9.646894,0.3073,1.1067,-0.3970,0.8764,5.6687,-1.5170,1.4642,1.2064,-0.9614,
9.649884,0.3073,1.1067,-0.3970,1.6693,1.6482,-0.7644,1.4642,1.2064,-0.9614,
9.651785,0.3073,1.1067,-0.3970,1.6693,1.6482,-0.7644,1.1968,2.0086,-0.9705,
9.667163,0.3073,1.1067,-0.3970,1.6693,1.6482,-0.7644,0.9875,2.7580,-0.9566,
9.687815,0.3261,0.8841,-0.2548,1.6693,1.6482,-0.7644,0.9875,2.7580,-0.9566,
9.690004,0.3261,0.8841,-0.2548,1.8928,-0.4405,0.9042,0.9875,2.7580,-0.9566,
9.691874,0.3261,0.8841,-0.2548,1.8928,-0.4405,0.9042,0.9278,3.3348,-1.0631,
9.707986,0.3261,0.8841,-0.2548,1.8928,-0.4405,0.9042,1.0839,3.7183,-1.2293,
9.726991,0.2814,0.6767,-0.0936,1.8928,-0.4405,0.9042,1.0839,3.7183,-1.2293,
9.729938,0.2814,0.6767,-0.0936,1.3243,-2.4067,2.6070,1.0839,3.7183,-1.2293,
9.732035,0.2814,0.6767,-0.0936,1.3243,-2.4067,2.6070,1.3928,3.9101,-1.4370,
9.746817,0.2814,0.6767,-0.0936,1.3243,-2.4067,2.6070,1.7944,4.0858,-1.6693,
9.767129,0.1669,0.5282,-0.0833,1.3243,-2.4067,2.6070,1.7944,4.0858,-1.6693,
9.770185,0.1669,0.5282,-0.0833,0.1704,-3.7179,3.0460,1.7944,4.0858,-1.6693,
9.772029,0.1669,0.5282,-0.0833,0.1704,-3.7179,3.0460,2.0964,4.5545,-1.8861,
9.786961,0.1669,0.5282,-0.0833,0.1704,-3.7179,3.0460,2.2355,5.2688,-2.0751,
9.806621,0.0882,0.5402,-0.1871,0.1704,-3.7179,3.0460,2.2355,5.2688,-2.0751,
9.808767,0.0882,0.5402,-0.1871,-0.7112,-3.3654,2.4917,2.2355,5.2688,-2.0751,
9.810771,0.0882,0.5402,-0.1871,-0.7112,-3.3654,2.4917,2.2381,5.8472,-2.1790,
9.826575,0.0882,0.5402,-0.1871,-0.7112,-3.3654,2.4917,1.9649,5.7567,-2.0213,
9.846598,-0.0220,0.5814,-0.2988,-0.7112,-3.3654,2.4917,1.9649,5.7567,-2.0213,
9.849465,-0.0220,0.5814,-0.2988,-2.1179,-2.7277,1.7146,1.9649,5.7567,-2.0213,
9.851137,-0.0220,0.5814,-0.2988,-2.1179,-2.7277,1.7146,1.4658,4.8869,-1.7572,
9.866612,-0.0220,0.5814,-0.2988,-2.1179,-2.7277,1.7146,1.0519,3.7508,-1.4136,
9.887556,-0.0515,0.4659,-0.1649,-2.1179,-2.7277,1.7146,1.0519,3.7508,-1.4136,
9.889771,-0.0515,0.4659,-0.1649,-2.6856,-3.7542,3.0950,1.0519,3.7508,-1.4136,
9.891738,-0.0515,0.4659,-0.1649,-2.6856,-3.7542,3.0950,0.7984,2.7574,-1.0594,
9.906381,-0.0515,0.4659,-0.1649,-2.6856,-3.7542,3.0950,0.7228,2.0304,-0.8373,
9.926846,0.1590,0.6758,-0.1317,-2.6856,-3.7542,3.0950,0.7228,2.0304,-0.8373,
9.929196,0.1590,0.6758,-0.1317,-0.7594,-1.6394,3.4572,0.7228,2.0304,-0.8373,
9.931124,0.1590,0.6758,-0.1317,-0.7594,-1.6394,3.4572,0.7792,1.4573,-0.8107,
9.946967,0.1590,0.6758,-0.1317,-0.7594,-1.6394,3.4572,0.8346,0.9566,-0.7521,
9.966944,0.4722,1.4712,-0.6188,-0.7594,-1.6394,3.4572,0.8346,0.9566,-0.7521,
9.970008,0.4722,1.4712,-0.6188,2.3344,6.2301,-1.1788,0.8346,0.9566,-0.7521,
9.972117,0.4722,1.4712,-0.6188,2.3344,6.2301,-1.1788,0.5135,0.3052,-0.6812,
9.991341,0.4722,1.4712,-0.6188,2.3344,6.2301,-1.1788,-0.3244,-0.3734,-0.6163,
10.006767,0.4534,1.8946,-0.6452,2.3344,6.2301,-1.1788,-0.3244,-0.3734,-0.6163,
10.011078,0.4534,1.8946,-0.6452,2.3676,10.3411,-1.4044,-0.3244,-0.3734,-0.6163,
10.013010,0.4534,1.8946,-0.6452,2.3676,10.3411,-1.4044,-0.9715,-0.7111,-0.2317,
10.026735,0.4534,1.8946,-0.6452,2.3676,10.3411,-1.4044,-1.2123,-1.2219,0.2072,
10.046822,0.4048,1.4886,-0.4620,2.3676,10.3411,-1.4044,-1.2123,-1.2219,0.2072,
10.049214,0.4048,1.4886,-0.4620,2.0792,6.1521,0.1032,-1.2123,-1.2219,0.2072,
10.050850,0.4048,1.4886,-0.4620,2.0792,6.1521,0.1032,-1.3545,-2.0213,0.5198,
10.066464,0.4048,1.4886,-0.4620,2.0792,6.1521,0.1032,-1.3875,-2.6514,0.9539,
10.086403,0.2817,0.9594,-0.4151,2.0792,6.1521,0.1032,-1.3875,-2.6514,0.9539,
10.089070,0.2817,0.9594,-0.4151,1.0376,0.7740,0.2634,-1.3875,-2.6514,0.9539,
10.090626,0.2817,0.9594,-0.4151,1.0376,0.7740,0.2634,-1.4919,-3.3689,1.3156,
10.106053,0.2817,0.9594,-0.4151,1.0376,0.7740,0.2634,-1.6868,-4.1567,1.5942,
10.127296,0.1397,0.9115,-0.4884,1.0376,0.7740,0.2634,-1.6868,-4.1567,1.5942,
10.129808,0.1397,0.9115,-0.4884,-0.2325,0.1359,-0.7588,-1.6868,-4.1567,1.5942,
10.131711,0.1397,0.9115,-0.4884,-0.2325,0.1359,-0.7588,-1.9303,-4.6472,1.7806,
10.146988,0.1397,0.9115,-0.4884,-0.2325,0.1359,-0.7588,-2.0837,-4.7585,1.8791,
10.167037,0.0726,0.8280,-0.3696,-0.2325,0.1359,-0.7588,-2.0837,-4.7585,1.8791,
10.169520,0.0726,0.8280,-0.3696,-0.8227,-0.8745,-0.0134,-2.0837,-4.7585,1.8791,
10.171524,0.0726,0.8280,-0.3696,-0.8227,-0.8745,-0.0134,-2.0560,-4.7340,1.9185,
10.189547,0.0726,0.8280,-0.3696,-0.8227,-0.8745,-0.0134,-1.9356,-4.7111,1.8584,
10.206845,0.0794,0.7842,-0.3098,-0.8227,-0.8745,-0.0134,-1.9356,-4.7111,1.8584,
10.210337,0.0794,0.7842,-0.3098,-0.8001,-1.4566,0.1429,-1.9356,-4.7111,1.8584,
10.212531,0.0794,0.7842,-0.3098,-0.8001,-1.4566,0.1429,-1.6794,-4.4102,1.6645,
10.226622,0.0794,0.7842,-0.3098,-0.8001,-1.4566,0.1429,-1.3790,-3.7279,1.4307,
10.246731,-0.0198,0.6574,-0.3699,-0.8001,-1.4566,0.1429,-1.3790,-3.7279,1.4307,
10.249067,-0.0198,0.6574,-0.3699,-1.8479,-2.7843,-0.7446,-1.3790,-3.7279,1.4307,
10.251182,-0.0198,0.6574,-0.3699,-1.8479,-2.7843,-0.7446,-1.3076,-3.1521,1.3726,
10.266303,-0.0198,0.6574,-0.3699,-1.8479,-2.7843,-0.7446,-1.3742,-2.5923,1.4205,
10.286773,0.0508,0.6198,-0.3660,-1.8479,-2.7843,-0.7446,-1.3742,-2.5923,1.4205,
10.289295,0.0508,0.6198,-0.3660,-1.3562,-3.2023,-1.0016,-1.3742,-2.5923,1.4205,
10.291382,0.0508,0.6198,-0.3660,-1.3562,-3.2023,-1.0016,-1.5345,-2.2413,1.3859,
10.306682,0.0508,0.6198,-0.3660,-1.3562,-3.2023,-1.0016,-1.5697,-1.9665,1.3044,
10.326166,0.0589,0.5604,-0.1957,-1.3562,-3.2023,-1.0016,-1.5697,-1.9665,1.3044,
10.328701,0.0589,0.5604,-0.1957,-1.5760,-3.8243,0.2585,-1.5697,-1.9665,1.3044,
10.330607,0.0589,0.5604,-0.1957,-1.5760,-3.8243,0.2585,-1.3992,-1.8717,1.1521,
10.346363,0.0589,0.5604,-0.1957,-1.5760,-3.8243,0.2585,-1.1297,-1.6970,1.0088,
10.366184,0.1033,0.5956,-0.0880,-1.5760,-3.8243,0.2585,-1.1297,-1.6970,1.0088,
10.368883,0.1033,0.5956,-0.0880,-1.4001,-3.4830,1.0051,-1.1297,-1.6970,1.0088,
10.370497,0.1033,0.5956,-0.0880,-1.4001,-3.4830,1.0051,-0.8032,-1.4328,0.8043,
10.386129,0.1033,0.5956,-0.0880,-1.4001,-3.4830,1.0051,-0.4655,-1.1558,0.5422,
10.406815,0.0635,0.5089,-0.0630,-1.4001,-3.4830,1.0051,-0.4655,-1.1558,0.5422,
10.411949,0.0635,0.5089,-0.0630,-1.9467,-4.3118,1.1429,-0.4655,-1.1558,0.5422,
10.413892,0.0635,0.5089,-0.0630,-1.9467,-4.3118,1.1429,-0.1976,-0.8613,0.3153,
10.426337,0.0635,0.5089,-0.0630,-1.9467,-4.3118,1.1429,-0.0138,-0.5433,0.1561,
10.446588,0.0493,0.7234,-0.1016,-1.9467,-4.3118,1.1429,-0.0138,-0.5433,0.1561,
10.450477,0.0493,0.7234,-0.1016,-2.1234,-2.1928,0.7979,-0.0138,-0.5433,0.1561,
10.452363,0.0493,0.7234,-0.1016,-2.1234,-2.1928,0.7979,0.1672,-0.2216,0.0810,
10.466403,0.0493,0.7234,-0.1016,-2.1234,-2.1928,0.7979,0.4112,-0.0378,-0.0064,
10.487519,0.2814,1.3960,-0.2289,-2.1234,-2.1928,0.7979,0.4112,-0.0378,-0.0064,
10.489681,0.2814,1.3960,-0.2289,0.1848,4.4119,-0.3349,0.4112,-0.0378,-0.0064,
10.491507,0.2814,1.3960,-0.2289,0.1848,4.4119,-0.3349,0.6317,-0.2519,-0.2850,
10.505957,0.2814,1.3960,-0.2289,0.1848,4.4119,-0.3349,0.8815,-0.7100,-0.6908,
10.525763,0.3858,2.1863,-0.2973,0.1848,4.4119,-0.3349,0.8815,-0.7100,-0.6908,
10.528913,0.3858,2.1863,-0.2973,1.4274,12.1714,-0.6798,0.8815,-0.7100,-0.6908,
10.530656,0.3858,2.1863,-0.2973,1.4274,12.1714,-0.6798,1.2836,-1.1249,-1.0919,
10.545526,0.3858,2.1863,-0.2973,1.4274,12.1714,-0.6798,1.5766,-0.9870,-1.2197,
10.565496,0.2387,1.6295,-0.4884,1.4274,12.1714,-0.6798,1.5766,-0.9870,-1.2197,
10.568070,0.2387,1.6295,-0.4884,0.5159,6.7638,-1.9391,1.5766,-0.9870,-1.2197,
10.569545,0.2387,1.6295,-0.4884,0.5159,6.7638,-1.9391,1.4125,-0.0597,-0.9486,
10.585606,0.2387,1.6295,-0.4884,0.5159,6.7638,-1.9391,1.0408,0.6631,-0.9305,
10.605398,0.3650,1.2181,-0.4869,0.5159,6.7638,-1.9391,1.0408,0.6631,-0.9305,
10.608097,0.3650,1.2181,-0.4869,2.0590,2.8203,-1.4940,1.0408,0.6631,-0.9305,
10.609954,0.3650,1.2181,-0.4869,2.0590,2.8203,-1.4940,0.6274,0.9374,-0.9236,
10.626663,0.3650,1.2181,-0.4869,2.0590,2.8203,-1.4940,0.2445,1.0354,-0.8091,
10.645900,0.3335,0.8280,-0.2746,2.0590,2.8203,-1.4940,0.2445,1.0354,-0.8091,
10.649356,0.3335,0.8280,-0.2746,1.9335,-0.9943,0.6895,0.2445,1.0354,-0.8091,
10.651654,0.3335,0.8280,-0.2746,1.9335,-0.9943,0.6895,0.0799,1.1212,-0.6722,
10.665553,0.3335,0.8280,-0.2746,1.9335,-0.9943,0.6895,0.1907,1.2980,-0.7153,
10.685513,0.3156,0.6584,-0.1151,1.9335,-0.9943,0.6895,0.1907,1.2980,-0.7153,
10.688199,0.3156,0.6584,-0.1151,1.7941,-2.6762,2.2116,0.1907,1.2980,-0.7153,
10.689692,0.3156,0.6584,-0.1151,1.7941,-2.6762,2.2116,0.4517,1.5579,-0.9358,
10.705512,0.3156,0.6584,-0.1151,1.7941,-2.6762,2.2116,0.7760,2.1518,-1.1388,
10.725983,0.3413,0.6425,0.0134,1.7941,-2.6762,2.2116,0.7760,2.1518,-1.1388,
10.728329,0.3413,0.6425,0.0134,2.1714,-2.7996,3.6031,0.7760,2.1518,-1.1388,
10.730045,0.3413,0.6425,0.0134,2.1714,-2.7996,3.6031,1.2000,3.2624,-1.4008,
10.746817,0.3413,0.6425,0.0134,2.1714,-2.7996,3.6031,1.5899,4.2254,-1.6655,
10.765202,0.2362,0.6484,-0.1752,2.1714,-2.7996,3.6031,1.5899,4.2254,-1.6655,
10.767888,0.2362,0.6484,-0.1752,1.1513,-2.6095,2.0870,1.5899,4.2254,-1.6655,
10.769724,0.2362,0.6484,-0.1752,1.1513,-2.6095,2.0870,1.7236,4.6131,-1.6666,
10.785297,0.2362,0.6484,-0.1752,1.1513,-2.6095,2.0870,1.3486,4.0086,-1.5313,
10.806154,0.1757,0.7459,-0.3061,1.1513,-2.6095,2.0870,1.3486,4.0086,-1.5313,
10.809668,0.1757,0.7459,-0.3061,0.4403,-1.4896,1.1359,1.3486,4.0086,-1.5313,
10.811643,0.1757,0.7459,-0.3061,0.4403,-1.4896,1.1359,0.5928,2.5534,-1.1388,
10.825889,0.1757,0.7459,-0.3061,0.4403,-1.4896,1.1359,0.0399,1.4163,-0.6333,
10.845380,0.3188,0.6919,-0.1537,0.4403,-1.4896,1.1359,0.0399,1.4163,-0.6333,
10.847677,0.3188,0.6919,-0.1537,1.8247,-2.0118,2.6388,0.0399,1.4163,-0.6333,
10.849369,0.3188,0.6919,-0.1537,1.8247,-2.0118,2.6388,-0.2200,0.7020,-0.3840,
10.866363,0.3188,0.6919,-0.1537,1.8247,-2.0118,2.6388,-0.2679,-0.0256,-0.1822,
10.887421,0.3633,0.6477,-0.1559,1.8247,-2.0118,2.6388,-0.2679,-0.0256,-0.1822,
10.889537,0.3633,0.6477,-0.1559,2.3048,-2.4998,2.5133,-0.2679,-0.0256,-0.1822,
10.891358,0.3633,0.6477,-0.1559,2.3048,-2.4998,2.5133,-0.1555,-0.6999,0.0591,
10.906143,0.3633,0.6477,-0.1559,2.3048,-2.4998,2.5133,-0.0735,-1.4690,0.2503,
10.925596,0.4385,0.6667,-0.4048,2.3048,-2.4998,2.5133,-0.0735,-1.4690,0.2503,
10.928599,0.4385,0.6667,-0.4048,3.1634,-2.3242,0.0851,-0.0735,-1.4690,0.2503,
10.930577,0.4385,0.6667,-0.4048,3.1634,-2.3242,0.0851,-0.1374,-2.1822,0.4202,
10.945514,0.4385,0.6667,-0.4048,3.1634,-2.3242,0.0851,-0.4341,-2.7393,0.6296,
10.965537,0.3264,1.3598,-0.5868,3.1634,-2.3242,0.0851,-0.4341,-2.7393,0.6296,
10.968657,0.3264,1.3598,-0.5868,2.2759,4.4433,-1.6994,-0.4341,-2.7393,0.6296,
10.970879,0.3264,1.3598,-0.5868,2.2759,4.4433,-1.6994,-0.7766,-3.0024,1.0780,
10.990427,0.3264,1.3598,-0.5868,2.2759,4.4433,-1.6994,-0.9326,-3.1894,1.0882,
11.005851,0.2971,1.3525,-0.4947,2.2759,4.4433,-1.6994,-0.9326,-3.1894,1.0882,
11.009854,0.2971,1.3525,-0.4947,2.0919,4.2741,-0.9941,-0.9326,-3.1894,1.0882,
11.011746,0.2971,1.3525,-0.4947,2.0919,4.2741,-0.9941,-1.0599,-3.0893,0.8954,
11.024908,0.2971,1.3525,-0.4947,2.0919,4.2741,-0.9941,-1.1265,-2.6546,0.9422,
11.044966,0.1725,1.1600,-0.2658,2.0919,4.2741,-0.9941,-1.1265,-2.6546,0.9422,
11.047274,0.1725,1.1600,-0.2658,0.9648,2.2539,0.9425,-1.1265,-2.6546,0.9422,
11.048874,0.1725,1.1600,-0.2658,0.9648,2.2539,0.9425,-0.9183,-2.4533,1.0237,
11.064634,0.1725,1.1600,-0.2658,0.9648,2.2539,0.9425,-0.6748,-2.4922,0.9859,
11.085451,0.2614,1.6222,-0.4217,0.9648,2.2539,0.9425,-0.6748,-2.4922,0.9859,
11.087693,0.2614,1.6222,-0.4217,1.8072,6.7042,-0.8031,-0.6748,-2.4922,0.9859,
11.089450,0.2614,1.6222,-0.4217,1.8072,6.7042,-0.8031,-0.6663,-2.6594,0.6908,
11.105970,0.2614,1.6222,-0.4217,1.8072,6.7042,-0.8031,-0.7489,-2.7713,0.3856,
11.126032,-0.0154,1.2281,-0.2358,1.8072,6.7042,-0.8031,-0.7489,-2.7713,0.3856,
11.128846,-0.0154,1.2281,-0.2358,-0.7513,2.7655,0.8318,-0.7489,-2.7713,0.3856,
11.130827,-0.0154,1.2281,-0.2358,-0.7513,2.7655,0.8318,-0.7686,-2.6099,0.3169,
11.145132,-0.0154,1.2281,-0.2358,-0.7513,2.7655,0.8318,-0.7004,-2.2173,0.3143,
11.165616,-0.2321,0.8023,-0.1422,-0.7513,2.7655,0.8318,-0.7004,-2.2173,0.3143,
11.167962,-0.2321,0.8023,-0.1422,-2.7007,-1.4898,1.5260,-0.7004,-2.2173,0.3143,
11.169756,-0.2321,0.8023,-0.1422,-2.7007,-1.4898,1.5260,-0.6306,-1.7454,0.4037,
11.188323,-0.2321,0.8023,-0.1422,-2.7007,-1.4898,1.5260,-0.6077,-1.3092,0.6035,
11.205024,-0.2981,0.5849,-0.1801,-2.7007,-1.4898,1.5260,-0.6077,-1.3092,0.6035,
11.208067,-0.2981,0.5849,-0.1801,-3.3577,-3.6829,0.9457,-0.6077,-1.3092,0.6035,
11.210055,-0.2981,0.5849,-0.1801,-3.3577,-3.6829,0.9457,-0.6264,-1.0397,0.8464,
11.225112,-0.2981,0.5849,-0.1801,-3.3577,-3.6829,0.9457,-0.6812,-1.0860,0.9316,
11.244841,-0.0552,0.5165,-0.2284,-3.3577,-3.6829,0.9457,-0.6812,-1.0860,0.9316,
11.248287,-0.0552,0.5165,-0.2284,-1.2009,-4.4013,0.2501,-0.6812,-1.0860,0.9316,
11.250484,-0.0552,0.5165,-0.2284,-1.2009,-4.4013,0.2501,-0.7286,-1.5196,0.7691,
11.265783,-0.0552,0.5165,-0.2284,-1.2009,-4.4013,0.2501,-0.7217,-2.0528,0.5710,
11.285690,-0.0809,0.5675,-0.2531,-1.2009,-4.4013,0.2501,-0.7217,-2.0528,0.5710,
11.288155,-0.0809,0.5675,-0.2531,-1.5377,-3.9509,-0.2164,-0.7217,-2.0528,0.5710,
11.290166,-0.0809,0.5675,-0.2531,-1.5377,-3.9509,-0.2164,-0.6344,-2.3968,0.4447,
11.305234,-0.0809,0.5675,-0.2531,-1.5377,-3.9509,-0.2164,-0.5012,-2.3084,0.3595,
11.325093,-0.0205,0.6748,-0.2096,-1.5377,-3.9509,-0.2164,-0.5012,-2.3084,0.3595,
11.329045,-0.0205,0.6748,-0.2096,-0.8940,-2.9379,0.0613,-0.5012,-2.3084,0.3595,
11.331033,-0.0205,0.6748,-0.2096,-0.8940,-2.9379,0.0613,-0.3068,-1.9729,0.3015,
11.344456,-0.0205,0.6748,-0.2096,-0.8940,-2.9379,0.0613,-0.1326,-1.5979,0.2530,
11.365148,-0.0051,0.6474,-0.1510,-0.8940,-2.9379,0.0613,-0.1326,-1.5979,0.2530,
11.368942,-0.0051,0.6474,-0.1510,-0.7002,-3.2169,0.6002,-0.1326,-1.5979,0.2530,
11.371013,-0.0051,0.6474,-0.1510,-0.7002,-3.2169,0.6002,-0.0016,-1.3715,0.2461,
11.385740,-0.0051,0.6474,-0.1510,-0.7002,-3.2169,0.6002,0.0613,-1.2900,0.3111,
11.405836,0.0002,0.6411,-0.1480,-0.7002,-3.2169,0.6002,0.0613,-1.2900,0.3111,
11.409299,0.0002,0.6411,-0.1480,-0.6423,-3.2694,0.6748,0.0613,-1.2900,0.3111,
11.411089,0.0002,0.6411,-0.1480,-0.6423,-3.2694,0.6748,0.0581,-1.2922,0.3851,
11.424918,0.0002,0.6411,-0.1480,-0.6423,-3.2694,0.6748,0.0527,-1.3087,0.4320,
11.444692,0.0938,1.0136,-0.1950,-0.6423,-3.2694,0.6748,0.0527,-1.3087,0.4320,
11.447638,0.0938,1.0136,-0.1950,0.2312,0.3973,0.2705,0.0527,-1.3087,0.4320,
11.449378,0.0938,1.0136,-0.1950,0.2312,0.3973,0.2705,0.0969,-1.3241,0.3712,
11.464816,0.0938,1.0136,-0.1950,0.2312,0.3973,0.2705,0.2258,-1.3465,0.1715,
11.485426,0.1600,1.4333,-0.2094,0.2312,0.3973,0.2705,0.2258,-1.3465,0.1715,
11.488317,0.1600,1.4333,-0.2094,0.8888,4.5236,0.1883,0.2258,-1.3465,0.1715,
11.490005,0.1600,1.4333,-0.2094,0.8888,4.5236,0.1883,0.4250,-1.3263,-0.1166,
11.505029,0.1600,1.4333,-0.2094,0.8888,4.5236,0.1883,0.5928,-1.0045,-0.3649,
11.524600,0.0682,1.3686,-0.2871,0.8888,4.5236,0.1883,0.5928,-1.0045,-0.3649,
11.527041,0.0682,1.3686,-0.2871,0.1881,3.9315,-0.3527,0.5928,-1.0045,-0.3649,
11.528309,0.0682,1.3686,-0.2871,0.1881,3.9315,-0.3527,0.6210,-0.2029,-0.4831,
11.544058,0.0682,1.3686,-0.2871,0.1881,3.9315,-0.3527,0.4762,0.8932,-0.5225,
11.564699,0.1766,1.7255,-0.4014,0.1881,3.9315,-0.3527,0.4762,0.8932,-0.5225,
11.567736,0.1766,1.7255,-0.4014,1.4049,7.4778,-1.2702,0.4762,0.8932,-0.5225,
11.569301,0.1766,1.7255,-0.4014,1.4049,7.4778,-1.2702,0.3057,1.7774,-0.5934,
11.585247,0.1766,1.7255,-0.4014,1.4049,7.4778,-1.2702,0.1390,2.1348,-0.7276,
11.604968,0.0515,1.3107,-0.2524,1.4049,7.4778,-1.2702,0.1390,2.1348,-0.7276,
11.607477,0.0515,1.3107,-0.2524,0.2165,3.4285,0.2503,0.1390,2.1348,-0.7276,
11.609008,0.0515,1.3107,-0.2524,0.2165,3.4285,0.2503,0.0724,2.0703,-0.7574,
11.624830,0.0515,1.3107,-0.2524,0.2165,3.4285,0.2503,0.0767,1.8445,-0.5965,
11.644895,0.0540,0.7388,-0.2077,0.2165,3.4285,0.2503,0.0767,1.8445,-0.5965,
11.647059,0.0540,0.7388,-0.2077,0.2823,-2.1754,0.6959,0.0767,1.8445,-0.5965,
11.648820,0.0540,0.7388,-0.2077,0.2823,-2.1754,0.6959,0.0240,1.5750,-0.4581,
11.664898,0.0540,0.7388,-0.2077,0.2823,-2.1754,0.6959,-0.0692,1.3076,-0.3846,
11.683962,0.0821,0.6633,-0.2174,0.2823,-2.1754,0.6959,-0.0692,1.3076,-0.3846,
11.684951,0.0821,0.6633,-0.2174,0.5486,-2.9229,0.5726,-0.0692,1.3076,-0.3846,
11.685554,0.0821,0.6633,-0.2174,0.5486,-2.9229,0.5726,-0.1348,1.1649,-0.3617,
11.704106,0.0821,0.6633,-0.2174,0.5486,-2.9229,0.5726,-0.1358,1.1686,-0.4171,
11.724077,0.0723,0.5910,-0.1532,0.5486,-2.9229,0.5726,-0.1358,1.1686,-0.4171,
11.727323,0.0723,0.5910,-0.1532,0.4749,-3.6499,1.1398,-0.1358,1.1686,-0.4171,
11.729049,0.0723,0.5910,-0.1532,0.4749,-3.6499,1.1398,-0.0208,1.2757,-0.4522,
11.744750,0.0723,0.5910,-0.1532,0.4749,-3.6499,1.1398,0.1459,1.4014,-0.4272,
11.764132,0.0537,0.4720,-0.1395,0.4749,-3.6499,1.1398,0.1459,1.4014,-0.4272,
11.767687,0.0537,0.4720,-0.1395,0.3180,-4.8130,1.2863,0.1459,1.4014,-0.4272,
11.769799,0.0537,0.4720,-0.1395,0.3180,-4.8130,1.2863,0.2951,1.5840,-0.3792,
11.784387,0.0537,0.4720,-0.1395,0.3180,-4.8130,1.2863,0.4139,1.8429,-0.3372,
11.804667,0.0672,0.4361,-0.1375,0.3180,-4.8130,1.2863,0.4139,1.8429,-0.3372,
11.807066,0.0672,0.4361,-0.1375,0.3996,-5.1302,1.4216,0.4139,1.8429,-0.3372,
11.808801,0.0672,0.4361,-0.1375,0.3996,-5.1302,1.4216,0.5167,2.1284,-0.2850,
11.824960,0.0672,0.4361,-0.1375,0.3996,-5.1302,1.4216,0.6125,2.3532,-0.2189,
11.845061,0.1178,0.6005,-0.1669,0.3996,-5.1302,1.4216,0.6125,2.3532,-0.2189,
11.847468,0.1178,0.6005,-0.1669,0.7332,-3.4575,1.3164,0.6125,2.3532,-0.2189,
11.849186,0.1178,0.6005,-0.1669,0.7332,-3.4575,1.3164,0.6946,2.4602,-0.1257,
11.864451,0.1178,0.6005,-0.1669,0.7332,-3.4575,1.3164,0.7521,2.4096,-0.0431,
11.884222,0.3530,1.3923,-0.3613,0.7332,-3.4575,1.3164,0.7521,2.4096,-0.0431,
11.887484,0.3530,1.3923,-0.3613,2.7313,4.3848,-0.3950,0.7521,2.4096,-0.0431,
11.889405,0.3530,1.3923,-0.3613,2.7313,4.3848,-0.3950,0.7228,2.1476,-0.0810,
11.906684,0.3530,1.3923,-0.3613,2.7313,4.3848,-0.3950,0.5438,1.5100,-0.3254,
11.923703,0.3660,2.2488,-0.6181,2.7313,4.3848,-0.3950,0.5438,1.5100,-0.3254,
11.926293,0.3660,2.2488,-0.6181,2.6964,12.8540,-2.7377,0.5438,1.5100,-0.3254,
11.928376,0.3660,2.2488,-0.6181,2.6964,12.8540,-2.7377,0.2365,0.8400,-0.3840,
11.943956,0.3660,2.2488,-0.6181,2.6964,12.8540,-2.7377,-0.0213,0.6530,-0.0474,
11.964804,0.1182,1.4739,-0.4158,2.6964,12.8540,-2.7377,-0.0213,0.6530,-0.0474,
11.967594,0.1182,1.4739,-0.4158,0.2483,5.2662,-0.7424,-0.0213,0.6530,-0.0474,
11.969354,0.1182,1.4739,-0.4158,0.2483,5.2662,-0.7424,-0.3111,1.0179,0.2637,
11.988795,0.1182,1.4739,-0.4158,0.2483,5.2662,-0.7424,-0.4341,1.4903,0.3904,
12.003533,0.1092,1.0745,-0.2529,0.2483,5.2662,-0.7424,-0.4341,1.4903,0.3904,
12.006457,0.1092,1.0745,-0.2529,-0.1220,1.3173,0.6653,-0.4341,1.4903,0.3904,
12.007782,0.1092,1.0745,-0.2529,-0.1220,1.3173,0.6653,-0.4309,1.8621,0.4112,
12.023844,0.1092,1.0745,-0.2529,-0.1220,1.3173,0.6653,-0.4144,1.9420,0.2892,
12.043992,0.0506,0.9381,-0.1654,-0.1220,1.3173,0.6653,-0.4144,1.9420,0.2892,
12.046833,0.0506,0.9381,-0.1654,-1.0551,-0.0506,1.2616,-0.4144,1.9420,0.2892,
12.048663,0.0506,0.9381,-0.1654,-1.0551,-0.0506,1.2616,-0.2653,1.6916,0.1007,
12.064015,0.0506,0.9381,-0.1654,-1.0551,-0.0506,1.2616,0.0037,1.1494,-0.0101,
12.084045,0.0095,0.8539,-0.3279,-1.0551,-0.0506,1.2616,0.0037,1.1494,-0.0101,
12.086369,0.0095,0.8539,-0.3279,-1.6180,-0.8914,-0.4725,0.0037,1.1494,-0.0101,
12.088382,0.0095,0.8539,-0.3279,-1.6180,-0.8914,-0.4725,0.1688,0.4794,-0.0272,
12.103860,0.0095,0.8539,-0.3279,-1.6180,-0.8914,-0.4725,0.2274,-0.2663,0.0549,
12.123997,0.1378,0.6347,-0.5089,-1.6180,-0.8914,-0.4725,0.2274,-0.2663,0.0549,
12.126424,0.1378,0.6347,-0.5089,-0.3659,-3.0116,-2.1588,0.2274,-0.2663,0.0549,
12.128366,0.1378,0.6347,-0.5089,-0.3659,-3.0116,-2.1588,0.2003,-0.8778,0.1880,
12.143528,0.1378,0.6347,-0.5089,-0.3659,-3.0116,-2.1588,0.1715,-0.9779,0.2690,
12.164469,0.1586,0.4874,-0.4835,-0.3659,-3.0116,-2.1588,0.1715,-0.9779,0.2690,
12.167981,0.1586,0.4874,-0.4835,-0.1393,-4.4185,-1.7790,0.1715,-0.9779,0.2690,
12.170215,0.1586,0.4874,-0.4835,-0.1393,-4.4185,-1.7790,0.1603,-0.6408,0.3201,
12.185066,0.1586,0.4874,-0.4835,-0.1393,-4.4185,-1.7790,0.0905,0.0772,0.3020,
12.203634,0.1989,0.5460,-0.3540,-0.1393,-4.4185,-1.7790,0.0905,0.0772,0.3020,
12.206074,0.1989,0.5460,-0.3540,0.1757,-3.8075,-0.4446,0.0905,0.0772,0.3020,
12.207907,0.1989,0.5460,-0.3540,0.1757,-3.8075,-0.4446,-0.0320,0.9843,0.2077,
12.224210,0.1989,0.5460,-0.3540,0.1757,-3.8075,-0.4446,-0.0719,1.7369,0.0708,
12.243853,0.2463,0.8135,-0.1910,0.1757,-3.8075,-0.4446,-0.0719,1.7369,0.0708,
12.246260,0.2463,0.8135,-0.1910,0.4281,-1.1816,1.0307,-0.0719,1.7369,0.0708,
12.248073,0.2463,0.8135,-0.1910,0.4281,-1.1816,1.0307,0.0138,2.1476,-0.1145,
12.263867,0.2463,0.8135,-0.1910,0.4281,-1.1816,1.0307,0.2573,2.1854,-0.3057,
12.283987,0.1849,0.8243,-0.1483,0.4281,-1.1816,1.0307,0.2573,2.1854,-0.3057,
12.286234,0.1849,0.8243,-0.1483,-0.3408,-1.0788,1.3192,0.2573,2.1854,-0.3057,
12.288157,0.1849,0.8243,-0.1483,-0.3408,-1.0788,1.3192,0.5284,1.9633,-0.3712,
12.304327,0.1849,0.8243,-0.1483,-0.3408,-1.0788,1.3192,0.6051,1.6874,-0.3654,
12.323992,0.1187,0.6586,-0.2560,-0.3408,-1.0788,1.3192,0.6051,1.6874,-0.3654,
12.327502,0.1187,0.6586,-0.2560,-1.0586,-2.6711,0.3107,0.6051,1.6874,-0.3654,
12.329458,0.1187,0.6586,-0.2560,-1.0586,-2.6711,0.3107,0.4442,1.5105,-0.3297,
12.343694,0.1187,0.6586,-0.2560,-1.0586,-2.6711,0.3107,0.2056,1.4424,-0.2983,
12.363815,0.0906,0.6152,-0.2157,-1.0586,-2.6711,0.3107,0.2056,1.4424,-0.2983,
12.366171,0.0906,0.6152,-0.2157,-1.3860,-3.0887,0.6918,0.2056,1.4424,-0.2983,
12.368065,0.0906,0.6152,-0.2157,-1.3860,-3.0887,0.6918,0.0399,1.4248,-0.2871,
12.384050,0.0906,0.6152,-0.2157,-1.3860,-3.0887,0.6918,-0.0059,1.3950,-0.3111,
12.404107,0.1634,0.9762,-0.2255,-1.3860,-3.0887,0.6918,-0.0059,1.3950,-0.3111,
12.406629,0.1634,0.9762,-0.2255,-0.7183,0.4242,0.4722,-0.0059,1.3950,-0.3111,
12.408302,0.1634,0.9762,-0.2255,-0.7183,0.4242,0.4722,0.0671,1.2948,-0.3851,
12.423598,0.1634,0.9762,-0.2255,-0.7183,0.4242,0.4722,0.1886,1.0786,-0.4874,
12.443363,0.1710,1.2902,-0.2656,-0.7183,0.4242,0.4722,0.1886,1.0786,-0.4874,
12.446441,0.1710,1.2902,-0.2656,-0.5944,3.4684,0.0107,0.1886,1.0786,-0.4874,
12.448409,0.1710,1.2902,-0.2656,-0.5944,3.4684,0.0107,0.3169,0.8101,-0.5534,
12.462802,0.1710,1.2902,-0.2656,-0.5944,3.4684,0.0107,0.5145,0.6525,-0.5305,
12.483292,0.3735,1.7849,-0.3936,-0.5944,3.4684,0.0107,0.5145,0.6525,-0.5305,
12.485505,0.3735,1.7849,-0.3936,1.5118,8.3128,-1.1564,0.5145,0.6525,-0.5305,
12.487239,0.3735,1.7849,-0.3936,1.5118,8.3128,-1.1564,0.6701,0.4996,-0.6179,
12.504505,0.3735,1.7849,-0.3936,1.5118,8.3128,-1.1564,0.7249,0.5960,-0.6924,
12.523062,0.2873,1.2958,-0.2795,1.5118,8.3128,-1.1564,0.7249,0.5960,-0.6924,
12.526037,0.2873,1.2958,-0.2795,0.8452,3.5439,0.1723,0.7249,0.5960,-0.6924,
12.527903,0.2873,1.2958,-0.2795,0.8452,3.5439,0.1723,0.8240,0.8730,-0.6152,
12.542336,0.2873,1.2958,-0.2795,0.8452,3.5439,0.1723,0.8309,1.1729,-0.5385,
12.562995,0.3794,1.1343,-0.3389,0.8452,3.5439,0.1723,0.8309,1.1729,-0.5385,
12.565189,0.3794,1.1343,-0.3389,1.8342,2.0170,-0.1863,0.8309,1.1729,-0.5385,
12.566648,0.3794,1.1343,-0.3389,1.8342,2.0170,-0.1863,0.7084,1.4701,-0.5593,
12.582600,0.3794,1.1343,-0.3389,1.8342,2.0170,-0.1863,0.5934,1.7572,-0.6253,
12.603367,0.3819,0.8871,-0.2780,1.8342,2.0170,-0.1863,0.5934,1.7572,-0.6253,
12.605737,0.3819,0.8871,-0.2780,1.8665,-0.3671,0.5250,0.5934,1.7572,-0.6253,
12.607356,0.3819,0.8871,-0.2780,1.8665,-0.3671,0.5250,0.5198,1.9148,-0.7531,
12.623767,0.3819,0.8871,-0.2780,1.8665,-0.3671,0.5250,0.5060,1.9835,-0.9017,
12.642298,0.3093,0.7442,-0.1830,1.8665,-0.3671,0.5250,0.5060,1.9835,-0.9017,
12.644193,0.3093,0.7442,-0.1830,1.1612,-1.7634,1.4718,0.5060,1.9835,-0.9017,
12.645289,0.3093,0.7442,-0.1830,1.1612,-1.7634,1.4718,0.5997,2.0693,-1.0392,
12.663706,0.3093,0.7442,-0.1830,1.1612,-1.7634,1.4718,0.7760,2.4256,-1.1047,
12.682428,0.2685,0.6848,-0.1331,1.1612,-1.7634,1.4718,0.7760,2.4256,-1.1047,
12.683785,0.2685,0.6848,-0.1331,0.8485,-2.3326,2.0428,0.7760,2.4256,-1.1047,
12.684685,0.2685,0.6848,-0.1331,0.8485,-2.3326,2.0428,0.9678,2.7905,-1.1803,
12.702396,0.2685,0.6848,-0.1331,0.8485,-2.3326,2.0428,1.1851,2.9210,-1.1867,
12.723529,0.2243,0.5399,-0.1104,0.8485,-2.3326,2.0428,1.1851,2.9210,-1.1867,
12.725286,0.2243,0.5399,-0.1104,0.4498,-3.6879,2.4519,1.1851,2.9210,-1.1867,
12.726684,0.2243,0.5399,-0.1104,0.4498,-3.6879,2.4519,1.3875,2.7990,-1.1270,
12.742999,0.2243,0.5399,-0.1104,0.4498,-3.6879,2.4519,1.5212,2.5316,-1.0173,
12.763104,0.2177,0.4285,-0.1524,0.4498,-3.6879,2.4519,1.5212,2.5316,-1.0173,
12.765347,0.2177,0.4285,-0.1524,0.3744,-4.6401,2.3712,1.5212,2.5316,-1.0173,
12.767141,0.2177,0.4285,-0.1524,0.3744,-4.6401,2.3712,1.5425,2.1758,-0.8778,
12.782596,0.2177,0.4285,-0.1524,0.3744,-4.6401,2.3712,1.4743,1.8035,-0.6999,
12.802898,0.2792,0.4652,-0.2060,0.3744,-4.6401,2.3712,1.4743,1.8035,-0.6999,
12.805701,0.2792,0.4652,-0.2060,0.9316,-4.0925,2.2328,1.4743,1.8035,-0.6999,
12.807487,0.2792,0.4652,-0.2060,0.9316,-4.0925,2.2328,1.3497,1.4685,-0.5481,
12.824088,0.2792,0.4652,-0.2060,0.9316,-4.0925,2.2328,1.1750,1.2314,-0.4107,
12.843076,0.3579,0.8253,-0.4456,0.9316,-4.0925,2.2328,1.1750,1.2314,-0.4107,
12.845398,0.3579,0.8253,-0.4456,1.6283,-0.3757,0.2168,1.1750,1.2314,-0.4107,
12.847197,0.3579,0.8253,-0.4456,1.6283,-0.3757,0.2168,0.8149,0.9880,-0.2455,
12.863011,0.3579,0.8253,-0.4456,1.6283,-0.3757,0.2168,0.1997,0.6898,0.0133,
12.882882,0.4859,1.5716,-0.7400,1.6283,-0.3757,0.2168,0.1997,0.6898,0.0133,
12.886492,0.4859,1.5716,-0.7400,2.7653,7.0242,-2.5618,0.1997,0.6898,0.0133,
12.888563,0.4859,1.5716,-0.7400,2.7653,7.0242,-2.5618,-0.6301,0.2008,0.2972,
12.905049,0.4859,1.5716,-0.7400,2.7653,7.0242,-2.5618,-1.3358,-0.4884,0.5412,
12.922868,0.4664,1.8780,-0.5397,2.7653,7.0242,-2.5618,-1.3358,-0.4884,0.5412,
12.925246,0.4664,1.8780,-0.5397,2.4582,9.8844,-0.9161,-1.3358,-0.4884,0.5412,
12.927069,0.4664,1.8780,-0.5397,2.4582,9.8844,-0.9161,-1.6346,-1.2842,0.8426,
12.942864,0.4664,1.8780,-0.5397,2.4582,9.8844,-0.9161,-1.5878,-2.1018,1.0855,
12.962660,0.2812,1.4270,-0.3408,2.4582,9.8844,-0.9161,-1.5878,-2.1018,1.0855,
12.964686,0.2812,1.4270,-0.3408,0.5903,5.2791,0.6220,-1.5878,-2.1018,1.0855,
12.966245,0.2812,1.4270,-0.3408,0.5903,5.2791,0.6220,-1.3673,-2.8618,1.2394,
12.982932,0.2812,1.4270,-0.3408,0.5903,5.2791,0.6220,-1.2661,-3.2150,1.3396,
13.002033,0.1642,1.0964,-0.3660,0.5903,5.2791,0.6220,-1.2661,-3.2150,1.3396,
13.005397,0.1642,1.0964,-0.3660,-0.5400,1.9482,0.1773,-1.2661,-3.2150,1.3396,
13.007277,0.1642,1.0964,-0.3660,-0.5400,1.9482,0.1773,-1.3486,-3.2895,1.3982,
13.023187,0.1642,1.0964,-0.3660,-0.5400,1.9482,0.1773,-1.4738,-3.3108,1.4131,
13.042166,0.0916,0.9091,-0.2946,-0.5400,1.9482,0.1773,-1.4738,-3.3108,1.4131,
13.044992,0.0916,0.9091,-0.2946,-1.2648,0.0262,0.6611,-1.4738,-3.3108,1.4131,
13.046488,0.0916,0.9091,-0.2946,-1.2648,0.0262,0.6611,-1.5739,-3.3444,1.3976,
13.062607,0.0916,0.9091,-0.2946,-1.2648,0.0262,0.6611,-1.6560,-3.3226,1.4109,
13.082605,0.0298,0.7432,-0.2321,-1.2648,0.0262,0.6611,-1.6560,-3.3226,1.4109,
13.084828,0.0298,0.7432,-0.2321,-1.8826,-1.7089,0.9787,-1.6560,-3.3226,1.4109,
13.086704,0.0298,0.7432,-0.2321,-1.8826,-1.7089,0.9787,-1.6980,-3.2251,1.4440,
13.104187,0.0298,0.7432,-0.2321,-1.8826,-1.7089,0.9787,-1.6735,-3.0999,1.4248,
13.122929,0.0391,0.6105,-0.1500,-1.8826,-1.7089,0.9787,-1.6735,-3.0999,1.4248,
13.125945,0.0391,0.6105,-0.1500,-1.9185,-3.0890,1.4572,-1.6735,-3.0999,1.4248,
13.127884,0.0391,0.6105,-0.1500,-1.9185,-3.0890,1.4572,-1.5500,-2.9300,1.2437,
13.142501,0.0391,0.6105,-0.1500,-1.9185,-3.0890,1.4572,-1.3401,-2.5588,1.1010,
13.162853,-0.0662,0.5414,-0.2959,-1.9185,-3.0890,1.4572,-1.3401,-2.5588,1.1010,
13.165176,-0.0662,0.5414,-0.2959,-3.0705,-3.8174,-0.2389,-1.3401,-2.5588,1.1010,
13.167264,-0.0662,0.5414,-0.2959,-3.0705,-3.8174,-0.2389,-1.2794,-2.1998,1.1537,
13.182409,-0.0662,0.5414,-0.2959,-3.0705,-3.8174,-0.2389,-1.4328,-2.0592,1.2378,
13.202852,0.0638,0.6066,-0.3823,-3.0705,-3.8174,-0.2389,-1.4328,-2.0592,1.2378,
13.205306,0.0638,0.6066,-0.3823,-2.0174,-3.1941,-1.3661,-1.4328,-2.0592,1.2378,
13.207373,0.0638,0.6066,-0.3823,-2.0174,-3.1941,-1.3661,-1.5936,-2.4251,1.1079,
13.223230,0.0638,0.6066,-0.3823,-2.0174,-3.1941,-1.3661,-1.5089,-3.0871,0.9507,
13.242354,0.0230,0.6704,-0.3884,-2.0174,-3.1941,-1.3661,-1.5089,-3.0871,0.9507,
13.247181,0.0230,0.6704,-0.3884,-2.5495,-2.5961,-1.6950,-1.5089,-3.0871,0.9507,
13.249230,0.0230,0.6704,-0.3884,-2.5495,-2.5961,-1.6950,-1.2884,-3.2602,0.8602,
13.262188,0.0230,0.6704,-0.3884,-2.5495,-2.5961,-1.6950,-1.0184,-2.6962,0.6541,
13.282161,0.0923,0.6095,-0.2482,-2.5495,-2.5961,-1.6950,-1.0184,-2.6962,0.6541,
13.284783,0.0923,0.6095,-0.2482,-1.9011,-3.2030,-0.4106,-1.0184,-2.6962,0.6541,
13.286915,0.0923,0.6095,-0.2482,-1.9011,-3.2030,-0.4106,-0.7180,-1.7992,0.3553,
13.302128,0.0923,0.6095,-0.2482,-1.9011,-3.2030,-0.4106,-0.4272,-0.9752,0.0943,
13.322258,0.1002,0.6604,-0.1473,-1.9011,-3.2030,-0.4106,-0.4272,-0.9752,0.0943,
13.324818,0.1002,0.6604,-0.1473,-1.7964,-2.7254,0.5233,-0.4272,-0.9752,0.0943,
13.326732,0.1002,0.6604,-0.1473,-1.7964,-2.7254,0.5233,-0.1449,-0.3063,-0.1465,
13.341924,0.1002,0.6604,-0.1473,-1.7964,-2.7254,0.5233,0.1614,0.1630,-0.3558,
13.361777,0.1991,1.1280,-0.2055,-1.7964,-2.7254,0.5233,0.1614,0.1630,-0.3558,
13.364690,0.1991,1.1280,-0.2055,-0.7290,1.8304,-0.0357,0.1614,0.1630,-0.3558,
13.366799,0.1991,1.1280,-0.2055,-0.7290,1.8304,-0.0357,0.4586,0.5657,-0.5864,
13.381996,0.1991,1.1280,-0.2055,-0.7290,1.8304,-0.0357,0.7702,1.0216,-0.9545,
13.402622,0.3735,1.6281,-0.1691,-0.7290,1.8304,-0.0357,0.7702,1.0216,-0.9545,
13.405088,0.3735,1.6281,-0.1691,1.1996,6.7026,0.4663,0.7702,1.0216,-0.9545,
13.406735,0.3735,1.6281,-0.1691,1.1996,6.7026,0.4663,1.2314,1.4221,-1.3758,
13.422708,0.3735,1.6281,-0.1691,1.1996,6.7026,0.4663,1.7801,1.8083,-1.7087,
13.442140,0.3584,1.8167,-0.3330,1.1996,6.7026,0.4663,1.7801,1.8083,-1.7087,
13.444343,0.3584,1.8167,-0.3330,1.4761,8.5525,-0.7240,1.7801,1.8083,-1.7087,
13.446131,0.3584,1.8167,-0.3330,1.4761,8.5525,-0.7240,2.1902,2.3649,-1.9249,
13.461878,0.3584,1.8167,-0.3330,1.4761,8.5525,-0.7240,2.2466,3.1974,-1.9026,
13.482100,0.3159,1.3102,-0.4178,1.4761,8.5525,-0.7240,2.2466,3.1974,-1.9026,
13.484348,0.3159,1.3102,-0.4178,1.4398,3.7006,-0.9481,2.2466,3.1974,-1.9026,
13.486081,0.3159,1.3102,-0.4178,1.4398,3.7006,-0.9481,2.0517,3.7055,-1.7220,
13.501485,0.3159,1.3102,-0.4178,1.4398,3.7006,-0.9481,1.7880,3.6192,-1.6544,
13.522331,0.2937,0.9770,-0.2714,1.4398,3.7006,-0.9481,1.7880,3.6192,-1.6544,
13.525321,0.2937,0.9770,-0.2714,1.3381,0.5878,0.9512,1.7880,3.6192,-1.6544,
13.527145,0.2937,0.9770,-0.2714,1.3381,0.5878,0.9512,1.6373,3.3865,-1.8349,
13.542748,0.2937,0.9770,-0.2714,1.3381,0.5878,0.9512,1.6549,3.4174,-1.8674,
13.562174,0.2052,0.7701,-0.2309,1.3381,0.5878,0.9512,1.6549,3.4174,-1.8674,
13.564475,0.2052,0.7701,-0.2309,0.6135,-1.2985,1.7353,1.6549,3.4174,-1.8674,
13.566235,0.2052,0.7701,-0.2309,0.6135,-1.2985,1.7353,1.6538,3.7828,-1.7976,
13.581432,0.2052,0.7701,-0.2309,0.6135,-1.2985,1.7353,1.6874,4.1348,-1.7124,
13.601935,0.2419,0.7046,-0.1683,0.6135,-1.2985,1.7353,1.6874,4.1348,-1.7124,
13.604233,0.2419,0.7046,-0.1683,0.9229,-1.7620,2.7047,1.6874,4.1348,-1.7124,
13.605945,0.2419,0.7046,-0.1683,0.9229,-1.7620,2.7047,1.7396,4.2659,-1.6203,
13.621669,0.2419,0.7046,-0.1683,0.9229,-1.7620,2.7047,1.7108,4.3367,-1.4972,
13.641594,0.2592,0.6765,-0.1278,0.9229,-1.7620,2.7047,1.7108,4.3367,-1.4972,
13.644541,0.2592,0.6765,-0.1278,0.8494,-1.8228,3.4243,1.7108,4.3367,-1.4972,
13.646225,0.2592,0.6765,-0.1278,0.8494,-1.8228,3.4243,1.6091,4.2509,-1.2687,
13.661894,0.2592,0.6765,-0.1278,0.8494,-1.8228,3.4243,1.4583,3.8658,-1.0008,
13.682042,0.2968,0.6716,-0.0235,0.8494,-1.8228,3.4243,1.4583,3.8658,-1.0008,
13.685285,0.2968,0.6716,-0.0235,0.8214,-1.6625,4.6534,1.4583,3.8658,-1.0008,
13.687021,0.2968,0.6716,-0.0235,0.8214,-1.6625,4.6534,1.3492,3.3497,-0.7446,
13.701791,0.2968,0.6716,-0.0235,0.8214,-1.6625,4.6534,1.2730,2.9423,-0.4719,
13.721530,0.4427,0.9135,0.0288,0.8214,-1.6625,4.6534,1.2730,2.9423,-0.4719,
13.723893,0.4427,0.9135,0.0288,1.8255,0.9124,5.3047,1.2730,2.9423,-0.4719,
13.725559,0.4427,0.9135,0.0288,1.8255,0.9124,5.3047,1.2277,2.5007,-0.2482,
13.741547,0.4427,0.9135,0.0288,1.8255,0.9124,5.3047,1.3092,1.9212,-0.1449,
13.761965,0.6237,1.0405,0.0584,1.8255,0.9124,5.3047,1.3092,1.9212,-0.1449,
13.764949,0.6237,1.0405,0.0584,3.1840,2.3648,5.6959,1.3092,1.9212,-0.1449,
13.766571,0.6237,1.0405,0.0584,3.1840,2.3648,5.6959,1.6293,1.1814,-0.1965,
13.781631,0.6237,1.0405,0.0584,3.1840,2.3648,5.6959,1.9201,1.0317,-0.2083,
13.801905,0.4845,0.7627,-0.1075,3.1840,2.3648,5.6959,1.9201,1.0317,-0.2083,
13.804035,0.4845,0.7627,-0.1075,1.6187,-0.0343,4.4233,1.9201,1.0317,-0.2083,
13.805791,0.4845,0.7627,-0.1075,1.6187,-0.0343,4.4233,2.0283,1.2932,-0.1838,
13.821428,0.4845,0.7627,-0.1075,1.6187,-0.0343,4.4233,1.7465,1.2794,-0.1411,
13.841703,0.4554,0.9606,-0.5062,1.6187,-0.0343,4.4233,1.7465,1.2794,-0.1411,
13.845773,0.4554,0.9606,-0.5062,1.0697,2.2831,0.8536,1.7465,1.2794,-0.1411,
13.847628,0.4554,0.9606,-0.5062,1.0697,2.2831,0.8536,1.0466,0.7883,-0.0325,
13.860964,0.4554,0.9606,-0.5062,1.0697,2.2831,0.8536,-0.0138,0.1598,0.1529,
13.881198,0.4029,1.1558,-0.6999,1.0697,2.2831,0.8536,-0.0138,0.1598,0.1529,
13.883336,0.4029,1.1558,-0.6999,0.4269,4.3258,-0.9640,-0.0138,0.1598,0.1529,
13.885171,0.4029,1.1558,-0.6999,0.4269,4.3258,-0.9640,-1.1521,-0.3164,0.4458,
13.901623,0.4029,1.1558,-0.6999,0.4269,4.3258,-0.9640,-2.1348,-0.9215,0.8187,
13.921351,0.4576,1.4160,-0.7867,0.4269,4.3258,-0.9640,-2.1348,-0.9215,0.8187,
13.925059,0.4576,1.4160,-0.7867,0.9231,6.5893,-2.1975,-2.1348,-0.9215,0.8187,
13.927022,0.4576,1.4160,-0.7867,0.9231,6.5893,-2.1975,-3.0887,-2.0086,1.1723,
13.940944,0.4576,1.4160,-0.7867,0.9231,6.5893,-2.1975,-3.9846,-3.5425,1.5457,
13.960862,0.3230,1.4595,-0.5311,0.9231,6.5893,-2.1975,-3.9846,-3.5425,1.5457,
13.961946,0.3230,1.4595,-0.5311,-0.2374,6.4767,-0.3736,-3.9846,-3.5425,1.5457,
13.962883,0.3230,1.4595,-0.5311,-0.2374,6.4767,-0.3736,-4.3266,-4.8970,1.9873,
13.981369,0.3230,1.4595,-0.5311,-0.2374,6.4767,-0.3736,-4.0150,-5.8281,2.4091,
14.001482,0.1097,0.9240,-0.2726,-0.2374,6.4767,-0.3736,-4.0150,-5.8281,2.4091,
14.004479,0.1097,0.9240,-0.2726,-2.0796,0.7679,1.5168,-4.0150,-5.8281,2.4091,
14.006325,0.1097,0.9240,-0.2726,-2.0796,0.7679,1.5168,-3.5244,-6.5647,2.8086,
14.022343,0.1097,0.9240,-0.2726,-2.0796,0.7679,1.5168,-3.0387,-7.1170,3.0712,
14.041338,0.1295,0.7038,-0.2348,-2.0796,0.7679,1.5168,-3.0387,-7.1170,3.0712,
14.044508,0.1295,0.7038,-0.2348,-1.7651,-1.5592,1.6294,-3.0387,-7.1170,3.0712,
14.046302,0.1295,0.7038,-0.2348,-1.7651,-1.5592,1.6294,-2.5486,-7.5144,3.0978,
14.061228,0.1295,0.7038,-0.2348,-1.7651,-1.5592,1.6294,-2.0634,-7.8169,2.8799,
14.081457,0.1644,0.7715,-0.1766,-1.7651,-1.5592,1.6294,-2.0634,-7.8169,2.8799,
14.085542,0.1644,0.7715,-0.1766,-1.2185,-0.9100,2.3195,-2.0634,-7.8169,2.8799,
14.087486,0.1644,0.7715,-0.1766,-1.2185,-0.9100,2.3195,-1.5723,-8.0598,2.4272,
14.100507,0.1644,0.7715,-0.1766,-1.2185,-0.9100,2.3195,-1.0317,-8.0720,1.8109,
14.120943,0.1094,0.8429,-0.1158,-1.2185,-0.9100,2.3195,-1.0317,-8.0720,1.8109,
14.123367,0.1094,0.8429,-0.1158,-1.1114,-0.2128,3.2936,-1.0317,-8.0720,1.8109,
14.125118,0.1094,0.8429,-0.1158,-1.1114,-0.2128,3.2936,-0.5268,-7.4158,1.3555,
14.142033,0.1094,0.8429,-0.1158,-1.1114,-0.2128,3.2936,-0.1321,-5.9319,1.1084,
14.160807,0.1292,0.9924,-0.1825,-1.1114,-0.2128,3.2936,-0.1321,-5.9319,1.1084,
14.164326,0.1292,0.9924,-0.1825,-0.1043,1.2778,3.0003,-0.1321,-5.9319,1.1084,
14.165858,0.1292,0.9924,-0.1825,-0.1043,1.2778,3.0003,0.0671,-3.9899,1.0791,
14.180998,0.1292,0.9924,-0.1825,-0.1043,1.2778,3.0003,0.0112,-2.3446,1.0796,
14.201637,0.2822,1.0486,-0.3340,-0.1043,1.2778,3.0003,0.0112,-2.3446,1.0796,
14.205631,0.2822,1.0486,-0.3340,1.6459,1.8848,1.6775,0.0112,-2.3446,1.0796,
14.207350,0.2822,1.0486,-0.3340,1.6459,1.8848,1.6775,-0.3313,-1.4248,0.9886,
14.222289,0.2822,1.0486,-0.3340,1.6459,1.8848,1.6775,-0.6988,-1.2964,0.8730,
14.240832,0.1974,0.9333,-0.1478,1.6459,1.8848,1.6775,-0.6988,-1.2964,0.8730,
14.243143,0.1974,0.9333,-0.1478,0.7426,0.6548,3.3109,-0.6988,-1.2964,0.8730,
14.244758,0.1974,0.9333,-0.1478,0.7426,0.6548,3.3109,-0.8378,-1.6022,0.8219,
14.260850,0.1974,0.9333,-0.1478,0.7426,0.6548,3.3109,-0.8298,-1.9111,0.7707,
14.280126,0.1019,0.8973,-0.1187,0.7426,0.6548,3.3109,-0.8298,-1.9111,0.7707,
14.282270,0.1019,0.8973,-0.1187,-0.1493,0.1602,3.3433,-0.8298,-1.9111,0.7707,
14.284093,0.1019,0.8973,-0.1187,-0.1493,0.1602,3.3433,-0.7233,-1.9553,0.8389,
14.302344,0.1019,0.8973,-0.1187,-0.1493,0.1602,3.3433,-0.6525,-1.7454,0.8831,
14.320842,0.1444,1.0065,-0.2301,-0.1493,0.1602,3.3433,-0.6525,-1.7454,0.8831,
14.323736,0.1444,1.0065,-0.2301,0.2813,1.1081,2.0128,-0.6525,-1.7454,0.8831,
14.325518,0.1444,1.0065,-0.2301,0.2813,1.1081,2.0128,-0.6802,-1.4365,0.8772,
14.340510,0.1444,1.0065,-0.2301,0.2813,1.1081,2.0128,-0.7787,-1.2181,0.8799,
14.360318,0.1937,1.0544,-0.2736,0.2813,1.1081,2.0128,-0.7787,-1.2181,0.8799,
14.362866,0.1937,1.0544,-0.2736,0.6697,1.4798,1.3526,-0.7787,-1.2181,0.8799,
14.364208,0.1937,1.0544,-0.2736,0.6697,1.4798,1.3526,-0.8847,-1.1601,0.8927,
14.382060,0.1937,1.0544,-0.2736,0.6697,1.4798,1.3526,-1.0013,-1.1782,0.9358,
14.400389,0.3327,1.3217,-0.3997,0.6697,1.4798,1.3526,-1.0013,-1.1782,0.9358,
14.402868,0.3327,1.3217,-0.3997,1.8860,3.9977,-0.1632,-1.0013,-1.1782,0.9358,
14.404586,0.3327,1.3217,-0.3997,1.8860,3.9977,-0.1632,-1.1952,-1.2330,0.9587,
14.420267,0.3327,1.3217,-0.3997,1.8860,3.9977,-0.1632,-1.4418,-1.4477,0.9231,
14.440930,0.2722,1.1573,-0.2905,1.8860,3.9977,-0.1632,-1.4418,-1.4477,0.9231,
14.444358,0.2722,1.1573,-0.2905,1.1474,2.2563,0.5182,-1.4418,-1.4477,0.9231,
14.445920,0.2722,1.1573,-0.2905,1.1474,2.2563,0.5182,-1.5297,-1.7683,0.9699,
14.459769,0.2722,1.1573,-0.2905,1.1474,2.2563,0.5182,-1.4461,-2.1199,1.0152,
14.481134,0.2626,1.0613,-0.1903,1.1474,2.2563,0.5182,-1.4461,-2.1199,1.0152,
14.482888,0.2626,1.0613,-0.1903,0.9349,1.1909,1.0792,-1.4461,-2.1199,1.0152,
14.484160,0.2626,1.0613,-0.1903,0.9349,1.1909,1.0792,-1.2309,-2.3537,1.0493,
14.501036,0.2626,1.0613,-0.1903,0.9349,1.1909,1.0792,-0.8783,-2.5284,1.0658,
14.521366,0.3117,1.0999,-0.1314,0.9349,1.1909,1.0792,-0.8783,-2.5284,1.0658,
14.523546,0.3117,1.0999,-0.1314,1.2991,1.5216,1.4310,-0.8783,-2.5284,1.0658,
14.525118,0.3117,1.0999,-0.1314,1.2991,1.5216,1.4310,-0.4511,-2.7095,0.9737,
14.540815,0.3117,1.0999,-0.1314,1.2991,1.5216,1.4310,-0.1443,-2.6392,0.8980,
14.561095,0.2099,1.0503,-0.2414,1.2991,1.5216,1.4310,-0.1443,-2.6392,0.8980,
14.564102,0.2099,1.0503,-0.2414,0.2486,1.0696,0.4338,-0.1443,-2.6392,0.8980,
14.565776,0.2099,1.0503,-0.2414,0.2486,1.0696,0.4338,-0.0714,-2.2775,0.8352,
14.581085,0.2099,1.0503,-0.2414,0.2486,1.0696,0.4338,-0.1603,-1.8099,0.7947,
14.600820,0.1307,0.9352,-0.2033,0.2486,1.0696,0.4338,-0.1603,-1.8099,0.7947,
14.603043,0.1307,0.9352,-0.2033,-0.5925,-0.0166,0.8991,-0.1603,-1.8099,0.7947,
14.604920,0.1307,0.9352,-0.2033,-0.5925,-0.0166,0.8991,-0.2935,-1.4749,0.7617,
14.620121,0.1307,0.9352,-0.2033,-0.5925,-0.0166,0.8991,-0.3878,-1.3374,0.7095,
14.640185,0.0985,0.8123,-0.1055,-0.5925,-0.0166,0.8991,-0.3878,-1.3374,0.7095,
14.643967,0.0985,0.8123,-0.1055,-1.0075,-1.2135,1.8141,-0.3878,-1.3374,0.7095,
14.646061,0.0985,0.8123,-0.1055,-1.0075,-1.2135,1.8141,-0.4165,-1.2687,0.6456,
14.660661,0.0985,0.8123,-0.1055,-1.0075,-1.2135,1.8141,-0.3899,-1.1931,0.5864,
14.679951,0.1060,0.8421,-0.0569,-1.0075,-1.2135,1.8141,-0.3899,-1.1931,0.5864,
14.683393,0.1060,0.8421,-0.0569,-1.0180,-0.9195,2.2362,-0.3899,-1.1931,0.5864,
14.685267,0.1060,0.8421,-0.0569,-1.0180,-0.9195,2.2362,-0.3036,-1.0860,0.5119,
14.701294,0.1060,0.8421,-0.0569,-1.0180,-0.9195,2.2362,-0.1710,-0.9529,0.3968,
14.721007,0.1292,0.9076,-0.0325,-1.0180,-0.9195,2.2362,-0.1710,-0.9529,0.3968,
14.723360,0.1292,0.9076,-0.0325,-0.8404,-0.2699,2.4647,-0.1710,-0.9529,0.3968,
14.725370,0.1292,0.9076,-0.0325,-0.8404,-0.2699,2.4647,0.0080,-0.8107,0.2557,
14.740468,0.1292,0.9076,-0.0325,-0.8404,-0.2699,2.4647,0.2178,-0.6583,0.1273,
14.760733,0.1463,0.9496,-0.0535,-0.8404,-0.2699,2.4647,0.2178,-0.6583,0.1273,
14.764722,0.1463,0.9496,-0.0535,-0.6526,0.1604,2.3338,0.2178,-0.6583,0.1273,
14.766334,0.1463,0.9496,-0.0535,-0.6526,0.1604,2.3338,0.3979,-0.4836,0.0123,
14.781356,0.1463,0.9496,-0.0535,-0.6526,0.1604,2.3338,0.5071,-0.3217,-0.0826,
14.800988,0.1554,1.0036,-0.1300,-0.6526,0.1604,2.3338,0.5071,-0.3217,-0.0826,
14.805073,0.1554,1.0036,-0.1300,-0.4894,0.7176,1.7243,0.5071,-0.3217,-0.0826,
14.806997,0.1554,1.0036,-0.1300,-0.4894,0.7176,1.7243,0.5198,-0.2194,-0.1284,
14.820669,0.1554,1.0036,-0.1300,-0.4894,0.7176,1.7243,0.4682,-0.2748,-0.1262,
14.840433,0.1710,1.0461,-0.1576,-0.4894,0.7176,1.7243,0.4682,-0.2748,-0.1262,
14.842736,0.1710,1.0461,-0.1576,-0.2461,1.1590,1.5854,0.4682,-0.2748,-0.1262,
14.844477,0.1710,1.0461,-0.1576,-0.2461,1.1590,1.5854,0.4139,-0.5076,-0.0692,
14.861902,0.1710,1.0461,-0.1576,-0.2461,1.1590,1.5854,0.3814,-0.8677,0.0447,
14.879902,0.2248,1.1651,-0.2081,-0.2461,1.1590,1.5854,0.3814,-0.8677,0.0447,
14.882872,0.2248,1.1651,-0.2081,0.3756,2.3745,1.2840,0.3814,-0.8677,0.0447,
14.884641,0.2248,1.1651,-0.2081,0.3756,2.3745,1.2840,0.3398,-1.3646,0.1880,
14.902324,0.2248,1.1651,-0.2081,0.3756,2.3745,1.2840,0.2898,-1.9074,0.3393,
14.920737,0.2555,1.0285,-0.2336,0.3756,2.3745,1.2840,0.2898,-1.9074,0.3393,
14.922859,0.2555,1.0285,-0.2336,0.8045,1.0941,1.2526,0.2898,-1.9074,0.3393,
14.924408,0.2555,1.0285,-0.2336,0.8045,1.0941,1.2526,0.2344,-2.3585,0.4517,
14.940410,0.2555,1.0285,-0.2336,0.8045,1.0941,1.2526,0.1071,-2.6482,0.5033,
14.959594,0.3037,1.0972,-0.3958,0.8045,1.0941,1.2526,0.1071,-2.6482,0.5033,
14.961908,0.3037,1.0972,-0.3958,1.4713,1.8223,-0.1155,0.1071,-2.6482,0.5033,
14.963634,0.3037,1.0972,-0.3958,1.4713,1.8223,-0.1155,-0.1779,-2.7441,0.5204,
14.979073,0.3037,1.0972,-0.3958,1.4713,1.8223,-0.1155,-0.5497,-2.5721,0.6242,
14.999617,0.3494,1.1895,-0.3963,1.4713,1.8223,-0.1155,-0.5497,-2.5721,0.6242,
15.002112,0.3494,1.1895,-0.3963,2.1174,2.7041,-0.1014,-0.5497,-2.5721,0.6242,
15.003896,0.3494,1.1895,-0.3963,2.1174,2.7041,-0.1014,-0.8772,-2.3047,0.5848,
15.020895,0.3494,1.1895,-0.3963,2.1174,2.7041,-0.1014,-1.0120,-1.9627,0.6168,
15.039816,0.2179,0.7600,-0.2866,2.1174,2.7041,-0.1014,-1.0120,-1.9627,0.6168,
15.042604,0.2179,0.7600,-0.2866,0.9004,-1.6152,0.7267,-1.0120,-1.9627,0.6168,
15.044507,0.2179,0.7600,-0.2866,0.9004,-1.6152,0.7267,-1.0860,-1.6916,0.7462,
15.059341,0.2179,0.7600,-0.2866,0.9004,-1.6152,0.7267,-1.1782,-1.5478,0.9140,
15.080517,0.2482,0.8353,-0.3108,0.9004,-1.6152,0.7267,-1.1782,-1.5478,0.9140,
15.084457,0.2482,0.8353,-0.3108,1.0684,-0.9828,0.1557,-1.1782,-1.5478,0.9140,
15.086323,0.2482,0.8353,-0.3108,1.0684,-0.9828,0.1557,-1.2682,-1.5010,1.0381,
15.100358,0.2482,0.8353,-0.3108,1.0684,-0.9828,0.1557,-1.3049,-1.5217,1.1047,
15.120263,0.1688,0.9240,-0.2084,1.0684,-0.9828,0.1557,-1.3049,-1.5217,1.1047,
15.122497,0.1688,0.9240,-0.2084,0.0562,-0.2041,0.7661,-1.3049,-1.5217,1.1047,
15.124250,0.1688,0.9240,-0.2084,0.0562,-0.2041,0.7661,-1.2043,-1.5414,1.1734,
15.139206,0.1688,0.9240,-0.2084,0.0562,-0.2041,0.7661,-0.9651,-1.6315,1.1601,
15.160095,0.1964,0.9684,-0.1490,0.0562,-0.2041,0.7661,-0.9651,-1.6315,1.1601,
15.164455,0.1964,0.9684,-0.1490,0.0569,0.1954,1.0456,-0.9651,-1.6315,1.1601,
15.166232,0.1964,0.9684,-0.1490,0.0569,0.1954,1.0456,-0.6535,-1.6970,1.0621,
15.179657,0.1964,0.9684,-0.1490,0.0569,0.1954,1.0456,-0.3819,-1.5888,0.9284,
15.199824,0.1395,0.9000,-0.1918,0.0569,0.1954,1.0456,-0.3819,-1.5888,0.9284,
15.202043,0.1395,0.9000,-0.1918,-0.7027,-0.4511,0.5553,-0.3819,-1.5888,0.9284,
15.203970,0.1395,0.9000,-0.1918,-0.7027,-0.4511,0.5553,-0.2088,-1.3353,0.8133,
15.219520,0.1395,0.9000,-0.1918,-0.7027,-0.4511,0.5553,-0.1369,-1.1270,0.7159,
15.238735,0.0945,0.8135,-0.2231,-0.7027,-0.4511,0.5553,-0.1369,-1.1270,0.7159,
15.240471,0.0945,0.8135,-0.2231,-1.3018,-1.2510,0.2898,-0.1369,-1.1270,0.7159,
15.241520,0.0945,0.8135,-0.2231,-1.3018,-1.2510,0.2898,-0.0889,-1.2346,0.6562,
15.258869,0.0945,0.8135,-0.2231,-1.3018,-1.2510,0.2898,-0.0256,-1.6000,0.6977,
15.278614,0.0967,0.7798,-0.2846,-1.3018,-1.2510,0.2898,-0.0256,-1.6000,0.6977,
15.280957,0.0967,0.7798,-0.2846,-1.3859,-1.5253,-0.2050,-0.0256,-1.6000,0.6977,
15.283033,0.0967,0.7798,-0.2846,-1.3859,-1.5253,-0.2050,0.0714,-1.9553,0.7670,
15.300633,0.0967,0.7798,-0.2846,-1.3859,-1.5253,-0.2050,0.1161,-2.3377,0.7238,
15.319003,0.0589,0.8319,-0.3657,-1.3859,-1.5253,-0.2050,0.1161,-2.3377,0.7238,
15.322492,0.0589,0.8319,-0.3657,-1.7973,-0.9348,-0.7631,0.1161,-2.3377,0.7238,
15.325012,0.0589,0.8319,-0.3657,-1.7973,-0.9348,-0.7631,0.0607,-2.0352,0.5848,
15.339481,0.0589,0.8319,-0.3657,-1.7973,-0.9348,-0.7631,-0.1076,-1.0642,0.4016,
15.359051,0.0164,0.9078,-0.3528,-1.7973,-0.9348,-0.7631,-0.1076,-1.0642,0.4016,
15.361605,0.0164,0.9078,-0.3528,-2.1964,-0.1491,-0.4930,-0.1076,-1.0642,0.4016,
15.363792,0.0164,0.9078,-0.3528,-2.1964,-0.1491,-0.4930,-0.3174,-0.2029,0.2722,
15.379534,0.0164,0.9078,-0.3528,-2.1964,-0.1491,-0.4930,-0.4522,0.0730,0.2455,
15.399505,0.1312,0.8768,-0.2797,-2.1964,-0.1491,-0.4930,-0.4522,0.0730,0.2455,
15.402020,0.1312,0.8768,-0.2797,-1.1422,-0.4756,0.0943,-0.4522,0.0730,0.2455,
15.403971,0.1312,0.8768,-0.2797,-1.1422,-0.4756,0.0943,-0.5204,-0.0362,0.1768,
15.419162,0.1312,0.8768,-0.2797,-1.1422,-0.4756,0.0943,-0.5310,-0.2013,0.1198,
15.438836,0.1881,0.7999,-0.2477,-1.1422,-0.4756,0.0943,-0.5310,-0.2013,0.1198,
15.441155,0.1881,0.7999,-0.2477,-0.6257,-1.2728,0.2285,-0.5310,-0.2013,0.1198,
15.443085,0.1881,0.7999,-0.2477,-0.6257,-1.2728,0.2285,-0.5214,-0.1981,0.0884,
15.459715,0.1881,0.7999,-0.2477,-0.6257,-1.2728,0.2285,-0.4879,-0.1204,0.1092,
15.479628,0.2646,0.8639,-0.2895,-0.6257,-1.2728,0.2285,-0.4879,-0.1204,0.1092,
15.482085,0.2646,0.8639,-0.2895,0.2470,-0.6766,-0.1759,-0.4879,-0.1204,0.1092,
15.484065,0.2646,0.8639,-0.2895,0.2470,-0.6766,-0.1759,-0.4080,-0.4447,0.1901,
15.500796,0.2646,0.8639,-0.2895,0.2470,-0.6766,-0.1759,-0.2690,-1.2368,0.3100,
15.519135,0.4180,1.1443,-0.4849,0.2470,-0.6766,-0.1759,-0.2690,-1.2368,0.3100,
15.521509,0.4180,1.1443,-0.4849,1.7451,2.0619,-2.1311,-0.2690,-1.2368,0.3100,
15.523393,0.4180,1.1443,-0.4849,1.7451,2.0619,-2.1311,-0.1071,-1.9356,0.3702,
