
time,gFx,gFy,gFz,ax,ay,az,wx,wy,wz,
0.100135,-0.0785,0.2509,1.0285,0.0000,0.0000,0.0000,0.0000,0.0000,0.0000,
0.125902,-0.0785,0.2509,1.0285,0.3800,-0.8920,-2.4970,0.0000,0.0000,0.0000,
0.144367,-0.0785,0.2509,1.0285,0.1170,-1.2130,-2.1120,0.0000,0.0000,0.0000,
0.166650,-0.0603,0.3819,0.7122,0.1170,-1.2130,-2.1120,0.0000,0.0000,0.0000,
0.169969,-0.0603,0.3819,0.7122,0.1340,-0.8830,-1.6480,0.0000,0.0000,0.0000,
0.185548,-0.0603,0.3819,0.7122,0.1340,-0.8830,-1.6480,-0.0005,-0.0143,0.4657,
0.188424,-0.0603,0.3819,0.7122,0.0760,-0.5080,-1.0300,-0.0005,-0.0143,0.4657,
0.207968,-0.0603,0.3819,0.7122,0.0150,-0.2780,-0.5990,-0.0005,-0.0143,0.4657,
0.226125,-0.0384,0.4169,0.8909,0.0150,-0.2780,-0.5990,-0.0005,-0.0143,0.4657,
0.231341,-0.0384,0.4169,0.8909,-0.0300,-0.1560,-0.1100,-0.0005,-0.0143,0.4657,
0.248183,-0.0384,0.4169,0.8909,-0.0300,-0.1560,-0.1100,0.0755,0.0987,0.2366,
0.251838,-0.0384,0.4169,0.8909,-0.1300,-0.1540,0.4520,0.0755,0.0987,0.2366,
0.266891,-0.0384,0.4169,0.8909,-0.3080,-0.1900,0.9130,0.0755,0.0987,0.2366,
0.291331,-0.0752,0.4315,0.9892,-0.3080,-0.1900,0.9130,0.0755,0.0987,0.2366,
0.295044,-0.0752,0.4315,0.9892,-0.3900,-0.0790,0.8770,0.0755,0.0987,0.2366,
0.308882,-0.0752,0.4315,0.9892,-0.3900,-0.0790,0.8770,0.2245,-0.0333,0.1657,
0.312690,-0.0752,0.4315,0.9892,-0.0150,0.0280,0.5170,0.2245,-0.0333,0.1657,
0.329430,-0.0752,0.4315,0.9892,0.4110,0.0300,0.6570,0.2245,-0.0333,0.1657,
0.349344,0.0333,0.4382,1.0417,0.4110,0.0300,0.6570,0.2245,-0.0333,0.1657,
0.353024,0.0333,0.4382,1.0417,0.6240,-0.1280,1.4520,0.2245,-0.0333,0.1657,
0.370492,0.0333,0.4382,1.0417,0.6240,-0.1280,1.4520,0.3035,0.1617,0.0157,
0.373225,0.0333,0.4382,1.0417,0.5940,-0.3260,1.9270,0.3035,0.1617,0.0157,
0.387691,0.0333,0.4382,1.0417,0.0130,0.3510,1.0860,0.3035,0.1617,0.0157,
0.410657,-0.0007,0.4406,0.9422,0.0130,0.3510,1.0860,0.3035,0.1617,0.0157,
0.414081,-0.0007,0.4406,0.9422,0.0510,0.5190,0.1790,0.3035,0.1617,0.0157,
0.429215,-0.0007,0.4406,0.9422,0.5970,0.8700,-0.0740,0.3035,0.1617,0.0157,
0.450693,-0.0007,0.4406,0.9422,0.5970,0.8700,-0.0740,-0.3046,0.0018,0.1917,
0.452805,-0.0007,0.4406,0.9422,0.8380,0.5520,0.2440,-0.3046,0.0018,0.1917,
0.469228,0.1055,0.3128,1.0745,0.8380,0.5520,0.2440,-0.3046,0.0018,0.1917,
0.471193,0.1055,0.3128,1.0745,0.9550,-0.6860,1.4670,-0.3046,0.0018,0.1917,
0.491030,0.1055,0.3128,1.0745,0.4420,-1.0320,3.0950,-0.3046,0.0018,0.1917,
0.509665,0.1055,0.3128,1.0745,0.4420,-1.0320,3.0950,0.3105,-0.1133,-0.0113,
0.513692,0.1055,0.3128,1.0745,-0.3310,-0.7000,2.8050,0.3105,-0.1133,-0.0113,
0.531519,0.0887,0.3807,0.9584,-0.3310,-0.7000,2.8050,0.3105,-0.1133,-0.0113,
0.533607,0.0887,0.3807,0.9584,0.8710,-0.0800,0.3430,0.3105,-0.1133,-0.0113,
0.549805,0.0887,0.3807,0.9584,1.6370,-0.3380,-1.5460,0.3105,-0.1133,-0.0113,
0.573570,0.0887,0.3807,0.9584,1.6370,-0.3380,-1.5460,-0.5056,0.2438,-0.4044,
0.575529,0.0887,0.3807,0.9584,1.1260,-1.0550,-1.0340,-0.5056,0.2438,-0.4044,
0.591012,-0.0112,0.2304,1.0129,1.1260,-1.0550,-1.0340,-0.5056,0.2438,-0.4044,
0.593072,-0.0112,0.2304,1.0129,-0.0210,-1.4470,0.8320,-0.5056,0.2438,-0.4044,
0.612345,-0.0112,0.2304,1.0129,-0.7870,-1.2780,1.7560,-0.5056,0.2438,-0.4044,
0.630829,-0.0112,0.2304,1.0129,-0.7870,-1.2780,1.7560,0.3175,0.5218,-0.1743,
0.632615,-0.0112,0.2304,1.0129,-0.6710,-1.0700,1.2790,0.3175,0.5218,-0.1743,
0.653360,-0.0026,0.3042,0.9144,-0.6710,-1.0700,1.2790,0.3175,0.5218,-0.1743,
0.655335,-0.0026,0.3042,0.9144,0.3090,-0.7070,-0.1370,0.3175,0.5218,-0.1743,
0.670786,-0.0026,0.3042,0.9144,1.3720,-0.6940,-1.6500,0.3175,0.5218,-0.1743,
0.693090,-0.0026,0.3042,0.9144,0.8470,-0.9080,-2.3900,0.3175,0.5218,-0.1743,
0.711468,-0.0995,0.4196,0.6690,0.8470,-0.9080,-2.3900,0.3175,0.5218,-0.1743,
0.713247,-0.0995,0.4196,0.6690,0.8470,-0.9080,-2.3900,0.4155,-0.2743,-0.6223,
0.714902,-0.0995,0.4196,0.6690,-0.4390,0.1930,-2.4280,0.4155,-0.2743,-0.6223,
0.733711,-0.0995,0.4196,0.6690,-0.5610,0.6770,-2.5610,0.4155,-0.2743,-0.6223,
0.752017,-0.0995,0.4196,0.6690,0.4360,0.7280,-2.1750,0.4155,-0.2743,-0.6223,
0.774251,0.0721,0.4242,0.7629,0.4360,0.7280,-2.1750,0.4155,-0.2743,-0.6223,
0.777090,0.0721,0.4242,0.7629,0.4360,0.7280,-2.1750,-0.3975,0.1778,-0.4613,
0.780313,0.0721,0.4242,0.7629,1.3330,0.3040,-1.5320,-0.3975,0.1778,-0.4613,
0.793427,0.0721,0.4242,0.7629,2.0770,-0.0020,-0.7170,-0.3975,0.1778,-0.4613,
0.814084,0.0721,0.4242,0.7629,2.3570,-0.0750,0.4890,-0.3975,0.1778,-0.4613,
0.833889,0.0678,0.3128,1.1270,2.3570,-0.0750,0.4890,-0.3975,0.1778,-0.4613,
0.836828,0.0678,0.3128,1.1270,2.3570,-0.0750,0.4890,0.2625,2.2297,-1.1604,
0.839212,0.0678,0.3128,1.1270,1.9550,-0.5600,2.0140,0.2625,2.2297,-1.1604,
0.855715,0.0678,0.3128,1.1270,2.5500,-1.3800,2.7690,0.2625,2.2297,-1.1604,
0.874100,0.0678,0.3128,1.1270,3.2790,-2.0940,2.7420,0.2625,2.2297,-1.1604,
0.895025,0.0709,0.1964,1.0884,3.2790,-2.0940,2.7420,0.2625,2.2297,-1.1604,
0.897883,0.0709,0.1964,1.0884,3.2790,-2.0940,2.7420,2.6874,2.1637,-2.3523,
0.899294,0.0709,0.1964,1.0884,3.5940,-2.1990,2.2500,2.6874,2.1637,-2.3523,
0.914578,0.0709,0.1964,1.0884,3.1240,-2.5770,1.0840,2.6874,2.1637,-2.3523,
0.935657,0.0709,0.1964,1.0884,1.8850,-2.5390,-1.0810,2.6874,2.1637,-2.3523,
0.955214,-0.2591,0.2537,0.5219,1.8850,-2.5390,-1.0810,2.6874,2.1637,-2.3523,
0.957160,-0.2591,0.2537,0.5219,2.2770,-2.3620,-1.9330,2.6874,2.1637,-2.3523,
0.976270,-0.2591,0.2537,0.5219,2.2770,-2.3620,-1.9330,2.3834,3.6168,-2.5963,
0.978142,-0.2591,0.2537,0.5219,2.3050,-2.4720,-1.0420,2.3834,3.6168,-2.5963,
0.996058,-0.2591,0.2537,0.5219,2.7500,-2.4110,-1.3170,2.3834,3.6168,-2.5963,
1.016414,-0.5697,0.2278,0.4647,2.7500,-2.4110,-1.3170,2.3834,3.6168,-2.5963,
1.018370,-0.5697,0.2278,0.4647,1.1330,-2.4610,-0.8630,2.3834,3.6168,-2.5963,
1.036949,-0.5697,0.2278,0.4647,1.1330,-2.4610,-0.8630,2.2165,1.2348,-3.1553,
1.040698,-0.5697,0.2278,0.4647,-0.0240,-2.5480,0.9380,2.2165,1.2348,-3.1553,
1.057331,-0.5697,0.2278,0.4647,-1.4000,-3.6310,3.6010,2.2165,1.2348,-3.1553,
1.077185,-0.9106,0.1676,0.5495,-1.4000,-3.6310,3.6010,2.2165,1.2348,-3.1553,
1.079123,-0.9106,0.1676,0.5495,-0.9450,-2.3760,1.3220,2.2165,1.2348,-3.1553,
1.098218,-0.9106,0.1676,0.5495,-0.9450,-2.3760,1.3220,2.3354,1.4637,-2.7383,
1.100986,-0.9106,0.1676,0.5495,-0.3660,-2.4630,-1.4010,2.3354,1.4637,-2.7383,
1.117946,-0.9106,0.1676,0.5495,-0.5090,-2.3970,-0.4250,2.3354,1.4637,-2.7383,
1.138894,-1.0233,0.1747,0.3277,-0.5090,-2.3970,-0.4250,2.3354,1.4637,-2.7383,
1.142047,-1.0233,0.1747,0.3277,-1.1410,-1.4280,0.4690,2.3354,1.4637,-2.7383,
1.157757,-1.0233,0.1747,0.3277,-1.1410,-1.4280,0.4690,2.2525,1.3017,-1.7603,
1.160653,-1.0233,0.1747,0.3277,-1.5350,-1.9940,0.4950,2.2525,1.3017,-1.7603,
1.178226,-1.0233,0.1747,0.3277,-3.0920,-3.6920,4.4970,2.2525,1.3017,-1.7603,
1.198309,-1.1655,0.0741,0.5635,-3.0920,-3.6920,4.4970,2.2525,1.3017,-1.7603,
1.201395,-1.1655,0.0741,0.5635,-2.0820,-1.8390,3.9230,2.2525,1.3017,-1.7603,
1.218225,-1.1655,0.0741,0.5635,-0.4860,0.9840,-0.8450,2.2525,1.3017,-1.7603,
1.238222,-1.1655,0.0741,0.5635,-0.4860,0.9840,-0.8450,3.0155,0.6178,-1.0603,
1.240354,-1.1655,0.0741,0.5635,0.4060,-0.5430,-0.2050,3.0155,0.6178,-1.0603,
1.259476,-0.7414,-0.0225,0.0982,0.4060,-0.5430,-0.2050,3.0155,0.6178,-1.0603,
1.261430,-0.7414,-0.0225,0.0982,2.2430,-2.4910,0.1260,3.0155,0.6178,-1.0603,
1.279033,-0.7414,-0.0225,0.0982,2.7390,-1.6790,-4.1600,3.0155,0.6178,-1.0603,
1.300184,-0.7414,-0.0225,0.0982,2.7390,-1.6790,-4.1600,1.3304,-0.4913,-0.9893,
1.302558,-0.7414,-0.0225,0.0982,2.7030,-0.4020,-4.6570,1.3304,-0.4913,-0.9893,
1.319615,-0.7568,0.0416,-0.1631,2.7030,-0.4020,-4.6570,1.3304,-0.4913,-0.9893,
1.322017,-0.7568,0.0416,-0.1631,2.1870,-1.4660,-2.3710,1.3304,-0.4913,-0.9893,
1.340741,-0.7568,0.0416,-0.1631,1.0760,-2.4140,-1.5570,1.3304,-0.4913,-0.9893,
1.360025,-0.7568,0.0416,-0.1631,1.0760,-2.4140,-1.5570,1.4594,-0.7172,-0.1963,
1.361895,-0.7568,0.0416,-0.1631,0.0570,-2.4920,-1.9620,1.4594,-0.7172,-0.1963,
1.380833,-0.8036,-0.1671,0.2161,0.0570,-2.4920,-1.9620,1.4594,-0.7172,-0.1963,
1.382705,-0.8036,-0.1671,0.2161,1.7410,-3.2790,1.0920,1.4594,-0.7172,-0.1963,
1.401487,-0.8036,-0.1671,0.2161,3.8560,-3.0240,-2.5380,1.4594,-0.7172,-0.1963,
1.422071,-0.8036,-0.1671,0.2161,3.8560,-3.0240,-2.5380,1.5764,-0.5122,0.7257,
1.426262,-0.8036,-0.1671,0.2161,1.4950,-1.1160,-7.1500,1.5764,-0.5122,0.7257,
1.441814,-0.8952,0.3387,-0.1911,1.4950,-1.1160,-7.1500,1.5764,-0.5122,0.7257,
1.443691,-0.8952,0.3387,-0.1911,0.8300,1.4080,-2.4640,1.5764,-0.5122,0.7257,
1.462152,-0.8952,0.3387,-0.1911,4.4190,2.4480,-0.3990,1.5764,-0.5122,0.7257,
1.481915,-0.8952,0.3387,-0.1911,5.5440,1.2860,-2.0260,1.5764,-0.5122,0.7257,
1.503107,-0.4052,0.2527,-0.0599,5.5440,1.2860,-2.0260,1.5764,-0.5122,0.7257,
1.506165,-0.4052,0.2527,-0.0599,5.5440,1.2860,-2.0260,1.8965,-1.1763,3.0667,
1.508842,-0.4052,0.2527,-0.0599,5.1700,-0.9660,-1.5680,1.8965,-1.1763,3.0667,
1.522921,-0.4052,0.2527,-0.0599,5.2280,-2.1070,2.1540,1.8965,-1.1763,3.0667,
1.543138,-0.4052,0.2527,-0.0599,4.8180,-0.8680,4.6480,1.8965,-1.1763,3.0667,
1.563038,-0.5932,0.5473,0.4273,4.8180,-0.8680,4.6480,1.8965,-1.1763,3.0667,
1.566920,-0.5932,0.5473,0.4273,4.8180,-0.8680,4.6480,3.7745,0.4418,1.9816,
1.569743,-0.5932,0.5473,0.4273,2.6250,0.3640,3.6700,3.7745,0.4418,1.9816,
1.583672,-0.5932,0.5473,0.4273,-0.9980,1.0230,2.7210,3.7745,0.4418,1.9816,
1.603586,-0.5932,0.5473,0.4273,-4.2850,2.6410,3.9550,3.7745,0.4418,1.9816,
1.624687,-1.5213,1.2260,0.4024,-4.2850,2.6410,3.9550,3.7745,0.4418,1.9816,
1.627117,-1.5213,1.2260,0.4024,-4.2850,2.6410,3.9550,4.4455,0.1848,1.1857,
1.629561,-1.5213,1.2260,0.4024,-7.0550,6.2860,5.2870,4.4455,0.1848,1.1857,
1.643824,-1.5213,1.2260,0.4024,-9.1410,5.6930,3.4570,4.4455,0.1848,1.1857,
1.665126,-1.5213,1.2260,0.4024,-9.1240,3.8880,-0.0040,4.4455,0.1848,1.1857,
1.684075,-1.6030,0.9296,-0.2640,-9.1240,3.8880,-0.0040,4.4455,0.1848,1.1857,
1.686223,-1.6030,0.9296,-0.2640,-9.1240,3.8880,-0.0040,2.7255,-1.8733,0.9687,
1.687888,-1.6030,0.9296,-0.2640,-8.1480,3.2790,-0.2890,2.7255,-1.8733,0.9687,
1.705205,-1.6030,0.9296,-0.2640,-6.8010,3.3360,0.5910,2.7255,-1.8733,0.9687,
1.724465,-1.6030,0.9296,-0.2640,-5.3590,3.0720,1.4440,2.7255,-1.8733,0.9687,
1.745290,-1.2766,0.7534,-0.0848,-5.3590,3.0720,1.4440,2.7255,-1.8733,0.9687,
1.748297,-1.2766,0.7534,-0.0848,-4.7350,1.7890,1.3020,2.7255,-1.8733,0.9687,
1.764946,-1.2766,0.7534,-0.0848,-4.7350,1.7890,1.3020,2.3345,-2.2572,-0.6363,
1.766804,-1.2766,0.7534,-0.0848,-3.7820,0.7030,0.8470,2.3345,-2.2572,-0.6363,
1.785724,-1.2766,0.7534,-0.0848,-1.9190,0.2930,0.3310,2.3345,-2.2572,-0.6363,
1.806417,-0.8803,0.5070,-0.1505,-1.9190,0.2930,0.3310,2.3345,-2.2572,-0.6363,
1.810461,-0.8803,0.5070,-0.1505,-0.3670,-0.0200,0.3300,2.3345,-2.2572,-0.6363,
1.826156,-0.8803,0.5070,-0.1505,-0.3670,-0.0200,0.3300,0.2964,-0.9182,-1.3174,
1.828902,-0.8803,0.5070,-0.1505,0.3400,-0.4960,0.5130,0.2964,-0.9182,-1.3174,
1.845511,-0.8803,0.5070,-0.1505,0.9550,-0.5790,0.8020,0.2964,-0.9182,-1.3174,
1.867142,-0.6825,0.4000,-0.0513,0.9550,-0.5790,0.8020,0.2964,-0.9182,-1.3174,
1.870034,-0.6825,0.4000,-0.0513,1.9820,-0.4230,1.0030,0.2964,-0.9182,-1.3174,
1.887119,-0.6825,0.4000,-0.0513,1.9820,-0.4230,1.0030,-0.4865,-0.3193,-1.0033,
1.889320,-0.6825,0.4000,-0.0513,2.0410,-0.4860,0.6790,-0.4865,-0.3193,-1.0033,
1.907643,-0.6825,0.4000,-0.0513,1.6220,-0.7380,0.5120,-0.4865,-0.3193,-1.0033,
1.927177,-0.8069,0.3333,-0.1417,1.6220,-0.7380,0.5120,-0.4865,-0.3193,-1.0033,
1.931526,-0.8069,0.3333,-0.1417,1.0150,-0.6880,-0.3100,-0.4865,-0.3193,-1.0033,
1.948001,-0.8069,0.3333,-0.1417,1.0150,-0.6880,-0.3100,-1.1905,-1.6023,1.0347,
1.950932,-0.8069,0.3333,-0.1417,1.3240,-0.5180,-2.3050,-1.1905,-1.6023,1.0347,
1.967469,-0.8069,0.3333,-0.1417,3.0200,-0.4900,-2.2040,-1.1905,-1.6023,1.0347,
1.989356,-0.5821,0.4096,-0.3549,3.0200,-0.4900,-2.2040,-1.1905,-1.6023,1.0347,
1.991535,-0.5821,0.4096,-0.3549,3.0180,-0.4840,-3.1070,-1.1905,-1.6023,1.0347,
2.007460,-0.5821,0.4096,-0.3549,2.2020,1.2890,-1.1980,-1.1905,-1.6023,1.0347,
2.028569,-0.5821,0.4096,-0.3549,2.2020,1.2890,-1.1980,0.0205,-0.4632,1.0977,
2.030569,-0.5821,0.4096,-0.3549,0.8660,0.3150,-2.2260,0.0205,-0.4632,1.0977,
2.048133,-0.9890,0.5014,-0.1520,0.8660,0.3150,-2.2260,0.0205,-0.4632,1.0977,
2.050647,-0.9890,0.5014,-0.1520,-1.2770,-0.1430,-1.3100,0.0205,-0.4632,1.0977,
2.068613,-0.9890,0.5014,-0.1520,-1.1270,0.4540,-0.7870,0.0205,-0.4632,1.0977,
2.089312,-0.9890,0.5014,-0.1520,-1.1270,0.4540,-0.7870,-1.0905,0.3018,0.0227,
2.091881,-0.9890,0.5014,-0.1520,-1.0660,-0.2980,-0.3260,-1.0905,0.3018,0.0227,
2.111128,-1.0189,0.4578,-0.0133,-1.0660,-0.2980,-0.3260,-1.0905,0.3018,0.0227,
2.112870,-1.0189,0.4578,-0.0133,-1.5980,-0.6030,-0.1490,-1.0905,0.3018,0.0227,
2.129457,-1.0189,0.4578,-0.0133,-2.0750,-0.7200,0.2430,-1.0905,0.3018,0.0227,
2.149922,-1.0189,0.4578,-0.0133,-2.0750,-0.7200,0.2430,-0.9705,0.3948,0.2567,
2.152245,-1.0189,0.4578,-0.0133,-1.8850,-0.5950,-0.2550,-0.9705,0.3948,0.2567,
2.170350,-0.9702,0.4993,0.0251,-1.8850,-0.5950,-0.2550,-0.9705,0.3948,0.2567,
2.173852,-0.9702,0.4993,0.0251,-1.2340,-0.3750,0.1420,-0.9705,0.3948,0.2567,
2.190614,-0.9702,0.4993,0.0251,-1.1270,0.1460,0.5350,-0.9705,0.3948,0.2567,
2.210355,-0.9702,0.4993,0.0251,-1.1270,0.1460,0.5350,-0.7446,1.4178,-0.0964,
2.212654,-0.9702,0.4993,0.0251,0.1200,0.5950,1.5280,-0.7446,1.4178,-0.0964,
2.231177,-0.7065,0.5545,0.0891,0.1200,0.5950,1.5280,-0.7446,1.4178,-0.0964,
2.233116,-0.7065,0.5545,0.0891,1.3830,0.2040,1.0190,-0.7446,1.4178,-0.0964,
2.250953,-0.7065,0.5545,0.0891,2.0150,-0.0340,2.0920,-0.7446,1.4178,-0.0964,
2.271795,-0.7065,0.5545,0.0891,1.9270,-0.4090,2.9460,-0.7446,1.4178,-0.0964,
2.291538,-0.6459,0.4298,0.2562,1.9270,-0.4090,2.9460,-0.7446,1.4178,-0.0964,
2.293399,-0.6459,0.4298,0.2562,1.9270,-0.4090,2.9460,-0.9555,0.3307,0.0217,
2.295077,-0.6459,0.4298,0.2562,2.0220,-0.9410,2.7210,-0.9555,0.3307,0.0217,
2.312060,-0.6459,0.4298,0.2562,1.8090,-0.8150,2.5150,-0.9555,0.3307,0.0217,
2.331557,-0.6459,0.4298,0.2562,1.3020,-0.2920,2.7530,-0.9555,0.3307,0.0217,
2.352695,-0.7649,0.4956,0.2226,1.3020,-0.2920,2.7530,-0.9555,0.3307,0.0217,
2.354562,-0.7649,0.4956,0.2226,1.3020,-0.2920,2.7530,-0.5455,0.5078,0.1177,
2.356452,-0.7649,0.4956,0.2226,0.7760,-0.4190,2.4140,-0.5455,0.5078,0.1177,
2.372595,-0.7649,0.4956,0.2226,1.2940,-0.6640,1.7930,-0.5455,0.5078,0.1177,
2.392882,-0.7649,0.4956,0.2226,2.0400,-1.1610,1.0230,-0.5455,0.5078,0.1177,
2.412419,-0.5880,0.3681,0.0375,2.0400,-1.1610,1.0230,-0.5455,0.5078,0.1177,
2.415147,-0.5880,0.3681,0.0375,2.0400,-1.1610,1.0230,-0.3455,-1.0153,-0.1994,
2.416891,-0.5880,0.3681,0.0375,2.5580,-1.5940,0.3020,-0.3455,-1.0153,-0.1994,
2.433389,-0.5880,0.3681,0.0375,2.8830,-1.9920,0.1020,-0.3455,-1.0153,-0.1994,
2.453404,-0.5880,0.3681,0.0375,2.6480,-1.9460,-0.3790,-0.3455,-1.0153,-0.1994,
2.474862,-0.6403,0.3343,0.0182,2.6480,-1.9460,-0.3790,-0.3455,-1.0153,-0.1994,
2.476892,-0.6403,0.3343,0.0182,2.6480,-1.9460,-0.3790,-0.0846,-0.2622,-0.0993,
2.478457,-0.6403,0.3343,0.0182,2.0610,-1.8860,-0.3390,-0.0846,-0.2622,-0.0993,
2.493773,-0.6403,0.3343,0.0182,1.2670,-2.0140,-0.2600,-0.0846,-0.2622,-0.0993,
2.514962,-0.6403,0.3343,0.0182,0.1190,-2.4390,0.9610,-0.0846,-0.2622,-0.0993,
2.533658,-0.8565,0.3306,0.3034,0.1190,-2.4390,0.9610,-0.0846,-0.2622,-0.0993,
2.535679,-0.8565,0.3306,0.3034,-0.0310,-1.8620,2.3380,-0.0846,-0.2622,-0.0993,
2.556167,-0.8565,0.3306,0.3034,-0.0310,-1.8620,2.3380,1.0704,-0.3113,-0.1383,
2.558106,-0.8565,0.3306,0.3034,-0.9590,-1.6170,1.5580,1.0704,-0.3113,-0.1383,
2.574210,-0.8565,0.3306,0.3034,-1.5530,-1.0850,1.1360,1.0704,-0.3113,-0.1383,
2.595963,-1.0133,0.4464,0.1700,-1.5530,-1.0850,1.1360,1.0704,-0.3113,-0.1383,
2.597755,-1.0133,0.4464,0.1700,-1.5370,-0.6820,1.2100,1.0704,-0.3113,-0.1383,
2.615326,-1.0133,0.4464,0.1700,-1.5370,-0.6820,1.2100,0.9115,-0.7502,-0.4103,
2.617430,-1.0133,0.4464,0.1700,-1.0150,-0.5190,1.7080,0.9115,-0.7502,-0.4103,
2.636777,-1.0133,0.4464,0.1700,-1.0300,-0.5930,1.4600,0.9115,-0.7502,-0.4103,
2.655033,-0.9458,0.4919,0.1725,-1.0300,-0.5930,1.4600,0.9115,-0.7502,-0.4103,
2.657090,-0.9458,0.4919,0.1725,-0.7930,-0.1100,1.1670,0.9115,-0.7502,-0.4103,
2.677389,-0.9458,0.4919,0.1725,-0.7930,-0.1100,1.1670,0.6845,-0.6612,-0.5594,
2.679413,-0.9458,0.4919,0.1725,-0.3110,-0.0910,1.4520,0.6845,-0.6612,-0.5594,
2.695267,-0.9458,0.4919,0.1725,-0.7100,-0.2140,2.5340,0.6845,-0.6612,-0.5594,
2.717173,-1.0853,0.5579,0.3021,-0.7100,-0.2140,2.5340,0.6845,-0.6612,-0.5594,
2.719011,-1.0853,0.5579,0.3021,-2.0250,0.7860,2.3330,0.6845,-0.6612,-0.5594,
2.736230,-1.0853,0.5579,0.3021,-2.0250,0.7860,2.3330,1.7494,-1.1762,-0.5004,
2.738075,-1.0853,0.5579,0.3021,-1.9800,2.6990,1.6080,1.7494,-1.1762,-0.5004,
2.758768,-1.0853,0.5579,0.3021,0.1470,3.2170,1.3450,1.7494,-1.1762,-0.5004,
2.778925,-0.6342,0.7742,-0.0876,0.1470,3.2170,1.3450,1.7494,-1.1762,-0.5004,
2.781126,-0.6342,0.7742,-0.0876,2.4870,3.1350,-1.6780,1.7494,-1.1762,-0.5004,
2.798889,-0.6342,0.7742,-0.0876,3.5290,5.0840,-4.2900,1.7494,-1.1762,-0.5004,
2.816876,-0.6342,0.7742,-0.0876,3.5290,5.0840,-4.2900,1.1444,0.2948,-0.5594,
2.818719,-0.6342,0.7742,-0.0876,4.4430,5.6790,-4.5540,1.1444,0.2948,-0.5594,
2.840423,-0.3959,1.0491,-0.1806,4.4430,5.6790,-4.5540,1.1444,0.2948,-0.5594,
2.842253,-0.3959,1.0491,-0.1806,5.0070,6.1320,-2.2780,1.1444,0.2948,-0.5594,
2.859190,-0.3959,1.0491,-0.1806,-0.9670,1.7250,-2.0650,1.1444,0.2948,-0.5594,
2.879240,-0.3959,1.0491,-0.1806,-0.9670,1.7250,-2.0650,1.4575,0.3748,0.7096,
2.882518,-0.3959,1.0491,-0.1806,-0.4240,1.8230,1.6550,1.4575,0.3748,0.7096,
2.897746,-0.7430,0.7162,0.2196,-0.4240,1.8230,1.6550,1.4575,0.3748,0.7096,
2.900754,-0.7430,0.7162,0.2196,1.4890,2.6170,2.3610,1.4575,0.3748,0.7096,
2.919433,-0.7430,0.7162,0.2196,1.7020,2.5200,-0.5950,1.4575,0.3748,0.7096,
2.938829,-0.7430,0.7162,0.2196,1.7020,2.5200,-0.5950,0.2375,-0.6912,1.3347,
2.941981,-0.7430,0.7162,0.2196,-0.1420,0.2830,-1.8890,0.2375,-0.6912,1.3347,
2.960835,-0.7451,0.5083,0.0292,-0.1420,0.2830,-1.8890,0.2375,-0.6912,1.3347,
2.963195,-0.7451,0.5083,0.0292,1.1760,0.0430,0.4550,0.2375,-0.6912,1.3347,
2.978594,-0.7451,0.5083,0.0292,1.4060,0.1330,0.4210,0.2375,-0.6912,1.3347,
3.001901,-0.7451,0.5083,0.0292,1.4060,0.1330,0.4210,-0.6545,-0.1213,0.7316,
3.004802,-0.7451,0.5083,0.0292,1.5280,-0.6400,-0.4710,-0.6545,-0.1213,0.7316,
3.019262,-0.6855,0.4322,-0.0508,1.5280,-0.6400,-0.4710,-0.6545,-0.1213,0.7316,
3.021934,-0.6855,0.4322,-0.0508,1.4510,-1.1930,-0.5920,-0.6545,-0.1213,0.7316,
3.041657,-0.6855,0.4322,-0.0508,0.7270,-1.6970,-0.3170,-0.6545,-0.1213,0.7316,
3.059252,-0.6855,0.4322,-0.0508,0.4280,-2.0560,-0.6330,-0.6545,-0.1213,0.7316,
3.082537,-0.7185,0.4582,-0.0499,0.4280,-2.0560,-0.6330,-0.6545,-0.1213,0.7316,
3.084654,-0.7185,0.4582,-0.0499,0.4280,-2.0560,-0.6330,-0.0755,-0.1323,0.7147,
3.086295,-0.7185,0.4582,-0.0499,0.9140,-1.2620,-0.7820,-0.0755,-0.1323,0.7147,
3.100516,-0.7185,0.4582,-0.0499,-0.4170,-1.4560,-0.6520,-0.0755,-0.1323,0.7147,
3.122648,-0.7185,0.4582,-0.0499,-1.9880,-2.0500,-0.4090,-0.0755,-0.1323,0.7147,
3.140407,-0.7232,0.5405,-0.1239,-1.9880,-2.0500,-0.4090,-0.0755,-0.1323,0.7147,
3.141304,-0.7232,0.5405,-0.1239,-1.9880,-2.0500,-0.4090,0.4994,-0.1342,0.1717,
3.141978,-0.7232,0.5405,-0.1239,0.6910,-0.6820,-1.5540,0.4994,-0.1342,0.1717,
3.162138,-0.7232,0.5405,-0.1239,0.1710,-0.0630,-0.4140,0.4994,-0.1342,0.1717,
3.180471,-0.7232,0.5405,-0.1239,-2.3740,-0.6320,-0.5760,0.4994,-0.1342,0.1717,
3.202601,-0.8815,0.6242,-0.1769,-2.3740,-0.6320,-0.5760,0.4994,-0.1342,0.1717,
3.203626,-0.8815,0.6242,-0.1769,-2.3740,-0.6320,-0.5760,-0.0375,-0.9212,-0.4344,
3.204305,-0.8815,0.6242,-0.1769,-0.7580,0.2890,-2.1570,-0.0375,-0.9212,-0.4344,
3.219890,-0.8815,0.6242,-0.1769,-0.3480,0.8510,-0.3180,-0.0375,-0.9212,-0.4344,
3.243167,-0.8815,0.6242,-0.1769,-0.6270,1.3260,0.8860,-0.0375,-0.9212,-0.4344,
3.261704,-0.8819,0.8299,0.0351,-0.6270,1.3260,0.8860,-0.0375,-0.9212,-0.4344,
3.262670,-0.8819,0.8299,0.0351,-0.6270,1.3260,0.8860,-2.3676,2.6818,-1.3694,
3.263506,-0.8819,0.8299,0.0351,-0.4600,2.7370,-0.1540,-2.3676,2.6818,-1.3694,
3.283685,-0.8819,0.8299,0.0351,-2.5200,3.2170,2.5140,-2.3676,2.6818,-1.3694,
3.302003,-0.8819,0.8299,0.0351,-3.6830,1.6920,4.6780,-2.3676,2.6818,-1.3694,
3.324301,-0.9954,0.5608,0.4503,-3.6830,1.6920,4.6780,-2.3676,2.6818,-1.3694,
3.325352,-0.9954,0.5608,0.4503,-1.2300,0.6390,4.5930,-2.3676,2.6818,-1.3694,
3.342327,-0.9954,0.5608,0.4503,-1.2300,0.6390,4.5930,-2.3705,1.9488,-1.5533,
3.343275,-0.9954,0.5608,0.4503,-0.5990,0.0180,2.7790,-2.3705,1.9488,-1.5533,
3.364538,-0.9954,0.5608,0.4503,-0.7830,-1.3690,2.8470,-2.3705,1.9488,-1.5533,
3.382825,-0.7523,0.2468,0.0693,-0.7830,-1.3690,2.8470,-2.3705,1.9488,-1.5533,
3.383988,-0.7523,0.2468,0.0693,1.6740,-1.3440,1.2060,-2.3705,1.9488,-1.5533,
3.405692,-0.7523,0.2468,0.0693,1.6740,-1.3440,1.2060,0.6904,1.2858,-2.1803,
3.406680,-0.7523,0.2468,0.0693,6.1860,2.6230,-0.9560,0.6904,1.2858,-2.1803,
3.423197,-0.7523,0.2468,0.0693,12.0590,2.9950,-0.0490,0.6904,1.2858,-2.1803,
3.445714,0.0452,0.4401,-0.1701,12.0590,2.9950,-0.0490,0.6904,1.2858,-2.1803,
3.446768,0.0452,0.4401,-0.1701,9.7890,1.8280,-0.0630,0.6904,1.2858,-2.1803,
3.463880,0.0452,0.4401,-0.1701,9.7890,1.8280,-0.0630,-0.6186,1.9588,-2.5113,
3.464875,0.0452,0.4401,-0.1701,2.0560,-0.7620,5.1140,-0.6186,1.9588,-2.5113,
3.486015,0.0452,0.4401,-0.1701,-4.9680,-4.1260,6.6150,-0.6186,1.9588,-2.5113,
3.504338,-1.2874,-0.1111,0.1737,-4.9680,-4.1260,6.6150,-0.6186,1.9588,-2.5113,
3.505318,-1.2874,-0.1111,0.1737,-3.2080,-2.4990,4.0780,-0.6186,1.9588,-2.5113,
3.526617,-1.2874,-0.1111,0.1737,-3.2080,-2.4990,4.0780,-0.7745,0.6077,-1.1204,
3.527622,-1.2874,-0.1111,0.1737,0.0800,1.8680,0.6030,-0.7745,0.6077,-1.1204,
3.544734,-1.2874,-0.1111,0.1737,-0.6600,5.6320,0.7180,-0.7745,0.6077,-1.1204,
3.567072,-0.7373,0.6613,0.1421,-0.6600,5.6320,0.7180,-0.7745,0.6077,-1.1204,
3.568212,-0.7373,0.6613,0.1421,2.2610,5.4280,3.6720,-0.7745,0.6077,-1.1204,
3.585213,-0.7373,0.6613,0.1421,2.8140,1.5110,3.7920,-0.7745,0.6077,-1.1204,
3.607535,-0.7373,0.6613,0.1421,2.8140,1.5110,3.7920,0.8245,-1.0552,-0.1173,
3.608593,-0.7373,0.6613,0.1421,1.5360,-2.2410,4.3520,0.8245,-1.0552,-0.1173,
3.625810,-0.9844,-0.2912,0.1891,1.5360,-2.2410,4.3520,0.8245,-1.0552,-0.1173,
3.626909,-0.9844,-0.2912,0.1891,-0.0310,-3.6980,3.6000,0.8245,-1.0552,-0.1173,
3.648192,-0.9844,-0.2912,0.1891,-0.8110,-3.3620,1.3350,0.8245,-1.0552,-0.1173,
3.666314,-0.9844,-0.2912,0.1891,-0.8110,-3.3620,1.3350,1.5144,-1.7992,1.1087,
3.668449,-0.9844,-0.2912,0.1891,-0.1840,-0.3760,-0.4970,1.5144,-1.7992,1.1087,
3.688697,-1.0577,0.0045,0.1768,-0.1840,-0.3760,-0.4970,1.5144,-1.7992,1.1087,
3.690745,-1.0577,0.0045,0.1768,-0.6840,-1.3290,2.6460,1.5144,-1.7992,1.1087,
3.707158,-1.0577,0.0045,0.1768,-2.5340,2.7640,-3.6210,1.5144,-1.7992,1.1087,
3.729217,-1.0577,0.0045,0.1768,-2.5340,2.7640,-3.6210,0.1305,-0.3902,2.8247,
3.731319,-1.0577,0.0045,0.1768,-3.8220,5.3380,-7.4990,0.1305,-0.3902,2.8247,
3.747826,-1.1354,0.9296,-0.4986,-3.8220,5.3380,-7.4990,0.1305,-0.3902,2.8247,
3.749976,-1.1354,0.9296,-0.4986,-1.7950,6.1110,-4.2380,0.1305,-0.3902,2.8247,
3.769494,-1.1354,0.9296,-0.4986,-0.4400,3.9580,-0.6160,0.1305,-0.3902,2.8247,
3.786905,-1.1354,0.9296,-0.4986,-0.4400,3.9580,-0.6160,0.7414,0.9747,2.1616,
3.788989,-1.1354,0.9296,-0.4986,-1.2740,1.5180,2.7700,0.7414,0.9747,2.1616,
3.809847,-1.2090,0.6764,0.4293,-1.2740,1.5180,2.7700,0.7414,0.9747,2.1616,
3.810851,-1.2090,0.6764,0.4293,-3.1420,2.2740,5.5030,0.7414,0.9747,2.1616,
3.828387,-1.2090,0.6764,0.4293,-1.9230,3.0690,3.7740,0.7414,0.9747,2.1616,
3.850461,-1.2090,0.6764,0.4293,-0.1270,2.3230,1.3990,0.7414,0.9747,2.1616,
3.868682,-0.9817,0.2456,0.2876,-0.1270,2.3230,1.3990,0.7414,0.9747,2.1616,
3.870473,-0.9817,0.2456,0.2876,-0.1270,2.3230,1.3990,1.1245,-2.7182,1.3817,
3.871932,-0.9817,0.2456,0.2876,-1.1250,-2.4850,3.2980,1.1245,-2.7182,1.3817,
3.890709,-0.9817,0.2456,0.2876,-2.6210,-7.9660,4.5290,1.1245,-2.7182,1.3817,
3.908931,-0.9817,0.2456,0.2876,1.0120,-10.2870,-3.4720,1.1245,-2.7182,1.3817,
3.931278,-0.2715,0.0311,-0.4774,1.0120,-10.2870,-3.4720,1.1245,-2.7182,1.3817,
3.932373,-0.2715,0.0311,-0.4774,1.0120,-10.2870,-3.4720,0.3605,-0.3443,1.1536,
3.933117,-0.2715,0.0311,-0.4774,5.1830,-5.5890,-4.4640,0.3605,-0.3443,1.1536,
3.949656,-0.2715,0.0311,-0.4774,2.1070,-0.3430,-2.6530,0.3605,-0.3443,1.1536,
3.971658,-0.2715,0.0311,-0.4774,8.3480,1.8980,-7.7040,0.3605,-0.3443,1.1536,
3.989971,-0.1281,0.6351,-0.8314,8.3480,1.8980,-7.7040,0.3605,-0.3443,1.1536,
3.990922,-0.1281,0.6351,-0.8314,8.3480,1.8980,-7.7040,-2.1966,4.1598,-0.9694,
3.991684,-0.1281,0.6351,-0.8314,6.1430,0.0340,-6.3250,-2.1966,4.1598,-0.9694,
4.012517,-0.1281,0.6351,-0.8314,-2.8300,-0.0240,0.6240,-2.1966,4.1598,-0.9694,
4.030509,-0.1281,0.6351,-0.8314,-6.5340,1.8330,11.3870,-2.1966,4.1598,-0.9694,
4.053121,-1.3104,0.4343,1.1360,-6.5340,1.8330,11.3870,-2.1966,4.1598,-0.9694,
4.053948,-1.3104,0.4343,1.1360,-6.5340,1.8330,11.3870,-0.3305,3.6568,1.6657,
4.054647,-1.3104,0.4343,1.1360,-5.4720,-2.1220,12.3220,-0.3305,3.6568,1.6657,
4.070950,-1.3104,0.4343,1.1360,-4.0340,-10.2670,1.7300,-0.3305,3.6568,1.6657,
4.093244,-1.3104,0.4343,1.1360,3.7430,-6.6160,-5.4540,-0.3305,3.6568,1.6657,
4.112021,0.1654,0.8832,-0.2051,3.7430,-6.6160,-5.4540,-0.3305,3.6568,1.6657,
4.114906,0.1654,0.8832,-0.2051,8.0300,1.5640,0.2080,-0.3305,3.6568,1.6657,
4.135269,0.1654,0.8832,-0.2051,8.0300,1.5640,0.2080,-1.4195,0.1738,-1.0763,
4.139554,0.1654,0.8832,-0.2051,9.4800,3.6340,3.1980,-1.4195,0.1738,-1.0763,
4.152308,0.1654,0.8832,-0.2051,6.9610,0.5710,6.9890,-1.4195,0.1738,-1.0763,
4.174926,-0.6373,-0.1495,0.5668,6.9610,0.5710,6.9890,-1.4195,0.1738,-1.0763,
4.179075,-0.6373,-0.1495,0.5668,1.0600,-7.9580,6.3450,-1.4195,0.1738,-1.0763,
4.194101,-0.6373,-0.1495,0.5668,1.0600,-7.9580,6.3450,0.8954,-4.9712,0.3297,
4.198177,-0.6373,-0.1495,0.5668,-4.3780,7.0760,3.3700,0.8954,-4.9712,0.3297,
4.214739,-0.6373,-0.1495,0.5668,-4.0500,16.3980,-2.3600,0.8954,-4.9712,0.3297,
4.234975,-1.0587,1.7265,-0.0359,-4.0500,16.3980,-2.3600,0.8954,-4.9712,0.3297,
4.239076,-1.0587,1.7265,-0.0359,-3.0780,10.3550,-0.5000,0.8954,-4.9712,0.3297,
4.255408,-1.0587,1.7265,-0.0359,-3.0780,10.3550,-0.5000,1.2294,-0.5012,0.9996,
4.258747,-1.0587,1.7265,-0.0359,-0.8350,2.7010,2.3090,1.2294,-0.5012,0.9996,
4.275556,-1.0587,1.7265,-0.0359,0.3060,1.8720,-0.3620,1.2294,-0.5012,0.9996,
4.295502,-0.5184,0.8803,-0.0272,0.3060,1.8720,-0.3620,1.2294,-0.5012,0.9996,
4.300459,-0.5184,0.8803,-0.0272,1.7640,1.5860,-0.4000,1.2294,-0.5012,0.9996,
4.315671,-0.5184,0.8803,-0.0272,1.7640,1.5860,-0.4000,0.3124,-0.1332,0.4676,
4.321779,-0.5184,0.8803,-0.0272,4.6380,-3.4560,-0.4610,0.3124,-0.1332,0.4676,
4.336002,-0.5184,0.8803,-0.0272,0.8260,-5.5060,-0.3300,0.3124,-0.1332,0.4676,
4.356323,-0.4133,0.4865,-0.1352,0.8260,-5.5060,-0.3300,0.3124,-0.1332,0.4676,
4.363077,-0.4133,0.4865,-0.1352,2.5420,-2.4960,-1.4740,0.3124,-0.1332,0.4676,
4.376020,-0.4133,0.4865,-0.1352,2.9330,0.0260,0.8130,0.3124,-0.1332,0.4676,
4.396527,-0.4133,0.4865,-0.1352,2.9330,0.0260,0.8130,0.3805,0.6267,-0.9074,
4.401266,-0.4133,0.4865,-0.1352,-0.0780,1.0910,3.8700,0.3805,0.6267,-0.9074,
4.417122,-0.7615,0.7463,0.0158,-0.0780,1.0910,3.8700,0.3805,0.6267,-0.9074,
4.420373,-0.7615,0.7463,0.0158,-0.5020,0.3800,0.1970,0.3805,0.6267,-0.9074,
4.437037,-0.7615,0.7463,0.0158,-6.0340,-3.4040,-2.7860,0.3805,0.6267,-0.9074,
4.458097,-0.7615,0.7463,0.0158,-6.0340,-3.4040,-2.7860,0.5284,0.8757,3.1577,
4.461086,-0.7615,0.7463,0.0158,-9.7550,-12.5670,0.1960,0.5284,0.8757,3.1577,
4.477503,-0.4893,-0.0112,-0.2938,-9.7550,-12.5670,0.1960,0.5284,0.8757,3.1577,
4.479841,-0.4893,-0.0112,-0.2938,1.4790,-7.6330,-2.4410,0.5284,0.8757,3.1577,
4.498695,-0.4893,-0.0112,-0.2938,-2.8400,-2.3410,-1.5540,0.5284,0.8757,3.1577,
4.517953,-0.4893,-0.0112,-0.2938,-2.8400,-2.3410,-1.5540,-0.5175,0.9908,5.5327,
4.520055,-0.4893,-0.0112,-0.2938,-3.3350,0.0490,-1.0590,-0.5175,0.9908,5.5327,
4.538328,-0.2808,1.7060,0.5192,-3.3350,0.0490,-1.0590,-0.5175,0.9908,5.5327,
4.540602,-0.2808,1.7060,0.5192,1.0080,7.6630,5.4810,-0.5175,0.9908,5.5327,
4.558707,-0.2808,1.7060,0.5192,2.9950,9.7980,6.9750,-0.5175,0.9908,5.5327,
4.578215,-0.2808,1.7060,0.5192,2.9950,9.7980,6.9750,2.5535,2.8658,0.0967,
4.580513,-0.2808,1.7060,0.5192,11.4140,4.6870,3.3850,2.5535,2.8658,0.0967,
4.598091,1.0342,1.4123,0.0527,11.4140,4.6870,3.3850,2.5535,2.8658,0.0967,
4.600366,1.0342,1.4123,0.0527,12.6240,4.5380,2.3680,2.5535,2.8658,0.0967,
4.618454,1.0342,1.4123,0.0527,9.0720,5.9220,-3.7650,2.5535,2.8658,0.0967,
4.639225,1.0342,1.4123,0.0527,6.8770,5.6530,-4.1020,2.5535,2.8658,0.0967,
4.659826,0.2611,1.2630,-0.3437,6.8770,5.6530,-4.1020,2.5535,2.8658,0.0967,
4.661763,0.2611,1.2630,-0.3437,6.8770,5.6530,-4.1020,2.2634,-0.2042,-2.8174,
4.663474,0.2611,1.2630,-0.3437,5.8080,3.7150,-0.0960,2.2634,-0.2042,-2.8174,
4.679476,0.2611,1.2630,-0.3437,4.1350,1.3860,1.5420,2.2634,-0.2042,-2.8174,
4.701033,0.2611,1.2630,-0.3437,-2.7410,-1.7430,4.1780,2.2634,-0.2042,-2.8174,
4.720460,-1.4507,0.2500,-0.3080,-2.7410,-1.7430,4.1780,2.2634,-0.2042,-2.8174,
4.723802,-1.4507,0.2500,-0.3080,-2.7410,-1.7430,4.1780,2.5164,4.6848,-3.4543,
4.726609,-1.4507,0.2500,-0.3080,-9.3650,-4.5450,1.8850,2.5164,4.6848,-3.4543,
4.740286,-1.4507,0.2500,-0.3080,-9.3590,-3.7170,-3.7190,2.5164,4.6848,-3.4543,
4.761481,-1.4507,0.2500,-0.3080,-3.9710,0.4000,-0.2870,2.5164,4.6848,-3.4543,
4.781484,-0.2178,0.8216,-0.3874,-3.9710,0.4000,-0.2870,2.5164,4.6848,-3.4543,
4.789251,-0.2178,0.8216,-0.3874,-3.9710,0.4000,-0.2870,1.9184,2.8648,-1.2723,
4.792797,-0.2178,0.8216,-0.3874,2.4740,2.2960,2.6880,1.9184,2.8648,-1.2723,
4.800820,-0.2178,0.8216,-0.3874,3.9880,0.8990,1.4740,1.9184,2.8648,-1.2723,
4.821968,-0.2178,0.8216,-0.3874,3.4010,-1.4160,1.7430,1.9184,2.8648,-1.2723,
4.842776,-0.1826,0.1862,-0.5022,3.4010,-1.4160,1.7430,1.9184,2.8648,-1.2723,
4.846755,-0.1826,0.1862,-0.5022,3.4010,-1.4160,1.7430,1.0234,1.9537,-0.8613,
4.850235,-0.1826,0.1862,-0.5022,2.1200,-2.9770,2.6970,1.0234,1.9537,-0.8613,
4.862459,-0.1826,0.1862,-0.5022,1.7690,-3.7420,1.8440,1.0234,1.9537,-0.8613,
4.882959,-0.1826,0.1862,-0.5022,2.1160,-3.9930,1.2190,1.0234,1.9537,-0.8613,
4.902873,-0.1185,0.0732,-0.6997,2.1160,-3.9930,1.2190,1.0234,1.9537,-0.8613,
4.906547,-0.1185,0.0732,-0.6997,2.2550,-3.6930,1.2190,1.0234,1.9537,-0.8613,
4.922871,-0.1185,0.0732,-0.6997,2.2550,-3.6930,1.2190,-0.4665,0.2918,-0.3574,
4.926378,-0.1185,0.0732,-0.6997,2.6770,-3.9230,1.2780,-0.4665,0.2918,-0.3574,
4.943475,-0.1185,0.0732,-0.6997,2.8710,-4.1200,1.2970,-0.4665,0.2918,-0.3574,
4.962987,-0.0939,0.0932,-0.8517,2.8710,-4.1200,1.2970,-0.4665,0.2918,-0.3574,
4.966831,-0.0939,0.0932,-0.8517,2.6260,-3.7840,-0.4880,-0.4665,0.2918,-0.3574,
4.983995,-0.0939,0.0932,-0.8517,2.6260,-3.7840,-0.4880,-1.3065,-1.1902,-0.2064,
4.988365,-0.0939,0.0932,-0.8517,1.5650,-3.0390,-1.7950,-1.3065,-1.1902,-0.2064,
5.003505,-0.0939,0.0932,-0.8517,-2.7540,4.0070,-2.0760,-1.3065,-1.1902,-0.2064,
5.024375,-0.8556,1.2994,-1.5343,-2.7540,4.0070,-2.0760,-1.3065,-1.1902,-0.2064,
5.027679,-0.8556,1.2994,-1.5343,-4.3670,7.7880,-7.5550,-1.3065,-1.1902,-0.2064,
5.043979,-0.8556,1.2994,-1.5343,-4.3670,7.7880,-7.5550,-0.8885,-0.0513,0.1537,
5.047081,-0.8556,1.2994,-1.5343,-2.4230,3.4210,-6.4400,-0.8885,-0.0513,0.1537,
5.064338,-0.8556,1.2994,-1.5343,2.5000,-1.3730,-0.4850,-0.8885,-0.0513,0.1537,
5.084808,0.0711,0.5237,-0.3530,2.5000,-1.3730,-0.4850,-0.8885,-0.0513,0.1537,
5.088469,0.0711,0.5237,-0.3530,5.1540,-0.3970,3.3230,-0.8885,-0.0513,0.1537,
5.106003,0.0711,0.5237,-0.3530,5.1540,-0.3970,3.3230,-0.9926,-2.8343,0.5196,
5.109195,0.0711,0.5237,-0.3530,0.1870,6.1430,3.4180,-0.9926,-2.8343,0.5196,
5.125266,0.0711,0.5237,-0.3530,-3.8330,6.9210,2.7860,-0.9926,-2.8343,0.5196,
5.145474,-0.7241,0.8052,-0.3080,-3.8330,6.9210,2.7860,-0.9926,-2.8343,0.5196,
5.148420,-0.7241,0.8052,-0.3080,-1.8530,1.7620,2.5860,-0.9926,-2.8343,0.5196,
5.165743,-0.7241,0.8052,-0.3080,2.2320,-1.7340,2.3860,-0.9926,-2.8343,0.5196,
5.187036,-0.7241,0.8052,-0.3080,2.2320,-1.7340,2.3860,-0.9545,-2.8282,0.8507,
5.190579,-0.7241,0.8052,-0.3080,1.8280,-0.5620,2.3970,-0.9545,-2.8282,0.8507,
5.206643,-0.5909,0.8226,-0.1571,1.8280,-0.5620,2.3970,-0.9545,-2.8282,0.8507,
5.209765,-0.5909,0.8226,-0.1571,-0.1080,1.3590,2.8360,-0.9545,-2.8282,0.8507,
5.226826,-0.5909,0.8226,-0.1571,-0.8960,1.2830,2.4080,-0.9545,-2.8282,0.8507,
5.245915,-0.5909,0.8226,-0.1571,-0.8960,1.2830,2.4080,-0.8145,-3.0892,0.8587,
5.249490,-0.5909,0.8226,-0.1571,-0.7480,0.6520,1.6390,-0.8145,-3.0892,0.8587,
5.267129,-0.6156,0.7639,-0.1263,-0.7480,0.6520,1.6390,-0.8145,-3.0892,0.8587,
5.271207,-0.6156,0.7639,-0.1263,-0.0270,0.3080,1.7520,-0.8145,-3.0892,0.8587,
5.286718,-0.6156,0.7639,-0.1263,0.2250,0.0530,1.8080,-0.8145,-3.0892,0.8587,
5.309470,-0.6156,0.7639,-0.1263,0.2250,0.0530,1.8080,-1.0165,-2.5142,1.3727,
5.312719,-0.6156,0.7639,-0.1263,-0.4230,0.4630,1.0290,-1.0165,-2.5142,1.3727,
5.327207,-0.7730,0.8707,-0.0867,-0.4230,0.4630,1.0290,-1.0165,-2.5142,1.3727,
5.330821,-0.7730,0.8707,-0.0867,-1.7440,0.7860,0.6720,-1.0165,-2.5142,1.3727,
5.348033,-0.7730,0.8707,-0.0867,-1.7830,-0.4700,0.0140,-1.0165,-2.5142,1.3727,
5.367956,-0.7730,0.8707,-0.0867,-1.7830,-0.4700,0.0140,-1.6035,-0.1033,0.9127,
5.371838,-0.7730,0.8707,-0.0867,0.2330,-2.0860,-0.7980,-1.6035,-0.1033,0.9127,
5.389562,-0.3700,0.5454,-0.0770,0.2330,-2.0860,-0.7980,-1.6035,-0.1033,0.9127,
5.393039,-0.3700,0.5454,-0.0770,1.6450,-2.9010,-0.0390,-1.6035,-0.1033,0.9127,
5.409276,-0.3700,0.5454,-0.0770,1.4530,-3.7770,0.9250,-1.6035,-0.1033,0.9127,
5.428885,-0.3700,0.5454,-0.0770,1.5860,-4.3530,-0.1490,-1.6035,-0.1033,0.9127,
5.448014,-0.3798,0.4090,-0.0953,1.5860,-4.3530,-0.1490,-1.6035,-0.1033,0.9127,
5.451979,-0.3798,0.4090,-0.0953,1.5860,-4.3530,-0.1490,-0.9045,-0.4803,0.5816,
5.455125,-0.3798,0.4090,-0.0953,1.3210,-4.4080,-0.9530,-0.9045,-0.4803,0.5816,
5.470292,-0.3798,0.4090,-0.0953,1.7740,-3.2300,-0.0180,-0.9045,-0.4803,0.5816,
5.489505,-0.3798,0.4090,-0.0953,0.1360,-1.0450,0.1900,-0.9045,-0.4803,0.5816,
5.510064,-0.8549,0.9220,-0.0411,0.1360,-1.0450,0.1900,-0.9045,-0.4803,0.5816,
5.514781,-0.8549,0.9220,-0.0411,0.1360,-1.0450,0.1900,-0.3985,-0.1122,0.2006,
5.517898,-0.8549,0.9220,-0.0411,-3.6360,0.4510,-0.7320,-0.3985,-0.1122,0.2006,
5.529865,-0.8549,0.9220,-0.0411,-6.2050,0.3570,-0.6620,-0.3985,-0.1122,0.2006,
5.550053,-0.8549,0.9220,-0.0411,-5.3230,0.0070,0.4350,-0.3985,-0.1122,0.2006,
5.570577,-0.7581,0.9184,0.0796,-5.3230,0.0070,0.4350,-0.3985,-0.1122,0.2006,
5.574721,-0.7581,0.9184,0.0796,-5.3230,0.0070,0.4350,-0.7025,0.0598,0.5006,
5.577822,-0.7581,0.9184,0.0796,-2.9020,0.3190,0.0170,-0.7025,0.0598,0.5006,
5.591127,-0.7581,0.9184,0.0796,-1.6560,1.6370,0.2300,-0.7025,0.0598,0.5006,
5.610443,-0.7581,0.9184,0.0796,-0.5880,3.5720,0.7510,-0.7025,0.0598,0.5006,
5.631358,-0.5406,1.4883,0.3066,-0.5880,3.5720,0.7510,-0.7025,0.0598,0.5006,
5.635647,-0.5406,1.4883,0.3066,-0.5880,3.5720,0.7510,1.0974,0.8467,-0.5694,
5.638846,-0.5406,1.4883,0.3066,-0.8770,5.8410,2.2920,1.0974,0.8467,-0.5694,
5.650774,-0.5406,1.4883,0.3066,-3.6410,7.1460,2.5960,1.0974,0.8467,-0.5694,
5.672393,-0.5406,1.4883,0.3066,-0.5620,6.0160,-0.6700,1.0974,0.8467,-0.5694,
5.692952,0.0023,1.0860,-0.2822,-0.5620,6.0160,-0.6700,1.0974,0.8467,-0.5694,
5.696510,0.0023,1.0860,-0.2822,4.7850,2.0800,-2.3460,1.0974,0.8467,-0.5694,
5.712300,0.0023,1.0860,-0.2822,4.7850,2.0800,-2.3460,3.6805,1.0328,-1.6273,
5.716570,0.0023,1.0860,-0.2822,3.7570,0.1960,-0.6080,3.6805,1.0328,-1.6273,
5.732666,0.0023,1.0860,-0.2822,-1.6060,2.2780,0.8480,3.6805,1.0328,-1.6273,
5.752869,-1.0168,1.3470,-0.3771,-1.6060,2.2780,0.8480,3.6805,1.0328,-1.6273,
5.756656,-1.0168,1.3470,-0.3771,-4.2940,5.5680,-1.2630,3.6805,1.0328,-1.6273,
5.773914,-1.0168,1.3470,-0.3771,-4.2940,5.5680,-1.2630,1.2464,0.2108,-1.6753,
5.777069,-1.0168,1.3470,-0.3771,-1.1730,5.6100,0.4530,1.2464,0.2108,-1.6753,
5.793238,-1.0168,1.3470,-0.3771,3.0010,3.1720,4.1680,1.2464,0.2108,-1.6753,
5.813202,-0.4602,0.9008,0.1961,3.0010,3.1720,4.1680,1.2464,0.2108,-1.6753,
5.817343,-0.4602,0.9008,0.1961,1.9460,2.1970,5.1710,1.2464,0.2108,-1.6753,
5.833539,-0.4602,0.9008,0.1961,1.9460,2.1970,5.1710,1.7744,2.8337,-2.8093,
5.835937,-0.4602,0.9008,0.1961,0.4420,1.4910,0.6200,1.7744,2.8337,-2.8093,
5.854785,-0.4602,0.9008,0.1961,3.7420,-0.0320,-3.3990,1.7744,2.8337,-2.8093,
5.875504,-0.2180,0.3683,-0.2977,3.7420,-0.0320,-3.3990,1.7744,2.8337,-2.8093,
5.878681,-0.2180,0.3683,-0.2977,4.7030,-1.5500,1.8870,1.7744,2.8337,-2.8093,
5.893419,-0.2180,0.3683,-0.2977,4.7030,-1.5500,1.8870,0.9164,3.7427,-2.1333,
5.896778,-0.2180,0.3683,-0.2977,3.1610,-3.0260,6.6450,0.9164,3.7427,-2.1333,
5.915350,-0.2180,0.3683,-0.2977,3.9850,-3.6800,5.4990,0.9164,3.7427,-2.1333,
5.934742,-0.0934,0.1011,-0.2879,3.9850,-3.6800,5.4990,0.9164,3.7427,-2.1333,
5.938706,-0.0934,0.1011,-0.2879,5.3440,-3.0280,3.5790,0.9164,3.7427,-2.1333,
5.956907,-0.0934,0.1011,-0.2879,4.9530,-1.3900,3.1840,0.9164,3.7427,-2.1333,
5.976863,-0.0934,0.1011,-0.2879,4.9530,-1.3900,3.1840,0.4694,1.8418,-0.9743,
5.979897,-0.0934,0.1011,-0.2879,4.4200,-0.2040,3.0830,0.4694,1.8418,-0.9743,
5.996663,-0.1713,0.3269,-0.4842,4.4200,-0.2040,3.0830,0.4694,1.8418,-0.9743,
6.000824,-0.1713,0.3269,-0.4842,4.0350,-0.2430,2.4500,0.4694,1.8418,-0.9743,
6.014908,-0.1713,0.3269,-0.4842,3.1360,-0.8400,1.1300,0.4694,1.8418,-0.9743,
6.037527,-0.1713,0.3269,-0.4842,3.1360,-0.8400,1.1300,-0.8686,-0.8302,0.2076,
6.042095,-0.1713,0.3269,-0.4842,2.2120,-1.5660,-0.1170,-0.8686,-0.8302,0.2076,
6.055171,-0.4719,0.1847,-0.8031,2.2120,-1.5660,-0.1170,-0.8686,-0.8302,0.2076,
6.057611,-0.4719,0.1847,-0.8031,1.2760,-1.9520,-0.9760,-0.8686,-0.8302,0.2076,
6.077773,-0.4719,0.1847,-0.8031,0.3330,-1.4480,-1.2070,-0.8686,-0.8302,0.2076,
6.095837,-0.4719,0.1847,-0.8031,0.3330,-1.4480,-1.2070,-2.1296,-3.3082,2.0567,
6.099275,-0.4719,0.1847,-0.8031,0.7010,-1.3390,0.3770,-2.1296,-3.3082,2.0567,
6.118353,-0.4015,0.4658,-0.4360,0.7010,-1.3390,0.3770,-2.1296,-3.3082,2.0567,
6.122080,-0.4015,0.4658,-0.4360,2.5410,-0.4930,1.1040,-2.1296,-3.3082,2.0567,
6.136937,-0.4015,0.4658,-0.4360,0.6590,10.2530,-2.9240,-2.1296,-3.3082,2.0567,
6.158696,-0.4015,0.4658,-0.4360,0.6590,10.2530,-2.9240,-0.0155,-2.0493,-0.5613,
6.161985,-0.4015,0.4658,-0.4360,-8.1090,20.5770,9.5690,-0.0155,-2.0493,-0.5613,
6.177742,-1.7477,1.3476,-0.1676,-8.1090,20.5770,9.5690,-0.0155,-2.0493,-0.5613,
6.182222,-1.7477,1.3476,-0.1676,-10.0180,7.5350,2.0620,-0.0155,-2.0493,-0.5613,
6.199067,-1.7477,1.3476,-0.1676,1.9980,-8.9410,-5.3460,-0.0155,-2.0493,-0.5613,
6.216968,-1.7477,1.3476,-0.1676,5.3980,-10.1290,1.8010,-0.0155,-2.0493,-0.5613,
6.239811,-0.3663,0.3675,0.2883,5.3980,-10.1290,1.8010,-0.0155,-2.0493,-0.5613,
6.243828,-0.3663,0.3675,0.2883,5.3980,-10.1290,1.8010,-1.1065,-0.8882,2.1337,
6.246747,-0.3663,0.3675,0.2883,3.2580,-2.8420,5.6340,-1.1065,-0.8882,2.1337,
6.259659,-0.3663,0.3675,0.2883,0.0020,7.8120,3.0040,-1.1065,-0.8882,2.1337,
6.279162,-0.3663,0.3675,0.2883,2.6330,10.2790,0.5560,-1.1065,-0.8882,2.1337,
6.299243,-0.3910,0.9073,-0.0543,2.6330,10.2790,0.5560,-1.1065,-0.8882,2.1337,
6.303328,-0.3910,0.9073,-0.0543,2.6330,10.2790,0.5560,-0.4015,-2.8072,1.2717,
6.306614,-0.3910,0.9073,-0.0543,2.4900,1.6000,1.2730,-0.4015,-2.8072,1.2717,
6.319464,-0.3910,0.9073,-0.0543,-1.5660,-3.4720,1.6240,-0.4015,-2.8072,1.2717,
6.338885,-0.3910,0.9073,-0.0543,-4.1840,-2.6750,1.0500,-0.4015,-2.8072,1.2717,
6.361360,-1.0108,0.5359,-0.0855,-4.1840,-2.6750,1.0500,-0.4015,-2.8072,1.2717,
6.365015,-1.0108,0.5359,-0.0855,-4.1840,-2.6750,1.0500,-1.2785,-0.0852,1.2397,
6.366737,-1.0108,0.5359,-0.0855,-4.0760,-2.5940,0.0640,-1.2785,-0.0852,1.2397,
6.378807,-1.0108,0.5359,-0.0855,0.1700,-3.2350,-0.7540,-1.2785,-0.0852,1.2397,
6.401688,-1.0108,0.5359,-0.0855,2.3190,-3.5360,0.5630,-1.2785,-0.0852,1.2397,
6.419796,-0.2424,0.5137,0.1115,2.3190,-3.5360,0.5630,-1.2785,-0.0852,1.2397,
6.423029,-0.2424,0.5137,0.1115,2.3190,-3.5360,0.5630,-0.8375,-0.5112,0.6417,
6.425931,-0.2424,0.5137,0.1115,3.0100,-3.1670,1.3930,-0.8375,-0.5112,0.6417,
6.442321,-0.2424,0.5137,0.1115,3.0990,-2.6110,0.4140,-0.8375,-0.5112,0.6417,
6.460258,-0.2424,0.5137,0.1115,1.8210,-2.2940,-1.3250,-0.8375,-0.5112,0.6417,
6.482280,-0.5576,0.6554,-0.0985,1.8210,-2.2940,-1.3250,-0.8375,-0.5112,0.6417,
6.486414,-0.5576,0.6554,-0.0985,-0.3530,-1.9530,-1.1560,-0.8375,-0.5112,0.6417,
6.501247,-0.5576,0.6554,-0.0985,-0.3530,-1.9530,-1.1560,-0.5946,-0.3993,0.6867,
6.505317,-0.5576,0.6554,-0.0985,-1.3550,-1.7060,0.0810,-0.5946,-0.3993,0.6867,
6.522985,-0.5576,0.6554,-0.0985,-2.5880,-1.0030,1.5410,-0.5946,-0.3993,0.6867,
6.540694,-0.7642,0.8116,0.2333,-2.5880,-1.0030,1.5410,-0.5946,-0.3993,0.6867,
6.542077,-0.7642,0.8116,0.2333,-2.7220,-0.6140,1.6600,-0.5946,-0.3993,0.6867,
6.563133,-0.7642,0.8116,0.2333,-2.7220,-0.6140,1.6600,-0.7916,0.0308,0.7347,
6.568143,-0.7642,0.8116,0.2333,-1.8980,-0.1830,0.9700,-0.7916,0.0308,0.7347,
6.581433,-0.7642,0.8116,0.2333,-1.7840,0.8870,0.5770,-0.7916,0.0308,0.7347,
6.603818,-0.7234,1.0366,-0.0513,-1.7840,0.8870,0.5770,-0.7916,0.0308,0.7347,
6.606870,-0.7234,1.0366,-0.0513,-2.6270,1.4590,-1.4150,-0.7916,0.0308,0.7347,
6.622016,-0.7234,1.0366,-0.0513,-2.6270,1.4590,-1.4150,-0.3475,0.0198,0.2806,
6.625457,-0.7234,1.0366,-0.0513,-2.5060,1.8210,-1.7160,-0.3475,0.0198,0.2806,
6.644041,-0.7234,1.0366,-0.0513,-1.4080,2.9770,1.8860,-0.3475,0.0198,0.2806,
6.662313,-0.6070,1.4264,0.4666,-1.4080,2.9770,1.8860,-0.3475,0.0198,0.2806,
6.666193,-0.6070,1.4264,0.4666,-1.5170,5.2600,3.7370,-0.3475,0.0198,0.2806,
6.684339,-0.6070,1.4264,0.4666,-1.5170,5.2600,3.7370,1.8915,0.8067,-1.0913,
6.686624,-0.6070,1.4264,0.4666,0.1260,6.8150,0.8570,1.8915,0.8067,-1.0913,
6.702649,-0.6070,1.4264,0.4666,3.1160,5.0160,-2.5420,1.8915,0.8067,-1.0913,
6.725415,-0.1911,0.9926,-0.1381,3.1160,5.0160,-2.5420,1.8915,0.8067,-1.0913,
6.728446,-0.1911,0.9926,-0.1381,3.1700,1.3240,-0.8560,1.8915,0.8067,-1.0913,
6.743406,-0.1911,0.9926,-0.1381,-0.4020,0.7470,1.4740,1.8915,0.8067,-1.0913,
6.765933,-0.1911,0.9926,-0.1381,-0.4020,0.7470,1.4740,3.8684,-0.4183,-2.0773,
6.769709,-0.1911,0.9926,-0.1381,-3.7820,4.0630,-0.4210,3.8684,-0.4183,-2.0773,
6.783927,-0.9248,1.3781,-0.4665,-3.7820,4.0630,-0.4210,3.8684,-0.4183,-2.0773,
6.787592,-0.9248,1.3781,-0.4665,-3.0890,6.0060,-2.4570,3.8684,-0.4183,-2.0773,
6.807139,-0.9248,1.3781,-0.4665,1.9380,4.2980,1.3280,3.8684,-0.4183,-2.0773,
6.825945,-0.9248,1.3781,-0.4665,1.9380,4.2980,1.3280,1.3335,1.1067,-3.0484,
6.828841,-0.9248,1.3781,-0.4665,1.7750,2.3510,3.6410,1.3335,1.1067,-3.0484,
6.846427,-0.7290,0.7864,-0.0711,1.7750,2.3510,3.6410,1.3335,1.1067,-3.0484,
6.850298,-0.7290,0.7864,-0.0711,-0.2930,1.3420,2.3020,1.3335,1.1067,-3.0484,
6.866004,-0.7290,0.7864,-0.0711,2.6370,0.3890,0.5150,1.3335,1.1067,-3.0484,
6.887428,-0.7290,0.7864,-0.0711,2.6370,0.3890,0.5150,0.9305,3.0367,-2.5773,
6.891413,-0.7290,0.7864,-0.0711,5.5230,-1.2200,0.3470,0.9305,3.0367,-2.5773,
6.905922,-0.2458,0.2856,-0.2002,5.5230,-1.2200,0.3470,0.9305,3.0367,-2.5773,
6.909060,-0.2458,0.2856,-0.2002,4.5910,-2.2190,2.7520,0.9305,3.0367,-2.5773,
6.927630,-0.2458,0.2856,-0.2002,3.9220,-2.5800,3.8430,0.9305,3.0367,-2.5773,
6.945804,-0.2458,0.2856,-0.2002,3.9220,-2.5800,3.8430,0.6425,2.8457,-1.3623,
6.950826,-0.2458,0.2856,-0.2002,4.1580,-2.7150,4.1070,0.6425,2.8457,-1.3623,
6.968098,-0.2167,0.2451,-0.2600,4.1580,-2.7150,4.1070,0.6425,2.8457,-1.3623,
6.971602,-0.2167,0.2451,-0.2600,4.3460,-1.6500,3.6240,0.6425,2.8457,-1.3623,
6.986199,-0.2167,0.2451,-0.2600,4.8420,0.0420,2.3760,0.6425,2.8457,-1.3623,
7.009755,-0.2167,0.2451,-0.2600,4.6980,0.5560,1.4650,0.6425,2.8457,-1.3623,
7.026994,-0.3087,0.3299,-0.6210,4.6980,0.5560,1.4650,0.6425,2.8457,-1.3623,
7.030570,-0.3087,0.3299,-0.6210,4.6980,0.5560,1.4650,-0.4506,0.2328,-0.3663,
7.034781,-0.3087,0.3299,-0.6210,3.1120,-0.5600,0.5710,-0.4506,0.2328,-0.3663,
7.048211,-0.3087,0.3299,-0.6210,2.3790,-2.1490,-0.0680,-0.4506,0.2328,-0.3663,
7.067242,-0.3087,0.3299,-0.6210,2.9130,-2.8770,0.2210,-0.4506,0.2328,-0.3663,
7.089798,-0.2332,0.1018,-0.4462,2.9130,-2.8770,0.2210,-0.4506,0.2328,-0.3663,
7.093609,-0.2332,0.1018,-0.4462,2.9130,-2.8770,0.2210,-2.1105,-2.5923,1.6537,
7.096399,-0.2332,0.1018,-0.4462,4.2260,-3.5670,1.3810,-2.1105,-2.5923,1.6537,
7.109427,-0.2332,0.1018,-0.4462,4.6430,-4.2990,3.5320,-2.1105,-2.5923,1.6537,
7.131098,-0.2332,0.1018,-0.4462,4.3360,0.1360,2.5300,-2.1105,-2.5923,1.6537,
7.149254,-1.0839,2.1990,-0.3530,4.3360,0.1360,2.5300,-2.1105,-2.5923,1.6537,
7.153024,-1.0839,2.1990,-0.3530,4.3360,0.1360,2.5300,-1.2035,-4.4263,0.3147,
7.155942,-1.0839,2.1990,-0.3530,-3.7860,15.7270,0.5210,-1.2035,-4.4263,0.3147,
7.170681,-1.0839,2.1990,-0.3530,-14.0600,22.8850,10.9350,-1.2035,-4.4263,0.3147,
7.189064,-1.0839,2.1990,-0.3530,-5.5870,-0.7870,-9.3270,-1.2035,-4.4263,0.3147,
7.211098,-0.2114,-0.5880,-0.3380,-5.5870,-0.7870,-9.3270,-1.2035,-4.4263,0.3147,
7.215542,-0.2114,-0.5880,-0.3380,-5.5870,-0.7870,-9.3270,-1.3355,-1.1382,2.0577,
7.218709,-0.2114,-0.5880,-0.3380,5.0770,-11.7450,-0.2640,-1.3355,-1.1382,2.0577,
7.228882,-0.2114,-0.5880,-0.3380,5.8050,-6.9890,7.7460,-1.3355,-1.1382,2.0577,
7.252361,-0.2114,-0.5880,-0.3380,0.2650,4.1590,4.1370,-1.3355,-1.1382,2.0577,
7.269527,-0.8676,1.8700,-0.1440,0.2650,4.1590,4.1370,-1.3355,-1.1382,2.0577,
7.272594,-0.8676,1.8700,-0.1440,-1.8880,11.4520,0.9030,-1.3355,-1.1382,2.0577,
7.292399,-0.8676,1.8700,-0.1440,-1.8880,11.4520,0.9030,-0.0195,-2.6923,1.3087,
7.295454,-0.8676,1.8700,-0.1440,0.9180,6.5680,1.1440,-0.0195,-2.6923,1.3087,
7.309851,-0.8676,1.8700,-0.1440,0.8050,-0.7720,0.8930,-0.0195,-2.6923,1.3087,
7.332978,-0.7838,0.5934,0.0239,0.8050,-0.7720,0.8930,-0.0195,-2.6923,1.3087,
7.337439,-0.7838,0.5934,0.0239,-1.3890,-1.6220,1.5060,-0.0195,-2.6923,1.3087,
7.351034,-0.7838,0.5934,0.0239,-1.3890,-1.6220,1.5060,-0.6805,-1.1822,1.3967,
7.354130,-0.7838,0.5934,0.0239,-3.5750,-0.7800,1.0890,-0.6805,-1.1822,1.3967,
7.373910,-0.7838,0.5934,0.0239,-2.9880,-0.8110,-0.9720,-0.6805,-1.1822,1.3967,
7.392999,-0.5179,0.6307,-0.2750,-2.9880,-0.8110,-0.9720,-0.6805,-1.1822,1.3967,
7.396863,-0.5179,0.6307,-0.2750,0.6550,-1.7600,-1.9550,-0.6805,-1.1822,1.3967,
7.413416,-0.5179,0.6307,-0.2750,0.6550,-1.7600,-1.9550,-1.1495,0.5158,0.8816,
7.417368,-0.5179,0.6307,-0.2750,2.9660,-2.9090,0.0980,-1.1495,0.5158,0.8816,
7.432689,-0.5179,0.6307,-0.2750,3.6030,-3.8440,1.5290,-1.1495,0.5158,0.8816,
7.454161,-0.2109,0.3660,0.1583,3.6030,-3.8440,1.5290,-1.1495,0.5158,0.8816,
7.457973,-0.2109,0.3660,0.1583,3.2530,-4.6570,1.8280,-1.1495,0.5158,0.8816,
7.471655,-0.2109,0.3660,0.1583,3.2530,-4.6570,1.8280,-0.2185,-0.9633,0.4357,
7.474915,-0.2109,0.3660,0.1583,1.4900,-4.1640,0.6070,-0.2185,-0.9633,0.4357,
7.494258,-0.2109,0.3660,0.1583,-0.6790,-2.8210,-0.9850,-0.2185,-0.9633,0.4357,
7.512208,-0.7414,0.6645,-0.0403,-0.6790,-2.8210,-0.9850,-0.2185,-0.9633,0.4357,
7.517080,-0.7414,0.6645,-0.0403,-2.1910,-1.8830,-0.5610,-0.2185,-0.9633,0.4357,
7.534710,-0.7414,0.6645,-0.0403,-2.3840,-1.1770,0.3680,-0.2185,-0.9633,0.4357,
7.552969,-0.7414,0.6645,-0.0403,-2.3840,-1.1770,0.3680,-0.8115,0.0308,0.8147,
7.556472,-0.7414,0.6645,-0.0403,-2.2500,-0.4870,0.6540,-0.8115,0.0308,0.8147,
7.575618,-0.7852,0.8524,0.1346,-2.2500,-0.4870,0.6540,-0.8115,0.0308,0.8147,
7.578871,-0.7852,0.8524,0.1346,-2.9960,-0.2450,0.7250,-0.8115,0.0308,0.8147,
7.594210,-0.7852,0.8524,0.1346,-4.0360,0.2730,0.8900,-0.8115,0.0308,0.8147,
7.615395,-0.7852,0.8524,0.1346,-4.0360,0.2730,0.8900,-0.7085,0.8228,0.3367,
7.618500,-0.7852,0.8524,0.1346,-3.9700,1.3520,-0.0680,-0.7085,0.8228,0.3367,
7.634794,-0.8354,1.2011,0.0537,-3.9700,1.3520,-0.0680,-0.7085,0.8228,0.3367,
7.638997,-0.8354,1.2011,0.0537,-3.6660,3.0990,-0.2650,-0.7085,0.8228,0.3367,
7.656347,-0.8354,1.2011,0.0537,-3.1710,5.7660,1.6120,-0.7085,0.8228,0.3367,
7.675782,-0.8354,1.2011,0.0537,-3.1710,5.7660,1.6120,0.8265,0.7837,-0.6654,
7.678687,-0.8354,1.2011,0.0537,0.3590,7.0530,1.2990,0.8265,0.7837,-0.6654,
7.695634,0.0173,1.4879,0.0908,0.3590,7.0530,1.2990,0.8265,0.7837,-0.6654,
7.701385,0.0173,1.4879,0.0908,4.9520,6.0200,0.6260,0.8265,0.7837,-0.6654,
7.716446,0.0173,1.4879,0.0908,5.8050,2.6700,1.3930,0.8265,0.7837,-0.6654,
7.736143,0.0173,1.4879,0.0908,5.8050,2.6700,1.3930,3.8745,0.6447,-2.0463,
7.738901,0.0173,1.4879,0.0908,0.8700,0.5920,2.1210,3.8745,0.6447,-2.0463,
7.756446,-0.8910,1.0811,-0.2948,0.8700,0.5920,2.1210,3.8745,0.6447,-2.0463,
7.759680,-0.8910,1.0811,-0.2948,-3.1240,2.7090,-1.2310,3.8745,0.6447,-2.0463,
7.777486,-0.8910,1.0811,-0.2948,-3.4350,4.5450,-4.2730,3.8745,0.6447,-2.0463,
7.797053,-0.8910,1.0811,-0.2948,1.0830,2.8880,0.8840,3.8745,0.6447,-2.0463,
7.817820,-0.5252,0.8779,0.2177,1.0830,2.8880,0.8840,3.8745,0.6447,-2.0463,
7.821985,-0.5252,0.8779,0.2177,1.0830,2.8880,0.8840,0.9894,1.1868,-2.5563,
7.825136,-0.5252,0.8779,0.2177,1.2570,1.5840,4.6080,0.9894,1.1868,-2.5563,
7.837442,-0.5252,0.8779,0.2177,0.3010,2.0130,3.0640,0.9894,1.1868,-2.5563,
7.858557,-0.5252,0.8779,0.2177,3.0700,1.7460,0.5500,0.9894,1.1868,-2.5563,
7.878888,-0.1356,0.5345,-0.5438,3.0700,1.7460,0.5500,0.9894,1.1868,-2.5563,
7.884434,-0.1356,0.5345,-0.5438,3.0700,1.7460,0.5500,1.1125,2.5587,-2.8354,
7.887018,-0.1356,0.5345,-0.5438,5.5820,-0.4400,-1.2820,1.1125,2.5587,-2.8354,
7.899211,-0.1356,0.5345,-0.5438,5.0960,-2.2640,0.3630,1.1125,2.5587,-2.8354,
7.917821,-0.1356,0.5345,-0.5438,4.0540,-3.0610,3.3240,1.1125,2.5587,-2.8354,
7.939515,-0.2840,0.1114,-0.0878,4.0540,-3.0610,3.3240,1.1125,2.5587,-2.8354,
7.943559,-0.2840,0.1114,-0.0878,4.0540,-3.0610,3.3240,0.9225,2.6348,-1.7684,
7.946717,-0.2840,0.1114,-0.0878,4.1400,-3.2780,4.5460,0.9225,2.6348,-1.7684,
7.960189,-0.2840,0.1114,-0.0878,4.5690,-2.2450,3.4800,0.9225,2.6348,-1.7684,
7.978440,-0.2840,0.1114,-0.0878,4.1830,-0.6450,2.5840,0.9225,2.6348,-1.7684,
7.998295,-0.2915,0.4396,-0.4331,4.1830,-0.6450,2.5840,0.9225,2.6348,-1.7684,
8.003081,-0.2915,0.4396,-0.4331,4.1830,-0.6450,2.5840,0.1875,0.6897,-0.7433,
8.006351,-0.2915,0.4396,-0.4331,3.6920,0.7240,2.1350,0.1875,0.6897,-0.7433,
8.020531,-0.2915,0.4396,-0.4331,3.0650,0.9840,0.9570,0.1875,0.6897,-0.7433,
8.039855,-0.2915,0.4396,-0.4331,1.9740,0.2490,0.0180,0.1875,0.6897,-0.7433,
8.060497,-0.5951,0.2798,-0.6816,1.9740,0.2490,0.0180,0.1875,0.6897,-0.7433,
8.064953,-0.5951,0.2798,-0.6816,0.8470,-0.8550,-0.4550,0.1875,0.6897,-0.7433,
8.080178,-0.5951,0.2798,-0.6816,0.8470,-0.8550,-0.4550,-1.1755,-1.9883,1.0576,
8.085499,-0.5951,0.2798,-0.6816,0.9340,-1.3090,-0.7760,-1.1755,-1.9883,1.0576,
8.100912,-0.5951,0.2798,-0.6816,1.3260,-1.6130,0.3970,-1.1755,-1.9883,1.0576,
8.120767,-0.5132,0.4182,-0.2806,1.3260,-1.6130,0.3970,-1.1755,-1.9883,1.0576,
8.124429,-0.5132,0.4182,-0.2806,2.0760,-0.6740,2.0650,-1.1755,-1.9883,1.0576,
8.141533,-0.5132,0.4182,-0.2806,2.0760,-0.6740,2.0650,-0.8425,-3.7063,2.0577,
8.144516,-0.5132,0.4182,-0.2806,0.9750,7.7840,-1.8890,-0.8425,-3.7063,2.0577,
8.161491,-0.5132,0.4182,-0.2806,-7.9850,16.6100,2.4770,-0.8425,-3.7063,2.0577,
8.182514,-1.9008,1.5704,0.1450,-7.9850,16.6100,2.4770,-0.8425,-3.7063,2.0577,
8.186624,-1.9008,1.5704,0.1450,-11.1950,9.8460,4.6530,-0.8425,-3.7063,2.0577,
8.201335,-1.9008,1.5704,0.1450,-11.1950,9.8460,4.6530,-1.0526,-0.8423,1.4447,
8.204428,-1.9008,1.5704,0.1450,1.5580,-5.7170,-6.4470,-1.0526,-0.8423,1.4447,
8.222622,-1.9008,1.5704,0.1450,6.8060,-8.8040,2.5860,-1.0526,-0.8423,1.4447,
8.242599,-0.2267,0.1996,0.4520,6.8060,-8.8040,2.5860,-1.0526,-0.8423,1.4447,
8.245515,-0.2267,0.1996,0.4520,4.7520,-4.4270,7.0560,-1.0526,-0.8423,1.4447,
8.262425,-0.2267,0.1996,0.4520,4.7520,-4.4270,7.0560,-0.2875,-2.0952,2.2206,
8.266538,-0.2267,0.1996,0.4520,0.1350,4.4230,4.1610,-0.2875,-2.0952,2.2206,
8.282502,-0.2267,0.1996,0.4520,1.2870,8.0610,2.1720,-0.2875,-2.0952,2.2206,
8.304234,-0.4895,1.1090,-0.0450,1.2870,8.0610,2.1720,-0.2875,-2.0952,2.2206,
8.307568,-0.4895,1.1090,-0.0450,1.6440,3.6500,1.2330,-0.2875,-2.0952,2.2206,
8.322548,-0.4895,1.1090,-0.0450,-1.0840,-1.1100,0.6770,-0.2875,-2.0952,2.2206,
8.343367,-0.4895,1.1090,-0.0450,-1.0840,-1.1100,0.6770,-0.6315,-2.1322,1.5807,
8.346505,-0.4895,1.1090,-0.0450,-3.3690,-1.2500,0.7660,-0.6315,-2.1322,1.5807,
8.363293,-1.0844,0.6144,-0.1296,-3.3690,-1.2500,0.7660,-0.6315,-2.1322,1.5807,
8.368527,-1.0844,0.6144,-0.1296,-4.7160,-1.7820,-0.6370,-0.6315,-2.1322,1.5807,
8.383904,-1.0844,0.6144,-0.1296,-1.0750,-3.0330,-2.3100,-0.6315,-2.1322,1.5807,
8.403492,-1.0844,0.6144,-0.1296,-1.0750,-3.0330,-2.3100,-1.3505,1.1538,1.1517,
8.407941,-1.0844,0.6144,-0.1296,1.8240,-3.4670,-0.2740,-1.3505,1.1538,1.1517,
8.424265,-0.3399,0.4408,0.1231,1.8240,-3.4670,-0.2740,-1.3505,1.1538,1.1517,
8.427267,-0.3399,0.4408,0.1231,1.9650,-3.9340,1.5120,-1.3505,1.1538,1.1517,
8.444173,-0.3399,0.4408,0.1231,1.4170,-4.7560,0.8340,-1.3505,1.1538,1.1517,
8.465272,-0.3399,0.4408,0.1231,1.4170,-4.7560,0.8340,-0.6885,-0.5442,0.4316,
8.469299,-0.3399,0.4408,0.1231,0.2280,-4.9680,-0.1170,-0.6885,-0.5442,0.4316,
8.485417,-0.5459,0.4408,0.0360,0.2280,-4.9680,-0.1170,-0.6885,-0.5442,0.4316,
8.489174,-0.5459,0.4408,0.0360,-0.3720,-4.1360,0.1800,-0.6885,-0.5442,0.4316,
8.505505,-0.5459,0.4408,0.0360,-0.1230,-2.4340,0.4180,-0.6885,-0.5442,0.4316,
8.526654,-0.5459,0.4408,0.0360,-0.1230,-2.4340,0.4180,-0.7355,0.0557,0.5706,
8.529698,-0.5459,0.4408,0.0360,-0.3080,0.2030,0.6810,-0.7355,0.0557,0.5706,
8.545692,-0.4418,1.1224,0.2137,-0.3080,0.2030,0.6810,-0.7355,0.0557,0.5706,
8.549126,-0.4418,1.1224,0.2137,0.4380,2.4290,1.5890,-0.7355,0.0557,0.5706,
8.565405,-0.4418,1.1224,0.2137,-0.4000,1.8250,1.5830,-0.7355,0.0557,0.5706,
8.586493,-0.4418,1.1224,0.2137,-2.4240,0.4430,0.4500,-0.7355,0.0557,0.5706,
8.606627,-0.8181,0.9853,-0.0633,-2.4240,0.4430,0.4500,-0.7355,0.0557,0.5706,
8.610311,-0.8181,0.9853,-0.0633,-2.4240,0.4430,0.4500,-0.0654,0.3468,0.2736,
8.612778,-0.8181,0.9853,-0.0633,-3.4510,0.9760,-1.1520,-0.0654,0.3468,0.2736,
8.626745,-0.8181,0.9853,-0.0633,-3.7360,2.2210,-1.9420,-0.0654,0.3468,0.2736,
8.645994,-0.8181,0.9853,-0.0633,-4.2050,4.4960,1.1140,-0.0654,0.3468,0.2736,
8.667235,-0.6728,1.6212,0.3672,-4.2050,4.4960,1.1140,-0.0654,0.3468,0.2736,
8.671368,-0.6728,1.6212,0.3672,-4.2050,4.4960,1.1140,1.1324,0.3618,-0.6743,
8.675033,-0.6728,1.6212,0.3672,-1.9740,7.2340,3.3070,1.1324,0.3618,-0.6743,
8.686520,-0.6728,1.6212,0.3672,3.4970,7.8750,1.2860,1.1324,0.3618,-0.6743,
8.708155,-0.6728,1.6212,0.3672,5.2750,3.3660,0.0030,1.1324,0.3618,-0.6743,
8.727929,-0.4687,0.8074,-0.1009,5.2750,3.3660,0.0030,1.1324,0.3618,-0.6743,
8.733062,-0.4687,0.8074,-0.1009,5.2750,3.3660,0.0030,4.0615,0.2618,-2.0514,
8.736564,-0.4687,0.8074,-0.1009,0.7560,-0.2280,0.2510,4.0615,0.2618,-2.0514,
8.748124,-0.4687,0.8074,-0.1009,-1.9310,2.1470,-1.1440,4.0615,0.2618,-2.0514,
8.769100,-0.4687,0.8074,-0.1009,-1.5050,4.8400,-2.0360,4.0615,0.2618,-2.0514,
8.789422,-0.4993,1.1366,-0.2664,-1.5050,4.8400,-2.0360,4.0615,0.2618,-2.0514,
8.793628,-0.4993,1.1366,-0.2664,-1.5050,4.8400,-2.0360,0.7285,0.9237,-2.2983,
8.796666,-0.4993,1.1366,-0.2664,1.4370,3.9710,-0.3790,0.7285,0.9237,-2.2983,
8.809886,-0.4993,1.1366,-0.2664,1.7640,1.2910,2.3710,0.7285,0.9237,-2.2983,
8.829450,-0.4993,1.1366,-0.2664,0.3860,0.1110,3.1570,0.7285,0.9237,-2.2983,
8.849097,-0.5557,0.5682,-0.3134,0.3860,0.1110,3.1570,0.7285,0.9237,-2.2983,
8.855507,-0.5557,0.5682,-0.3134,1.6420,-0.2980,0.3690,0.7285,0.9237,-2.2983,
8.869964,-0.5557,0.5682,-0.3134,1.6420,-0.2980,0.3690,1.2836,2.6788,-2.7483,
8.873154,-0.5557,0.5682,-0.3134,3.7080,-1.8660,0.3220,1.2836,2.6788,-2.7483,
8.890890,-0.5557,0.5682,-0.3134,3.6860,-2.3390,1.9980,1.2836,2.6788,-2.7483,
8.910213,-0.2859,0.3778,-0.1515,3.6860,-2.3390,1.9980,1.2836,2.6788,-2.7483,
8.913470,-0.2859,0.3778,-0.1515,4.3680,-0.7600,3.5230,1.2836,2.6788,-2.7483,
8.929717,-0.2859,0.3778,-0.1515,4.3680,-0.7600,3.5230,1.0625,3.1518,-1.9194,
8.933835,-0.2859,0.3778,-0.1515,5.4860,-0.0930,4.6310,1.0625,3.1518,-1.9194,
8.950571,-0.2859,0.3778,-0.1515,5.2500,-1.3010,4.2810,1.0625,3.1518,-1.9194,
8.971518,-0.2300,0.1224,-0.3586,5.2500,-1.3010,4.2810,1.0625,3.1518,-1.9194,
8.975300,-0.2300,0.1224,-0.3586,4.3870,-2.1580,2.8930,1.0625,3.1518,-1.9194,
8.992993,-0.2300,0.1224,-0.3586,4.3870,-2.1580,2.8930,0.5325,1.0148,-0.7043,
8.996608,-0.2300,0.1224,-0.3586,3.9820,-1.5080,1.7430,0.5325,1.0148,-0.7043,
9.010852,-0.2300,0.1224,-0.3586,4.3470,-1.0470,1.3360,0.5325,1.0148,-0.7043,
9.032009,-0.2828,0.1813,-0.5965,4.3470,-1.0470,1.3360,0.5325,1.0148,-0.7043,
9.036484,-0.2828,0.1813,-0.5965,3.7140,-1.2170,0.8840,0.5325,1.0148,-0.7043,
9.051484,-0.2828,0.1813,-0.5965,3.7140,-1.2170,0.8840,-0.9265,-1.3212,0.8427,
9.055457,-0.2828,0.1813,-0.5965,2.3580,-1.7370,0.2980,-0.9265,-1.3212,0.8427,
9.071974,-0.2828,0.1813,-0.5965,1.8130,-2.3500,-0.6850,-0.9265,-1.3212,0.8427,
9.092509,-0.5650,0.1693,-0.7657,1.8130,-2.3500,-0.6850,-0.9265,-1.3212,0.8427,
9.096634,-0.5650,0.1693,-0.7657,1.3280,-2.0710,-1.5490,-0.9265,-1.3212,0.8427,
9.112443,-0.5650,0.1693,-0.7657,0.9320,-1.4540,-1.0920,-0.9265,-1.3212,0.8427,
9.132621,-0.5650,0.1693,-0.7657,0.9320,-1.4540,-1.0920,-2.1154,-4.1283,2.9386,
9.136355,-0.5650,0.1693,-0.7657,2.1150,-1.4080,0.0220,-2.1154,-4.1283,2.9386,
9.153108,-0.2708,1.0326,-0.8337,2.1150,-1.4080,0.0220,-2.1154,-4.1283,2.9386,
9.157005,-0.2708,1.0326,-0.8337,4.6150,4.6820,-4.4050,-2.1154,-4.1283,2.9386,
9.174049,-0.2708,1.0326,-0.8337,-12.1850,25.8700,4.3680,-2.1154,-4.1283,2.9386,
9.193894,-0.2708,1.0326,-0.8337,-12.1850,25.8700,4.3680,1.1385,0.0018,0.2717,
9.197060,-0.2708,1.0326,-0.8337,-19.1330,16.1650,8.3440,1.1385,0.0018,0.2717,
9.213774,-0.2737,-0.3103,-1.2990,-19.1330,16.1650,8.3440,1.1385,0.0018,0.2717,
9.218498,-0.2737,-0.3103,-1.2990,4.8960,-8.6890,-10.0790,1.1385,0.0018,0.2717,
9.234358,-0.2737,-0.3103,-1.2990,10.9050,-10.3600,1.3380,1.1385,0.0018,0.2717,
9.253966,-0.2737,-0.3103,-1.2990,10.9050,-10.3600,1.3380,0.1165,-0.7352,1.1426,
9.258049,-0.2737,-0.3103,-1.2990,10.1200,-5.3410,7.9130,0.1165,-0.7352,1.1426,
9.275817,-0.6132,0.9313,0.0013,10.1200,-5.3410,7.9130,0.1165,-0.7352,1.1426,
9.279307,-0.6132,0.9313,0.0013,1.1080,2.6190,1.7920,0.1165,-0.7352,1.1426,
9.293638,-0.6132,0.9313,0.0013,-1.0060,7.7870,1.2530,0.1165,-0.7352,1.1426,
9.315696,-0.6132,0.9313,0.0013,-1.0060,7.7870,1.2530,-0.1445,-3.2703,1.7427,
9.319878,-0.6132,0.9313,0.0013,4.8620,5.3660,2.5740,-0.1445,-3.2703,1.7427,
9.334788,-0.6647,0.9343,0.2005,4.8620,5.3660,2.5740,-0.1445,-3.2703,1.7427,
9.337088,-0.6647,0.9343,0.2005,-0.1000,1.7460,2.4410,-0.1445,-3.2703,1.7427,
9.356773,-0.6647,0.9343,0.2005,-6.4830,-0.1890,0.0100,-0.1445,-3.2703,1.7427,
9.376670,-0.6647,0.9343,0.2005,-6.6860,-3.1250,-3.1070,-0.1445,-3.2703,1.7427,
9.396705,-0.4837,0.4064,-0.1728,-6.6860,-3.1250,-3.1070,-0.1445,-3.2703,1.7427,
9.400574,-0.4837,0.4064,-0.1728,-6.6860,-3.1250,-3.1070,-1.1254,-0.3963,1.4317,
9.404109,-0.4837,0.4064,-0.1728,1.0090,-3.9560,-2.0980,-1.1254,-0.3963,1.4317,
9.414749,-0.4837,0.4064,-0.1728,3.8300,-3.8100,-0.1920,-1.1254,-0.3963,1.4317,
9.437336,-0.4837,0.4064,-0.1728,3.0790,-3.6080,1.7790,-1.1254,-0.3963,1.4317,
9.455687,-0.2991,0.5195,0.1883,3.0790,-3.6080,1.7790,-1.1254,-0.3963,1.4317,
9.459266,-0.2991,0.5195,0.1883,3.0790,-3.6080,1.7790,-0.2865,-1.1333,0.6436,
9.461886,-0.2991,0.5195,0.1883,2.3120,-3.1690,1.0330,-0.2865,-1.1333,0.6436,
9.476848,-0.2991,0.5195,0.1883,1.0460,-2.3200,-1.5530,-0.2865,-1.1333,0.6436,
9.495722,-0.2991,0.5195,0.1883,-0.0640,-1.9010,-2.4420,-0.2865,-1.1333,0.6436,
9.520264,-0.5620,0.5939,0.0444,-0.0640,-1.9010,-2.4420,-0.2865,-1.1333,0.6436,
9.524312,-0.5620,0.5939,0.0444,-0.0640,-1.9010,-2.4420,-0.4005,-0.5503,0.5006,
9.527559,-0.5620,0.5939,0.0444,-0.5500,-2.5700,-0.7250,-0.4005,-0.5503,0.5006,
9.536429,-0.5620,0.5939,0.0444,-1.3900,-2.1640,1.6470,-0.4005,-0.5503,0.5006,
9.559523,-0.5620,0.5939,0.0444,-3.3720,-0.6880,1.6630,-0.4005,-0.5503,0.5006,
9.577353,-1.0122,0.8786,0.2870,-3.3720,-0.6880,1.6630,-0.4005,-0.5503,0.5006,
9.581925,-1.0122,0.8786,0.2870,-3.3720,-0.6880,1.6630,-0.4775,0.0487,0.8097,
9.587021,-1.0122,0.8786,0.2870,-5.3110,0.0750,1.3350,-0.4775,0.0487,0.8097,
9.598870,-1.0122,0.8786,0.2870,-4.4240,0.7260,0.5750,-0.4775,0.0487,0.8097,
9.617375,-1.0122,0.8786,0.2870,-2.8660,2.0690,-0.0210,-0.4775,0.0487,0.8097,
9.639426,-0.5440,1.2656,0.2384,-2.8660,2.0690,-0.0210,-0.4775,0.0487,0.8097,
9.643573,-0.5440,1.2656,0.2384,-1.0830,3.7170,0.6280,-0.4775,0.0487,0.8097,
9.660010,-0.5440,1.2656,0.2384,-1.0830,3.7170,0.6280,0.2335,-0.3263,0.1446,
9.663659,-0.5440,1.2656,0.2384,-0.2090,5.1360,2.7390,0.2335,-0.3263,0.1446,
9.680641,-0.5440,1.2656,0.2384,-0.4300,7.0450,3.5680,0.2335,-0.3263,0.1446,
9.697316,-0.0950,1.6324,0.1511,-0.4300,7.0450,3.5680,0.2335,-0.3263,0.1446,
9.701695,-0.0950,1.6324,0.1511,3.2230,7.2050,0.1390,0.2335,-0.3263,0.1446,
9.720947,-0.0950,1.6324,0.1511,3.2230,7.2050,0.1390,3.1895,-0.3883,-1.2243,
9.725268,-0.0950,1.6324,0.1511,5.0230,0.1780,-5.0240,3.1895,-0.3883,-1.2243,
9.738538,-0.0950,1.6324,0.1511,2.4800,-4.4440,-7.5470,3.1895,-0.3883,-1.2243,
9.762211,-0.4174,0.6574,-0.7024,2.4800,-4.4440,-7.5470,3.1895,-0.3883,-1.2243,
9.765306,-0.4174,0.6574,-0.7024,1.0210,-1.9410,-6.7320,3.1895,-0.3883,-1.2243,
9.779579,-0.4174,0.6574,-0.7024,1.0210,-1.9410,-6.7320,1.3564,-1.0202,-2.4034,
9.782860,-0.4174,0.6574,-0.7024,-3.2330,3.7380,-0.5970,1.3564,-1.0202,-2.4034,
9.802242,-0.4174,0.6574,-0.7024,-3.2560,8.9610,4.4950,1.3564,-1.0202,-2.4034,
9.820291,-0.2845,1.6490,0.1805,-3.2560,8.9610,4.4950,1.3564,-1.0202,-2.4034,
9.824014,-0.2845,1.6490,0.1805,3.3630,8.5400,2.4490,1.3564,-1.0202,-2.4034,
9.842297,-0.2845,1.6490,0.1805,3.3630,8.5400,2.4490,1.0865,0.7657,-1.1674,
9.845316,-0.2845,1.6490,0.1805,6.0480,4.5370,-2.3800,1.0865,0.7657,-1.1674,
9.860270,-0.2845,1.6490,0.1805,5.8090,1.8090,-3.6890,1.0865,0.7657,-1.1674,
9.882654,-0.1503,0.8143,-0.0518,5.8090,1.8090,-3.6890,1.0865,0.7657,-1.1674,
9.886577,-0.1503,0.8143,-0.0518,5.1900,0.9050,0.8840,1.0865,0.7657,-1.1674,
9.901187,-0.1503,0.8143,-0.0518,3.9400,0.0860,1.4300,1.0865,0.7657,-1.1674,
9.923143,-0.1503,0.8143,-0.0518,3.9400,0.0860,1.4300,1.6435,-0.2332,-1.1454,
9.926844,-0.1503,0.8143,-0.0518,3.8200,-0.8100,-0.3790,1.6435,-0.2332,-1.1454,
9.943191,-0.2663,0.5058,-0.0520,3.8200,-0.8100,-0.3790,1.6435,-0.2332,-1.1454,
9.946616,-0.2663,0.5058,-0.0520,4.5360,-1.4830,1.4690,1.6435,-0.2332,-1.1454,
9.963149,-0.2663,0.5058,-0.0520,4.5820,-2.1270,1.1310,1.6435,-0.2332,-1.1454,
9.982812,-0.2663,0.5058,-0.0520,4.5820,-2.1270,1.1310,1.3454,0.7028,-0.4674,
9.987873,-0.2663,0.5058,-0.0520,4.0710,-3.2580,0.1900,1.3454,0.7028,-0.4674,
10.004476,-0.3231,0.2311,-0.1384,4.0710,-3.2580,0.1900,1.3454,0.7028,-0.4674,
10.007150,-0.3231,0.2311,-0.1384,4.0900,-3.7310,1.4230,1.3454,0.7028,-0.4674,
10.022003,-0.3231,0.2311,-0.1384,5.0160,-3.1700,2.2870,1.3454,0.7028,-0.4674,
10.045074,-0.3231,0.2311,-0.1384,5.0160,-3.1700,2.2870,0.7415,-0.2273,0.3087,
10.048568,-0.3231,0.2311,-0.1384,6.0040,-2.7590,1.8350,0.7415,-0.2273,0.3087,
10.062491,-0.0750,0.3399,-0.2295,6.0040,-2.7590,1.8350,0.7415,-0.2273,0.3087,
10.066467,-0.0750,0.3399,-0.2295,6.4720,-2.5810,0.8410,0.7415,-0.2273,0.3087,
10.084875,-0.0750,0.3399,-0.2295,5.6870,-2.2830,0.3630,0.7415,-0.2273,0.3087,
10.103193,-0.0750,0.3399,-0.2295,5.6870,-2.2830,0.3630,-0.1385,-1.2823,1.1287,
10.106619,-0.0750,0.3399,-0.2295,4.3670,-2.1500,0.2870,-0.1385,-1.2823,1.1287,
10.125678,-0.3436,0.4142,-0.3101,4.3670,-2.1500,0.2870,-0.1385,-1.2823,1.1287,
10.128793,-0.3436,0.4142,-0.3101,3.6980,-2.1880,-0.3410,-0.1385,-1.2823,1.1287,
10.144089,-0.3436,0.4142,-0.3101,3.2920,-2.3130,-1.6270,-0.1385,-1.2823,1.1287,
10.166024,-0.3436,0.4142,-0.3101,2.0330,-1.7360,-3.9090,-0.1385,-1.2823,1.1287,
10.183932,-0.7412,0.8001,-0.7722,2.0330,-1.7360,-3.9090,-0.1385,-1.2823,1.1287,
10.187618,-0.7412,0.8001,-0.7722,2.0330,-1.7360,-3.9090,-1.0814,-3.1683,1.9557,
10.190659,-0.7412,0.8001,-0.7722,-0.6080,0.7720,-6.1080,-1.0814,-3.1683,1.9557,
10.207098,-0.7412,0.8001,-0.7722,-5.7550,4.8560,-3.8130,-1.0814,-3.1683,1.9557,
10.226537,-0.7412,0.8001,-0.7722,-10.8630,4.2240,1.6100,-1.0814,-3.1683,1.9557,
10.246425,-1.2427,0.8282,-0.0087,-10.8630,4.2240,1.6100,-1.0814,-3.1683,1.9557,
10.249777,-1.2427,0.8282,-0.0087,-10.8630,4.2240,1.6100,-0.2845,-2.3372,0.0356,
10.252642,-1.2427,0.8282,-0.0087,-5.7620,0.6860,-0.0880,-0.2845,-2.3372,0.0356,
10.265848,-1.2427,0.8282,-0.0087,-2.7200,5.0130,-3.1950,-0.2845,-2.3372,0.0356,
10.287493,-1.2427,0.8282,-0.0087,0.6830,10.1760,0.4640,-0.2845,-2.3372,0.0356,
10.305922,0.2721,1.5900,0.3373,0.6830,10.1760,0.4640,-0.2845,-2.3372,0.0356,
10.309292,0.2721,1.5900,0.3373,0.6830,10.1760,0.4640,-0.5235,0.1797,-0.0084,
10.312081,0.2721,1.5900,0.3373,9.1020,8.2570,2.3110,-0.5235,0.1797,-0.0084,
10.327934,0.2721,1.5900,0.3373,12.7380,1.8470,1.1030,-0.5235,0.1797,-0.0084,
10.345658,0.2721,1.5900,0.3373,11.7770,-2.2440,1.7180,-0.5235,0.1797,-0.0084,
10.368261,0.5403,0.8756,0.2044,11.7770,-2.2440,1.7180,-0.5235,0.1797,-0.0084,
10.372476,0.5403,0.8756,0.2044,11.7770,-2.2440,1.7180,1.8215,-5.4643,0.7707,
10.375689,0.5403,0.8756,0.2044,11.5040,1.1070,0.7220,1.8215,-5.4643,0.7707,
10.385984,0.5403,0.8756,0.2044,3.7740,3.3770,7.1940,1.8215,-5.4643,0.7707,
10.409181,0.5403,0.8756,0.2044,0.2600,3.1600,7.5720,1.8215,-5.4643,0.7707,
10.427939,-0.4704,0.9289,0.4796,0.2600,3.1600,7.5720,1.8215,-5.4643,0.7707,
10.431555,-0.4704,0.9289,0.4796,0.8650,1.1300,3.0330,1.8215,-5.4643,0.7707,
10.449974,-0.4704,0.9289,0.4796,0.8650,1.1300,3.0330,-0.1754,-1.9122,0.4137,
10.454010,-0.4704,0.9289,0.4796,-3.1080,-1.1980,-1.4200,-0.1754,-1.9122,0.4137,
10.467200,-0.4704,0.9289,0.4796,-4.3820,-1.8890,2.1910,-0.1754,-1.9122,0.4137,
10.489891,-0.8404,0.5669,0.5735,-4.3820,-1.8890,2.1910,-0.1754,-1.9122,0.4137,
10.493787,-0.8404,0.5669,0.5735,-3.3290,-2.4330,2.6850,-0.1754,-1.9122,0.4137,
10.509978,-0.8404,0.5669,0.5735,-3.3290,-2.4330,2.6850,1.9394,-4.9962,-0.6483,
10.513396,-0.8404,0.5669,0.5735,-0.5600,-1.3230,-0.0560,1.9394,-4.9962,-0.6483,
10.529869,-0.8404,0.5669,0.5735,0.1010,0.7600,-4.8780,1.9394,-4.9962,-0.6483,
10.548445,-0.6980,0.8267,0.0996,0.1010,0.7600,-4.8780,1.9394,-4.9962,-0.6483,
10.552558,-0.6980,0.8267,0.0996,-2.3170,0.0290,-2.3120,1.9394,-4.9962,-0.6483,
10.570589,-0.6980,0.8267,0.0996,-2.3170,0.0290,-2.3120,0.8645,-2.0243,-0.4753,
10.574914,-0.6980,0.8267,0.0996,-1.9000,-1.3110,1.1350,0.8645,-2.0243,-0.4753,
10.589038,-0.6980,0.8267,0.0996,-1.3910,-1.2170,-0.7960,0.8645,-2.0243,-0.4753,
10.610903,-0.6163,0.8043,0.0679,-1.3910,-1.2170,-0.7960,0.8645,-2.0243,-0.4753,
10.614045,-0.6163,0.8043,0.0679,-1.7210,-0.2330,-2.7900,0.8645,-2.0243,-0.4753,
10.629049,-0.6163,0.8043,0.0679,-1.7210,-0.2330,-2.7900,0.9115,-1.5263,-0.1224,
10.632867,-0.6163,0.8043,0.0679,-2.5300,-0.0640,-4.1490,0.9115,-1.5263,-0.1224,
10.651470,-0.6163,0.8043,0.0679,-2.7390,-0.6460,-4.7850,0.9115,-1.5263,-0.1224,
10.669672,-0.6703,0.7425,-0.0278,-2.7390,-0.6460,-4.7850,0.9115,-1.5263,-0.1224,
10.673640,-0.6703,0.7425,-0.0278,-2.5240,-0.9790,-3.6840,0.9115,-1.5263,-0.1224,
10.692163,-0.6703,0.7425,-0.0278,-2.0610,-1.2200,-3.0980,0.9115,-1.5263,-0.1224,
10.710670,-0.6703,0.7425,-0.0278,-2.0610,-1.2200,-3.0980,0.9305,-0.9053,-0.0484,
10.713803,-0.6703,0.7425,-0.0278,-1.9010,-2.0410,-1.8390,0.9305,-0.9053,-0.0484,
10.732489,-0.5317,0.5628,0.2374,-1.9010,-2.0410,-1.8390,0.9305,-0.9053,-0.0484,
10.736393,-0.5317,0.5628,0.2374,-1.2890,-2.9080,-0.8640,0.9305,-0.9053,-0.0484,
10.750545,-0.5317,0.5628,0.2374,-0.7540,-3.3450,-0.9090,0.9305,-0.9053,-0.0484,
10.773096,-0.5317,0.5628,0.2374,-0.7540,-3.3450,-0.9090,1.9595,-0.5653,-1.2823,
10.776818,-0.5317,0.5628,0.2374,-0.3040,-3.0670,-0.1110,1.9595,-0.5653,-1.2823,
10.793203,-0.3355,0.7835,0.4384,-0.3040,-3.0670,-0.1110,1.9595,-0.5653,-1.2823,
10.796659,-0.3355,0.7835,0.4384,1.1280,-0.7730,1.9550,1.9595,-0.5653,-1.2823,
10.814018,-0.3355,0.7835,0.4384,3.1110,5.8860,0.4450,1.9595,-0.5653,-1.2823,
10.831533,-0.3355,0.7835,0.4384,3.1110,5.8860,0.4450,4.9925,-2.6632,-3.0814,
10.834494,-0.3355,0.7835,0.4384,0.3430,14.0660,-5.2800,4.9925,-2.6632,-3.0814,
10.853490,-0.9700,2.2699,-0.6073,0.3430,14.0660,-5.2800,4.9925,-2.6632,-3.0814,
10.855637,-0.9700,2.2699,-0.6073,-3.8040,14.2740,-6.5120,4.9925,-2.6632,-3.0814,
10.872134,-0.9700,2.2699,-0.6073,0.6280,8.6490,-0.7240,4.9925,-2.6632,-3.0814,
10.894877,-0.9700,2.2699,-0.6073,0.6280,8.6490,-0.7240,2.3686,-1.0453,-1.5884,
10.899610,-0.9700,2.2699,-0.6073,3.9210,5.0430,0.9120,2.3686,-1.0453,-1.5884,
10.912902,-0.4883,0.9825,-0.1655,3.9210,5.0430,0.9120,2.3686,-1.0453,-1.5884,
10.917621,-0.4883,0.9825,-0.1655,1.5760,2.1510,-1.4290,2.3686,-1.0453,-1.5884,
10.934634,-0.4883,0.9825,-0.1655,-1.7970,-0.0240,-0.9510,2.3686,-1.0453,-1.5884,
10.953610,-0.4883,0.9825,-0.1655,-5.1720,-0.7720,-0.6870,2.3686,-1.0453,-1.5884,
10.975269,-0.6715,0.6962,-0.2791,-5.1720,-0.7720,-0.6870,2.3686,-1.0453,-1.5884,
10.979307,-0.6715,0.6962,-0.2791,-5.1720,-0.7720,-0.6870,2.1605,3.3107,-2.2293,
10.983080,-0.6715,0.6962,-0.2791,0.8300,0.6280,-0.9720,2.1605,3.3107,-2.2293,
10.994897,-0.6715,0.6962,-0.2791,7.1330,-0.1330,1.5340,2.1605,3.3107,-2.2293,
11.015677,-0.6715,0.6962,-0.2791,6.5190,-1.7620,1.4730,2.1605,3.3107,-2.2293,
11.034500,-0.5025,0.4322,-0.3016,6.5190,-1.7620,1.4730,2.1605,3.3107,-2.2293,
11.036706,-0.5025,0.4322,-0.3016,6.5190,-1.7620,1.4730,2.4265,1.7597,-1.7733,
11.038330,-0.5025,0.4322,-0.3016,2.7470,-0.6890,0.6720,2.4265,1.7597,-1.7733,
11.056151,-0.5025,0.4322,-0.3016,0.9540,0.9900,1.6610,2.4265,1.7597,-1.7733,
11.076838,-0.5025,0.4322,-0.3016,1.2960,-0.0460,1.0440,2.4265,1.7597,-1.7733,
11.096003,-0.4374,0.1202,-0.5709,1.2960,-0.0460,1.0440,2.4265,1.7597,-1.7733,
11.102140,-0.4374,0.1202,-0.5709,1.2960,-0.0460,1.0440,1.0336,2.3977,-0.9444,
11.106102,-0.4374,0.1202,-0.5709,3.1880,-2.5880,-0.4550,1.0336,2.3977,-0.9444,
11.115494,-0.4374,0.1202,-0.5709,4.2330,-3.9540,0.6310,1.0336,2.3977,-0.9444,
11.136721,-0.4374,0.1202,-0.5709,5.0540,-3.6200,1.2360,1.0336,2.3977,-0.9444,
11.156505,-0.1067,-0.0535,-0.6046,5.0540,-3.6200,1.2360,1.0336,2.3977,-0.9444,
11.160661,-0.1067,-0.0535,-0.6046,5.0540,-3.6200,1.2360,-0.0135,-0.7853,0.6296,
11.163627,-0.1067,-0.0535,-0.6046,6.0640,-3.9650,-0.1040,-0.0135,-0.7853,0.6296,
11.177036,-0.1067,-0.0535,-0.6046,4.8780,-3.8200,-2.0560,-0.0135,-0.7853,0.6296,
11.196816,-0.1067,-0.0535,-0.6046,3.1560,-4.1000,-2.9740,-0.0135,-0.7853,0.6296,
11.217966,-0.6168,-0.0686,-0.8021,3.1560,-4.1000,-2.9740,-0.0135,-0.7853,0.6296,
11.222368,-0.6168,-0.0686,-0.8021,1.3340,-4.7170,-2.8120,-0.0135,-0.7853,0.6296,
11.237874,-0.6168,-0.0686,-0.8021,1.3340,-4.7170,-2.8120,-1.2995,-2.7053,2.0327,
11.241000,-0.6168,-0.0686,-0.8021,-0.0080,-4.2270,-2.7780,-1.2995,-2.7053,2.0327,
11.258970,-0.6168,-0.0686,-0.8021,1.1040,-3.6430,-1.7110,-1.2995,-2.7053,2.0327,
11.278186,-0.3080,0.5948,-0.6538,1.1040,-3.6430,-1.7110,-1.2995,-2.7053,2.0327,
11.282411,-0.3080,0.5948,-0.6538,4.3600,0.2210,-3.1540,-1.2995,-2.7053,2.0327,
11.299353,-0.3080,0.5948,-0.6538,4.3600,0.2210,-3.1540,-1.5265,-4.9072,0.6267,
11.303105,-0.3080,0.5948,-0.6538,-4.6830,17.4790,-3.6350,-1.5265,-4.9072,0.6267,
11.318432,-0.3080,0.5948,-0.6538,-19.3870,22.3290,10.7460,-1.5265,-4.9072,0.6267,
11.338332,-1.5429,0.3106,-0.6349,-19.3870,22.3290,10.7460,-1.5265,-4.9072,0.6267,
11.342087,-1.5429,0.3106,-0.6349,-7.5340,-3.0010,-4.7360,-1.5265,-4.9072,0.6267,
11.358791,-1.5429,0.3106,-0.6349,-7.5340,-3.0010,-4.7360,-2.0015,-0.4693,2.1297,
11.362103,-1.5429,0.3106,-0.6349,6.9910,-12.0870,-7.9020,-2.0015,-0.4693,2.1297,
11.378497,-1.5429,0.3106,-0.6349,10.1200,-6.5430,3.1160,-2.0015,-0.4693,2.1297,
11.398219,0.0704,1.2290,0.7930,10.1200,-6.5430,3.1160,-2.0015,-0.4693,2.1297,
11.402043,0.0704,1.2290,0.7930,7.4590,4.9770,8.3400,-2.0015,-0.4693,2.1297,
11.421105,0.0704,1.2290,0.7930,7.4590,4.9770,8.3400,0.1836,-2.3433,1.3076,
11.425591,0.0704,1.2290,0.7930,4.3250,12.4860,5.0520,0.1836,-2.3433,1.3076,
11.439306,0.0704,1.2290,0.7930,1.4910,4.3580,-2.8610,0.1836,-2.3433,1.3076,
11.460278,-0.7656,0.1300,-0.3658,1.4910,4.3580,-2.8610,0.1836,-2.3433,1.3076,
11.462959,-0.7656,0.1300,-0.3658,-1.3640,-6.3830,-3.9210,0.1836,-2.3433,1.3076,
11.479874,-0.7656,0.1300,-0.3658,-1.9730,-6.2420,0.6110,0.1836,-2.3433,1.3076,
11.500981,-0.7656,0.1300,-0.3658,-1.9730,-6.2420,0.6110,-0.6025,-0.0962,1.7076,
11.505364,-0.7656,0.1300,-0.3658,-1.2640,-1.6560,1.2830,-0.6025,-0.0962,1.7076,
11.520572,-0.7575,0.6149,0.0766,-1.2640,-1.6560,1.2830,-0.6025,-0.0962,1.7076,
11.523640,-0.7575,0.6149,0.0766,-2.1000,-2.1740,-0.0800,-0.6025,-0.0962,1.7076,
11.541543,-0.7575,0.6149,0.0766,0.1220,-4.3920,-0.6480,-0.6025,-0.0962,1.7076,
11.560967,-0.7575,0.6149,0.0766,0.1220,-4.3920,-0.6480,-0.9725,0.1298,1.1067,
11.563642,-0.7575,0.6149,0.0766,1.8670,-3.5030,0.5560,-0.9725,0.1298,1.1067,
11.582834,-0.4343,0.7470,0.1003,1.8670,-3.5030,0.5560,-0.9725,0.1298,1.1067,
11.586679,-0.4343,0.7470,0.1003,0.5110,-1.1560,-0.3430,-0.9725,0.1298,1.1067,
11.602306,-0.4343,0.7470,0.1003,0.2700,0.4800,-1.2880,-0.9725,0.1298,1.1067,
11.622958,-0.4343,0.7470,0.1003,0.2700,0.4800,-1.2880,-0.5385,-0.0632,0.6097,
11.627223,-0.4343,0.7470,0.1003,1.0860,0.9030,-0.7930,-0.5385,-0.0632,0.6097,
11.644158,-0.2805,0.9565,0.1272,1.0860,0.9030,-0.7930,-0.5385,-0.0632,0.6097,
11.648210,-0.2805,0.9565,0.1272,1.6630,0.7780,-0.4820,-0.5385,-0.0632,0.6097,
11.662452,-0.2805,0.9565,0.1272,0.1820,0.1410,0.1050,-0.5385,-0.0632,0.6097,
11.682718,-0.2805,0.9565,0.1272,0.1820,0.1410,0.1050,-0.0954,-0.4573,0.4377,
11.686781,-0.2805,0.9565,0.1272,-0.8510,-0.4590,-0.4250,-0.0954,-0.4573,0.4377,
11.703560,-0.6060,0.7737,0.0527,-0.8510,-0.4590,-0.4250,-0.0954,-0.4573,0.4377,
11.707409,-0.6060,0.7737,0.0527,-1.8000,-1.1040,-1.4330,-0.0954,-0.4573,0.4377,
11.722819,-0.6060,0.7737,0.0527,-3.1930,-1.3180,-1.7090,-0.0954,-0.4573,0.4377,
11.743170,-0.6060,0.7737,0.0527,-3.9090,-0.5470,-1.4410,-0.0954,-0.4573,0.4377,
11.763177,-0.6574,0.9037,0.1756,-3.9090,-0.5470,-1.4410,-0.0954,-0.4573,0.4377,
11.768240,-0.6574,0.9037,0.1756,-3.9090,-0.5470,-1.4410,-0.2655,-0.0263,0.4177,
11.771535,-0.6574,0.9037,0.1756,-2.4960,0.1120,-0.3580,-0.2655,-0.0263,0.4177,
11.783635,-0.6574,0.9037,0.1756,-0.9060,0.7800,0.5440,-0.2655,-0.0263,0.4177,
11.803685,-0.6574,0.9037,0.1756,-1.0620,1.4990,-0.0530,-0.2655,-0.0263,0.4177,
11.824389,-0.5014,1.0890,0.1341,-1.0620,1.4990,-0.0530,-0.2655,-0.0263,0.4177,
11.826550,-0.5014,1.0890,0.1341,-1.0620,1.4990,-0.0530,0.3385,-0.3843,0.3106,
11.828618,-0.5014,1.0890,0.1341,-1.1690,1.8320,-0.7490,0.3385,-0.3843,0.3106,
11.843816,-0.5014,1.0890,0.1341,-1.5230,2.6860,0.7870,0.3385,-0.3843,0.3106,
11.864344,-0.5014,1.0890,0.1341,-3.4580,4.6370,0.6520,0.3385,-0.3843,0.3106,
11.884043,-0.5200,1.4812,0.1886,-3.4580,4.6370,0.6520,0.3385,-0.3843,0.3106,
11.885222,-0.5200,1.4812,0.1886,-3.4580,4.6370,0.6520,0.9206,-0.5783,-0.5694,
11.885911,-0.5200,1.4812,0.1886,-1.3130,5.6400,0.0280,0.9206,-0.5783,-0.5694,
11.905292,-0.5200,1.4812,0.1886,2.0490,3.7100,1.0980,0.9206,-0.5783,-0.5694,
11.925290,-0.5200,1.4812,0.1886,2.3660,2.4930,0.2740,0.9206,-0.5783,-0.5694,
11.945575,-0.2131,1.2043,-0.0895,2.3660,2.4930,0.2740,0.9206,-0.5783,-0.5694,
11.949620,-0.2131,1.2043,-0.0895,2.3660,2.4930,0.2740,3.3775,-0.9613,-1.3843,
11.951907,-0.2131,1.2043,-0.0895,2.0860,2.9510,-1.6270,3.3775,-0.9613,-1.3843,
11.965188,-0.2131,1.2043,-0.0895,0.3500,3.5570,-2.7830,3.3775,-0.9613,-1.3843,
11.985959,-0.2131,1.2043,-0.0895,-1.7500,4.0300,-2.4110,3.3775,-0.9613,-1.3843,
12.006971,-0.6056,1.2994,-0.1268,-1.7500,4.0300,-2.4110,3.3775,-0.9613,-1.3843,
12.010135,-0.6056,1.2994,-0.1268,-0.9520,4.2840,-0.7330,3.3775,-0.9613,-1.3843,
12.026799,-0.6056,1.2994,-0.1268,-0.9520,4.2840,-0.7330,2.3745,-0.8243,-1.5044,
12.030077,-0.6056,1.2994,-0.1268,0.6210,3.6400,-1.0920,2.3745,-0.8243,-1.5044,
12.045696,-0.6056,1.2994,-0.1268,2.5530,2.3880,-0.9710,2.3745,-0.8243,-1.5044,
12.067401,-0.5562,0.8380,0.0551,2.5530,2.3880,-0.9710,2.3745,-0.8243,-1.5044,
12.071177,-0.5562,0.8380,0.0551,0.5010,0.5130,1.8360,2.3745,-0.8243,-1.5044,
12.087094,-0.5562,0.8380,0.0551,0.5010,0.5130,1.8360,2.1845,1.2627,-2.5464,
12.089601,-0.5562,0.8380,0.0551,-2.1570,-0.6010,0.8140,2.1845,1.2627,-2.5464,
12.109154,-0.5562,0.8380,0.0551,2.5240,-0.8300,-2.6330,2.1845,1.2627,-2.5464,
12.127234,-0.2426,0.4301,-0.1151,2.5240,-0.8300,-2.6330,2.1845,1.2627,-2.5464,
12.130153,-0.2426,0.4301,-0.1151,4.4100,-2.3120,1.6520,2.1845,1.2627,-2.5464,
12.148398,-0.2426,0.4301,-0.1151,4.4100,-2.3120,1.6520,1.5855,3.0957,-2.2953,
12.151021,-0.2426,0.4301,-0.1151,3.1340,-4.1620,4.4770,1.5855,3.0957,-2.2953,
12.168374,-0.2426,0.4301,-0.1151,2.7560,-5.1400,2.7250,1.5855,3.0957,-2.2953,
12.190349,-0.3023,0.0695,-0.2845,2.7560,-5.1400,2.7250,1.5855,3.0957,-2.2953,
12.194479,-0.3023,0.0695,-0.2845,3.9240,-4.6690,1.7320,1.5855,3.0957,-2.2953,
12.210129,-0.3023,0.0695,-0.2845,3.9240,-4.6690,1.7320,0.7905,1.9128,-0.9123,
12.214295,-0.3023,0.0695,-0.2845,5.7140,-3.9200,1.7170,0.7905,1.9128,-0.9123,
12.228730,-0.3023,0.0695,-0.2845,6.2120,-3.3990,1.5210,0.7905,1.9128,-0.9123,
12.249418,-0.0806,0.1826,-0.4788,6.2120,-3.3990,1.5210,0.7905,1.9128,-0.9123,
12.252519,-0.0806,0.1826,-0.4788,5.8260,-2.9820,0.7610,0.7905,1.9128,-0.9123,
12.269661,-0.0806,0.1826,-0.4788,4.5210,-2.6130,-0.7680,0.7905,1.9128,-0.9123,
12.290204,-0.0806,0.1826,-0.4788,4.5210,-2.6130,-0.7680,-0.6665,-1.2503,0.3766,
12.293918,-0.0806,0.1826,-0.4788,3.2440,-2.8560,-1.8570,-0.6665,-1.2503,0.3766,
12.310423,-0.5228,0.1586,-0.7579,3.2440,-2.8560,-1.8570,-0.6665,-1.2503,0.3766,
12.313701,-0.5228,0.1586,-0.7579,1.7340,-3.5180,-2.5800,-0.6665,-1.2503,0.3766,
12.329708,-0.5228,0.1586,-0.7579,0.3400,-3.9970,-2.2740,-0.6665,-1.2503,0.3766,
12.350900,-0.5228,0.1586,-0.7579,0.3400,-3.9970,-2.2740,-1.8844,-3.2032,2.3126,
12.354302,-0.5228,0.1586,-0.7579,1.8360,-3.6790,-1.2450,-1.8844,-3.2032,2.3126,
12.370611,-0.7260,1.2561,-0.5858,1.8360,-3.6790,-1.2450,-1.8844,-3.2032,2.3126,
12.374021,-0.7260,1.2561,-0.5858,-0.0780,6.1390,-2.7680,-1.8844,-3.2032,2.3126,
12.392382,-0.7260,1.2561,-0.5858,-11.1110,18.5540,9.3050,-1.8844,-3.2032,2.3126,
12.412191,-0.7260,1.2561,-0.5858,-11.1110,18.5540,9.3050,-0.9206,-0.8562,0.9217,
12.415899,-0.7260,1.2561,-0.5858,-6.9570,9.9800,-4.9850,-0.9206,-0.8562,0.9217,
12.431984,-0.2251,-0.1360,-0.4719,-6.9570,9.9800,-4.9850,-0.9206,-0.8562,0.9217,
12.435863,-0.2251,-0.1360,-0.4719,4.8520,-7.8880,-2.7730,-0.9206,-0.8562,0.9217,
12.451034,-0.2251,-0.1360,-0.4719,6.7880,-8.1720,5.4360,-0.9206,-0.8562,0.9217,
12.472327,-0.2251,-0.1360,-0.4719,6.7880,-8.1720,5.4360,-0.3695,-2.2803,2.1707,
12.475777,-0.2251,-0.1360,-0.4719,2.4760,3.0390,2.6790,-0.3695,-2.2803,2.1707,
12.492366,-0.5513,1.8334,0.1532,2.4760,3.0390,2.6790,-0.3695,-2.2803,2.1707,
12.494675,-0.5513,1.8334,0.1532,0.9410,10.5470,2.5100,-0.3695,-2.2803,2.1707,
12.512578,-0.5513,1.8334,0.1532,1.2730,6.2380,2.5700,-0.3695,-2.2803,2.1707,
12.533858,-0.5513,1.8334,0.1532,-0.5790,0.0860,0.8710,-0.3695,-2.2803,2.1707,
12.553030,-0.8481,0.6852,-0.0379,-0.5790,0.0860,0.8710,-0.3695,-2.2803,2.1707,
12.555512,-0.8481,0.6852,-0.0379,-0.5790,0.0860,0.8710,-0.3844,-2.1263,1.7036,
12.558086,-0.8481,0.6852,-0.0379,-2.6900,-1.3220,-0.2580,-0.3844,-2.1263,1.7036,
12.573441,-0.8481,0.6852,-0.0379,-4.1110,-1.3070,-0.4350,-0.3844,-2.1263,1.7036,
12.593596,-0.8481,0.6852,-0.0379,-3.7010,-2.8910,-1.6900,-0.3844,-2.1263,1.7036,
12.612922,-0.5210,0.4022,-0.1929,-3.7010,-2.8910,-1.6900,-0.3844,-2.1263,1.7036,
12.616044,-0.5210,0.4022,-0.1929,-3.7010,-2.8910,-1.6900,-1.2095,0.3627,1.4167,
12.617734,-0.5210,0.4022,-0.1929,-0.2420,-4.5640,-2.4840,-1.2095,0.3627,1.4167,
12.633948,-0.5210,0.4022,-0.1929,1.8790,-5.7070,-1.2030,-1.2095,0.3627,1.4167,
12.653519,-0.5210,0.4022,-0.1929,2.2980,-6.5250,0.5400,-1.2095,0.3627,1.4167,
12.675291,-0.2539,0.2458,0.0673,2.2980,-6.5250,0.5400,-1.2095,0.3627,1.4167,
12.677421,-0.2539,0.2458,0.0673,2.2980,-6.5250,0.5400,-0.8625,-0.8353,0.6787,
12.679080,-0.2539,0.2458,0.0673,1.8050,-6.3440,-0.5260,-0.8625,-0.8353,0.6787,
12.693777,-0.2539,0.2458,0.0673,1.9320,-4.2790,-2.8640,-0.8625,-0.8353,0.6787,
12.716979,-0.2539,0.2458,0.0673,1.8510,-2.2390,-3.1330,-0.8625,-0.8353,0.6787,
12.734119,-0.4093,0.8380,-0.0250,1.8510,-2.2390,-3.1330,-0.8625,-0.8353,0.6787,
12.737104,-0.4093,0.8380,-0.0250,1.8510,-2.2390,-3.1330,-0.3805,-0.1713,0.4987,
12.739220,-0.4093,0.8380,-0.0250,-0.0330,-0.6130,-1.8870,-0.3805,-0.1713,0.4987,
12.756520,-0.4093,0.8380,-0.0250,-1.5930,1.0100,-0.5470,-0.3805,-0.1713,0.4987,
12.775853,-0.4093,0.8380,-0.0250,-3.2980,1.5250,0.1000,-0.3805,-0.1713,0.4987,
12.797038,-0.7644,1.0738,0.2802,-3.2980,1.5250,0.1000,-0.3805,-0.1713,0.4987,
12.800950,-0.7644,1.0738,0.2802,-3.7070,1.6460,0.9170,-0.3805,-0.1713,0.4987,
12.814892,-0.7644,1.0738,0.2802,-3.7070,1.6460,0.9170,-0.2005,0.0718,0.4407,
12.818438,-0.7644,1.0738,0.2802,-1.9420,2.2620,2.4080,-0.2005,0.0718,0.4407,
12.837591,-0.7644,1.0738,0.2802,-1.2910,2.0620,2.2970,-0.2005,0.0718,0.4407,
12.856091,-0.7838,0.9553,0.2416,-1.2910,2.0620,2.2970,-0.2005,0.0718,0.4407,
12.859093,-0.7838,0.9553,0.2416,-4.0550,0.4230,0.5370,-0.2005,0.0718,0.4407,
12.877896,-0.7838,0.9553,0.2416,-4.0550,0.4230,0.5370,0.3886,-0.2173,0.1636,
12.880888,-0.7838,0.9553,0.2416,-5.6200,0.0840,-1.1140,0.3886,-0.2173,0.1636,
12.896124,-0.7838,0.9553,0.2416,-6.0470,1.5480,0.0820,0.3886,-0.2173,0.1636,
12.918507,-0.9707,1.3169,0.2413,-6.0470,1.5480,0.0820,0.3886,-0.2173,0.1636,
12.921914,-0.9707,1.3169,0.2413,-5.8240,3.9450,0.7880,0.3886,-0.2173,0.1636,
12.936790,-0.9707,1.3169,0.2413,-5.8240,3.9450,0.7880,0.8565,0.7107,-0.7703,
12.939518,-0.9707,1.3169,0.2413,-0.7140,6.1770,-0.3850,0.8565,0.7107,-0.7703,
12.959221,-0.9707,1.3169,0.2413,3.2370,3.4730,-0.6950,0.8565,0.7107,-0.7703,
12.977163,-0.1598,0.8832,-0.0941,3.2370,3.4730,-0.6950,0.8565,0.7107,-0.7703,
12.979920,-0.1598,0.8832,-0.0941,2.6490,-0.1880,-1.5560,0.8565,0.7107,-0.7703,
12.999951,-0.1598,0.8832,-0.0941,2.6490,-0.1880,-1.5560,2.9725,0.9268,-2.0743,
13.003443,-0.1598,0.8832,-0.0941,-1.0310,-0.7180,-2.3260,2.9725,0.9268,-2.0743,
13.017006,-0.1598,0.8832,-0.0941,-4.1820,1.9270,-3.1020,2.9725,0.9268,-2.0743,
13.041048,-0.8453,1.3182,-0.1880,-4.1820,1.9270,-3.1020,2.9725,0.9268,-2.0743,
13.044511,-0.8453,1.3182,-0.1880,-3.0850,4.6400,-0.9760,2.9725,0.9268,-2.0743,
13.059900,-0.8453,1.3182,-0.1880,0.9510,4.5890,1.4140,2.9725,0.9268,-2.0743,
13.080085,-0.8453,1.3182,-0.1880,0.9510,4.5890,1.4140,0.4865,0.1287,-2.7083,
13.083287,-0.8453,1.3182,-0.1880,1.7840,2.4600,3.7760,0.4865,0.1287,-2.7083,
13.098187,-0.6422,0.8418,0.1907,1.7840,2.4600,3.7760,0.4865,0.1287,-2.7083,
13.101557,-0.6422,0.8418,0.1907,0.0600,0.9020,3.2640,0.4865,0.1287,-2.7083,
13.120897,-0.6422,0.8418,0.1907,2.0470,0.7600,-2.8140,0.4865,0.1287,-2.7083,
13.140170,-0.6422,0.8418,0.1907,2.0470,0.7600,-2.8140,0.9965,2.8607,-2.9604,
13.143037,-0.6422,0.8418,0.1907,4.8350,-0.1430,-3.0690,0.9965,2.8607,-2.9604,
13.160993,-0.2688,0.4081,-0.1620,4.8350,-0.1430,-3.0690,0.9965,2.8607,-2.9604,
13.163880,-0.2688,0.4081,-0.1620,4.4640,-2.0280,1.5220,0.9965,2.8607,-2.9604,
13.179138,-0.2688,0.4081,-0.1620,3.9450,-3.2490,3.5780,0.9965,2.8607,-2.9604,
13.202057,-0.2688,0.4081,-0.1620,3.9450,-3.2490,3.5780,0.9045,2.9627,-2.0663,
13.206225,-0.2688,0.4081,-0.1620,4.7900,-3.3880,3.2960,0.9045,2.9627,-2.0663,
13.219621,-0.1747,0.1786,-0.2407,4.7900,-3.3880,3.2960,0.9045,2.9627,-2.0663,
13.222471,-0.1747,0.1786,-0.2407,5.4040,-3.0790,2.3750,0.9045,2.9627,-2.0663,
13.244296,-0.1747,0.1786,-0.2407,6.1560,-2.1670,1.2820,0.9045,2.9627,-2.0663,
13.260537,-0.1747,0.1786,-0.2407,6.1560,-2.1670,1.2820,0.0925,0.4577,-0.6993,
13.263847,-0.1747,0.1786,-0.2407,5.9240,-0.7540,1.2690,0.0925,0.4577,-0.6993,
13.283443,-0.2385,0.4287,-0.5266,5.9240,-0.7540,1.2690,0.0925,0.4577,-0.6993,
13.287186,-0.2385,0.4287,-0.5266,4.6490,-0.0720,0.2610,0.0925,0.4577,-0.6993,
13.300536,-0.2385,0.4287,-0.5266,2.7730,-1.6880,-1.3700,0.0925,0.4577,-0.6993,
13.323441,-0.2385,0.4287,-0.5266,1.0290,-3.1020,-2.3650,0.0925,0.4577,-0.6993,
13.344206,-0.7733,0.1178,-0.6992,1.0290,-3.1020,-2.3650,0.0925,0.4577,-0.6993,
13.347907,-0.7733,0.1178,-0.6992,1.0290,-3.1020,-2.3650,-1.3205,-2.4243,1.1337,
13.352332,-0.7733,0.1178,-0.6992,-0.2450,-3.5340,-2.3140,-1.3205,-2.4243,1.1337,
13.363443,-0.7733,0.1178,-0.6992,0.4490,-3.5390,-0.9670,-1.3205,-2.4243,1.1337,
13.381830,-0.7733,0.1178,-0.6992,2.2550,-4.2780,1.1710,-1.3205,-2.4243,1.1337,
13.404882,-0.4238,0.9672,-0.5266,2.2550,-4.2780,1.1710,-1.3205,-2.4243,1.1337,
13.409927,-0.4238,0.9672,-0.5266,2.2550,-4.2780,1.1710,-0.7925,-3.2273,2.5246,
13.414365,-0.4238,0.9672,-0.5266,2.9470,3.2910,-2.3550,-0.7925,-3.2273,2.5246,
13.422129,-0.4238,0.9672,-0.5266,-8.5570,25.4610,6.6350,-0.7925,-3.2273,2.5246,
13.444803,-0.4238,0.9672,-0.5266,-15.8760,13.7020,-0.5210,-0.7925,-3.2273,2.5246,
13.462697,-0.4834,-0.4804,-0.7332,-15.8760,13.7020,-0.5210,-0.7925,-3.2273,2.5246,
13.467486,-0.4834,-0.4804,-0.7332,-15.8760,13.7020,-0.5210,-2.1065,-0.2173,2.0857,
13.471181,-0.4834,-0.4804,-0.7332,2.3560,-11.2470,-5.4110,-2.1065,-0.2173,2.0857,
13.484844,-0.4834,-0.4804,-0.7332,9.7920,-12.3770,6.5590,-2.1065,-0.2173,2.0857,
13.503268,-0.4834,-0.4804,-0.7332,5.2090,-2.3270,5.5580,-2.1065,-0.2173,2.0857,
13.527241,-0.9778,1.6552,0.0635,5.2090,-2.3270,5.5580,-2.1065,-0.2173,2.0857,
13.530613,-0.9778,1.6552,0.0635,5.2090,-2.3270,5.5580,-0.1574,-2.4043,2.1506,
13.533200,-0.9778,1.6552,0.0635,-3.2960,8.7720,1.8160,-0.1574,-2.4043,2.1506,
13.543992,-0.9778,1.6552,0.0635,0.9360,9.4540,0.9630,-0.1574,-2.4043,2.1506,
13.567219,-0.9778,1.6552,0.0635,2.3070,0.8090,0.4560,-0.1574,-2.4043,2.1506,
13.584353,-0.7248,0.5613,-0.0253,2.3070,0.8090,0.4560,-0.1574,-2.4043,2.1506,
13.588054,-0.7248,0.5613,-0.0253,-1.5490,-2.5940,-0.0220,-0.1574,-2.4043,2.1506,
13.607022,-0.7248,0.5613,-0.0253,-1.5490,-2.5940,-0.0220,-0.6145,-1.4422,1.5547,
13.610483,-0.7248,0.5613,-0.0253,-4.6910,-3.3930,-0.6840,-0.6145,-1.4422,1.5547,
13.627162,-0.7248,0.5613,-0.0253,-4.7780,-4.6110,-3.1380,-0.6145,-1.4422,1.5547,
13.646312,-0.5019,0.4792,-0.2358,-4.7780,-4.6110,-3.1380,-0.6145,-1.4422,1.5547,
13.650339,-0.5019,0.4792,-0.2358,-0.1750,-3.8920,-2.6280,-0.6145,-1.4422,1.5547,
13.666192,-0.5019,0.4792,-0.2358,-0.1750,-3.8920,-2.6280,-1.4945,1.3347,1.2856,
13.670733,-0.5019,0.4792,-0.2358,1.9520,-3.6820,-0.2290,-1.4945,1.3347,1.2856,
13.687525,-0.5019,0.4792,-0.2358,2.3610,-4.7900,1.8380,-1.4945,1.3347,1.2856,
13.707322,-0.2069,0.3614,0.2323,2.3610,-4.7900,1.8380,-1.4945,1.3347,1.2856,
13.710735,-0.2069,0.3614,0.2323,2.1640,-5.2950,1.4930,-1.4945,1.3347,1.2856,
13.728921,-0.2069,0.3614,0.2323,2.1640,-5.2950,1.4930,-0.3935,-0.9922,0.5137,
13.733271,-0.2069,0.3614,0.2323,1.2210,-3.4930,-2.1930,-0.3935,-0.9922,0.5137,
13.745734,-0.2069,0.3614,0.2323,0.1610,-1.9860,-2.6290,-0.3935,-0.9922,0.5137,
13.768669,-0.5506,0.7207,0.0346,0.1610,-1.9860,-2.6290,-0.3935,-0.9922,0.5137,
13.772678,-0.5506,0.7207,0.0346,-1.5260,-1.8770,-0.8620,-0.3935,-0.9922,0.5137,
13.786180,-0.5506,0.7207,0.0346,-1.5260,-1.8770,-0.8620,-0.7025,0.0638,0.5776,
13.788479,-0.5506,0.7207,0.0346,-3.4320,-1.0420,0.4140,-0.7025,0.0638,0.5776,
13.808989,-0.5506,0.7207,0.0346,-3.8190,0.0370,0.7310,-0.7025,0.0638,0.5776,
13.827666,-0.7568,0.9634,0.2184,-3.8190,0.0370,0.7310,-0.7025,0.0638,0.5776,
13.830964,-0.7568,0.9634,0.2184,-3.8280,0.4370,0.6130,-0.7025,0.0638,0.5776,
13.848259,-0.7568,0.9634,0.2184,-4.2500,1.4840,-0.5010,-0.7025,0.0638,0.5776,
13.867301,-0.7568,0.9634,0.2184,-4.2500,1.4840,-0.5010,-0.7985,0.7388,0.4126,
13.871139,-0.7568,0.9634,0.2184,-3.9330,2.7880,-0.8200,-0.7985,0.7388,0.4126,
13.890017,-0.5723,1.2903,0.1851,-3.9330,2.7880,-0.8200,-0.7985,0.7388,0.4126,
13.894312,-0.5723,1.2903,0.1851,-2.1770,3.6200,0.0430,-0.7985,0.7388,0.4126,
13.910734,-0.5723,1.2903,0.1851,-1.3230,4.0470,1.5950,-0.7985,0.7388,0.4126,
13.930085,-0.5723,1.2903,0.1851,-1.3230,4.0470,1.5950,0.9274,0.9558,-0.3464,
13.933909,-0.5723,1.2903,0.1851,-2.7800,5.1490,2.8480,0.9274,0.9558,-0.3464,
13.949536,-0.5230,1.5274,0.2345,-2.7800,5.1490,2.8480,0.9274,0.9558,-0.3464,
13.953798,-0.5230,1.5274,0.2345,-1.5360,5.9380,0.9580,0.9274,0.9558,-0.3464,
13.970794,-0.5230,1.5274,0.2345,2.6970,4.0950,-1.1820,0.9274,0.9558,-0.3464,
13.989253,-0.5230,1.5274,0.2345,2.6970,4.0950,-1.1820,3.6695,0.1818,-1.9863,
13.991702,-0.5230,1.5274,0.2345,3.1450,-0.0310,-1.1490,3.6695,0.1818,-1.9863,
14.011268,-0.5694,0.7321,-0.0941,3.1450,-0.0310,-1.1490,3.6695,0.1818,-1.9863,
14.013606,-0.5694,0.7321,-0.0941,-1.1310,-1.5760,-0.6530,3.6695,0.1818,-1.9863,
14.028983,-0.5694,0.7321,-0.0941,-3.8710,1.7030,-1.5890,3.6695,0.1818,-1.9863,
14.051529,-0.5694,0.7321,-0.0941,-3.8710,1.7030,-1.5890,0.3905,-0.4232,-2.1043,
14.055974,-0.5694,0.7321,-0.0941,-2.1270,3.5810,-2.7110,0.3905,-0.4232,-2.1043,
14.069630,-0.4944,0.9773,-0.0926,-2.1270,3.5810,-2.7110,0.3905,-0.4232,-2.1043,
14.071694,-0.4944,0.9773,-0.0926,0.6680,1.5240,0.1350,0.3905,-0.4232,-2.1043,
14.092618,-0.4944,0.9773,-0.0926,-1.8700,-0.4650,3.4330,0.3905,-0.4232,-2.1043,
14.110867,-0.4944,0.9773,-0.0926,-0.6820,0.7930,2.9680,0.3905,-0.4232,-2.1043,
14.132397,-0.2768,0.7612,-0.2994,-0.6820,0.7930,2.9680,0.3905,-0.4232,-2.1043,
14.136485,-0.2768,0.7612,-0.2994,-0.6820,0.7930,2.9680,1.3014,3.7427,-2.7243,
14.139644,-0.2768,0.7612,-0.2994,3.8680,0.5420,-0.6530,1.3014,3.7427,-2.7243,
14.151117,-0.2768,0.7612,-0.2994,5.7240,-1.9750,-0.2230,1.3014,3.7427,-2.7243,
14.173979,-0.2768,0.7612,-0.2994,5.9230,-3.0000,1.8880,1.3014,3.7427,-2.7243,
14.194078,-0.1750,0.2915,-0.1826,5.9230,-3.0000,1.8880,1.3014,3.7427,-2.7243,
14.197312,-0.1750,0.2915,-0.1826,5.9230,-3.0000,1.8880,0.8546,2.5978,-2.2143,
14.201398,-0.1750,0.2915,-0.1826,5.2950,-2.8570,2.0440,0.8546,2.5978,-2.2143,
14.213331,-0.1750,0.2915,-0.1826,4.6910,-2.7290,2.1570,0.8546,2.5978,-2.2143,
14.231885,-0.1750,0.2915,-0.1826,4.5080,-2.0770,1.4050,0.8546,2.5978,-2.2143,
14.254007,-0.2859,0.4428,-0.4539,4.5080,-2.0770,1.4050,0.8546,2.5978,-2.2143,
14.257451,-0.2859,0.4428,-0.4539,4.5080,-2.0770,1.4050,0.2505,0.5748,-0.9254,
14.260585,-0.2859,0.4428,-0.4539,4.2650,-0.5320,0.3230,0.2505,0.5748,-0.9254,
14.272029,-0.2859,0.4428,-0.4539,3.3800,0.5960,-0.2270,0.2505,0.5748,-0.9254,
14.295869,-0.2859,0.4428,-0.4539,2.0510,0.0000,-0.5330,0.2505,0.5748,-0.9254,
14.313010,-0.6315,0.3478,-0.5755,2.0510,0.0000,-0.5330,0.2505,0.5748,-0.9254,
14.317763,-0.6315,0.3478,-0.5755,2.0510,0.0000,-0.5330,-1.1254,-1.6203,0.9706,
14.320750,-0.6315,0.3478,-0.5755,1.0370,-1.4330,-1.0990,-1.1254,-1.6203,0.9706,
14.334776,-0.6315,0.3478,-0.5755,0.7820,-2.4210,-1.4470,-1.1254,-1.6203,0.9706,
14.353970,-0.6315,0.3478,-0.5755,1.4000,-3.2040,-0.7960,-1.1254,-1.6203,0.9706,
14.375220,-0.4504,0.2099,-0.1965,1.4000,-3.2040,-0.7960,-1.1254,-1.6203,0.9706,
14.378957,-0.4504,0.2099,-0.1965,2.7220,-3.9130,1.1780,-1.1254,-1.6203,0.9706,
14.395043,-0.4504,0.2099,-0.1965,2.7220,-3.9130,1.1780,-0.8284,-3.1833,2.5857,
14.398781,-0.4504,0.2099,-0.1965,1.7340,3.9450,-2.9920,-0.8284,-3.1833,2.5857,
14.414877,-0.4504,0.2099,-0.1965,-4.8590,15.5060,5.9910,-0.8284,-3.1833,2.5857,
14.434716,-1.6428,2.1215,0.5067,-4.8590,15.5060,5.9910,-0.8284,-3.1833,2.5857,
14.437117,-1.6428,2.1215,0.5067,-9.1550,14.0050,6.4370,-0.8284,-3.1833,2.5857,
14.456011,-1.6428,2.1215,0.5067,-9.1550,14.0050,6.4370,-0.8185,-0.9732,1.2627,
14.459873,-1.6428,2.1215,0.5067,-1.8540,-5.3910,-8.1650,-0.8185,-0.9732,1.2627,
14.477306,-1.6428,2.1215,0.5067,5.2940,-10.7670,1.6290,-0.8185,-0.9732,1.2627,
14.495977,-0.2910,0.4655,0.5202,5.2940,-10.7670,1.6290,-0.8185,-0.9732,1.2627,
14.499545,-0.2910,0.4655,0.5202,3.4820,-2.8890,5.9780,-0.8185,-0.9732,1.2627,
14.516859,-0.2910,0.4655,0.5202,3.4820,-2.8890,5.9780,-0.3395,-1.0963,2.0036,
14.521237,-0.2910,0.4655,0.5202,-1.6180,7.0270,2.3710,-0.3395,-1.0963,2.0036,
14.536422,-0.2910,0.4655,0.5202,0.5250,7.2610,1.0000,-0.3395,-1.0963,2.0036,
14.556489,-0.4665,0.9069,-0.1105,0.5250,7.2610,1.0000,-0.3395,-1.0963,2.0036,
14.559891,-0.4665,0.9069,-0.1105,0.9580,0.7800,-0.7920,-0.3395,-1.0963,2.0036,
14.577366,-0.4665,0.9069,-0.1105,0.9580,0.7800,-0.7920,-0.7985,-1.0963,1.6987,
14.580819,-0.4665,0.9069,-0.1105,-0.5560,-3.4360,-0.5460,-0.7985,-1.0963,1.6987,
14.597217,-0.4665,0.9069,-0.1105,-2.6220,-3.2640,0.4340,-0.7985,-1.0963,1.6987,
14.617782,-0.9045,0.5445,-0.1125,-2.6220,-3.2640,0.4340,-0.7985,-1.0963,1.6987,
14.621541,-0.9045,0.5445,-0.1125,-4.1390,-3.2660,-1.4520,-0.7985,-1.0963,1.6987,
14.637974,-0.9045,0.5445,-0.1125,-1.6680,-3.9810,-2.4300,-0.7985,-1.0963,1.6987,
14.659618,-0.9045,0.5445,-0.1125,-1.6680,-3.9810,-2.4300,-1.4015,1.6087,1.1917,
14.663175,-0.9045,0.5445,-0.1125,1.6610,-4.1560,-0.7620,-1.4015,1.6087,1.1917,
14.678048,-0.1405,0.4450,0.2161,1.6610,-4.1560,-0.7620,-1.4015,1.6087,1.1917,
14.681235,-0.1405,0.4450,0.2161,2.7590,-4.5070,1.4300,-1.4015,1.6087,1.1917,
14.698520,-0.1405,0.4450,0.2161,1.5130,-3.8830,0.7190,-1.4015,1.6087,1.1917,
14.717698,-0.1405,0.4450,0.2161,1.5130,-3.8830,0.7190,-0.1695,-0.8412,0.4907,
14.721382,-0.1405,0.4450,0.2161,-0.2920,-2.2170,-1.6990,-0.1695,-0.8412,0.4907,
14.738772,-0.5711,0.7337,-0.0697,-0.2920,-2.2170,-1.6990,-0.1695,-0.8412,0.4907,
14.742239,-0.5711,0.7337,-0.0697,-1.7620,-1.8000,-1.6580,-0.1695,-0.8412,0.4907,
14.758548,-0.5711,0.7337,-0.0697,-3.5630,-2.0860,-0.2910,-0.1695,-0.8412,0.4907,
14.778774,-0.5711,0.7337,-0.0697,-3.5630,-2.0860,-0.2910,-0.4195,0.2628,0.3667,
14.782986,-0.5711,0.7337,-0.0697,-4.8760,-1.5350,1.3900,-0.4195,0.2628,0.3667,
14.800730,-0.9424,0.8475,0.2604,-4.8760,-1.5350,1.3900,-0.4195,0.2628,0.3667,
14.805206,-0.9424,0.8475,0.2604,-5.6250,-0.7460,1.3660,-0.4195,0.2628,0.3667,
14.819917,-0.9424,0.8475,0.2604,-4.9210,0.0170,-0.1380,-0.4195,0.2628,0.3667,
14.840295,-0.9424,0.8475,0.2604,-4.9210,0.0170,-0.1380,-1.0416,0.7107,0.0206,
14.844053,-0.9424,0.8475,0.2604,-2.9770,0.8790,-1.7800,-1.0416,0.7107,0.0206,
14.860441,-0.5892,1.1330,0.0113,-2.9770,0.8790,-1.7800,-1.0416,0.7107,0.0206,
14.864026,-0.5892,1.1330,0.0113,-2.1990,2.0770,-1.3290,-1.0416,0.7107,0.0206,
14.879811,-0.5892,1.1330,0.0113,-2.7100,4.6090,0.8980,-1.0416,0.7107,0.0206,
14.900777,-0.5892,1.1330,0.0113,-1.3720,6.4830,0.9680,-1.0416,0.7107,0.0206,
14.921199,-0.1014,1.5799,-0.0087,-1.3720,6.4830,0.9680,-1.0416,0.7107,0.0206,
14.926041,-0.1014,1.5799,-0.0087,-1.3720,6.4830,0.9680,1.0785,1.4237,-0.5554,
14.929448,-0.1014,1.5799,-0.0087,2.8510,6.5150,-1.2040,1.0785,1.4237,-0.5554,
14.941215,-0.1014,1.5799,-0.0087,5.5870,3.8100,-1.4580,1.0785,1.4237,-0.5554,
14.961065,-0.1014,1.5799,-0.0087,3.5210,0.9310,0.2230,1.0785,1.4237,-0.5554,
14.981779,-0.4973,1.0224,-0.0687,3.5210,0.9310,0.2230,1.0785,1.4237,-0.5554,
14.985409,-0.4973,1.0224,-0.0687,3.5210,0.9310,0.2230,3.4574,-1.4233,-2.3294,
14.988396,-0.4973,1.0224,-0.0687,-0.2030,1.3910,-0.2580,3.4574,-1.4233,-2.3294,
15.001779,-0.4973,1.0224,-0.0687,-4.0030,2.6500,-1.4770,3.4574,-1.4233,-2.3294,
15.022335,-0.4973,1.0224,-0.0687,-1.6220,3.6410,-1.5310,3.4574,-1.4233,-2.3294,
15.042556,-0.6124,1.0320,-0.1554,-1.6220,3.6410,-1.5310,3.4574,-1.4233,-2.3294,
15.046229,-0.6124,1.0320,-0.1554,-1.6220,3.6410,-1.5310,1.0425,0.7168,-2.8193,
15.049046,-0.6124,1.0320,-0.1554,-0.2380,2.2550,-0.3180,1.0425,0.7168,-2.8193,
15.063797,-0.6124,1.0320,-0.1554,-1.7390,0.7220,-1.1640,1.0425,0.7168,-2.8193,
15.083563,-0.6124,1.0320,-0.1554,1.0620,0.6910,-2.7440,1.0425,0.7168,-2.8193,
15.103554,-0.3225,0.6838,-0.3642,1.0620,0.6910,-2.7440,1.0425,0.7168,-2.8193,
15.107284,-0.3225,0.6838,-0.3642,1.0620,0.6910,-2.7440,0.6335,2.8688,-2.4353,
15.110129,-0.3225,0.6838,-0.3642,3.6380,-0.0240,-1.3570,0.6335,2.8688,-2.4353,
15.123324,-0.3225,0.6838,-0.3642,3.4880,-2.4660,2.3180,0.6335,2.8688,-2.4353,
15.144289,-0.3225,0.6838,-0.3642,4.0040,-3.7200,3.4800,0.6335,2.8688,-2.4353,
15.163467,-0.2959,0.2309,-0.1582,4.0040,-3.7200,3.4800,0.6335,2.8688,-2.4353,
15.168786,-0.2959,0.2309,-0.1582,4.2600,-3.3520,2.1440,0.6335,2.8688,-2.4353,
15.184419,-0.2959,0.2309,-0.1582,4.2600,-3.3520,2.1440,1.0985,2.4817,-1.6673,
15.188876,-0.2959,0.2309,-0.1582,4.6420,-2.3120,2.2600,1.0985,2.4817,-1.6673,
15.203646,-0.2959,0.2309,-0.1582,4.8820,-1.5690,0.8870,1.0985,2.4817,-1.6673,
15.225010,-0.3395,0.3949,-0.4937,4.8820,-1.5690,0.8870,1.0985,2.4817,-1.6673,
15.229222,-0.3395,0.3949,-0.4937,3.7450,-0.8980,0.0090,1.0985,2.4817,-1.6673,
15.244510,-0.3395,0.3949,-0.4937,3.7450,-0.8980,0.0090,0.0146,0.6108,-0.5203,
15.248209,-0.3395,0.3949,-0.4937,2.7160,-0.4120,0.4130,0.0146,0.6108,-0.5203,
15.266055,-0.3395,0.3949,-0.4937,2.2840,-0.6660,-0.0780,0.0146,0.6108,-0.5203,
15.285054,-0.5254,0.3245,-0.5746,2.2840,-0.6660,-0.0780,0.0146,0.6108,-0.5203,
15.289290,-0.5254,0.3245,-0.5746,1.9280,-1.5930,-0.7910,0.0146,0.6108,-0.5203,
15.306158,-0.5254,0.3245,-0.5746,1.9280,-1.5930,-0.7910,-1.4664,-2.2043,1.4707,
15.309471,-0.5254,0.3245,-0.5746,1.7960,-2.3860,-1.8140,-1.4664,-2.2043,1.4707,
15.327001,-0.5254,0.3245,-0.5746,2.5550,-3.4640,-0.8570,-1.4664,-2.2043,1.4707,
15.346155,-0.2915,0.1530,-0.1515,2.5550,-3.4640,-0.8570,-1.4664,-2.2043,1.4707,
15.349397,-0.2915,0.1530,-0.1515,4.2040,-4.4370,1.8630,-1.4664,-2.2043,1.4707,
15.366060,-0.2915,0.1530,-0.1515,4.2040,-4.4370,1.8630,-1.2785,-4.8333,1.5407,
15.370153,-0.2915,0.1530,-0.1515,3.9850,1.8770,-0.9160,-1.2785,-4.8333,1.5407,
15.386760,-0.2915,0.1530,-0.1515,-4.3780,12.1430,3.2560,-1.2785,-4.8333,1.5407,
15.407019,-1.8830,1.7908,0.9457,-4.3780,12.1430,3.2560,-1.2785,-4.8333,1.5407,
15.410460,-1.8830,1.7908,0.9457,-11.4130,10.8730,10.7750,-1.2785,-4.8333,1.5407,
15.426959,-1.8830,1.7908,0.9457,-2.4190,-5.5550,-6.4500,-1.2785,-4.8333,1.5407,
15.446114,-1.8830,1.7908,0.9457,-2.4190,-5.5550,-6.4500,-1.4105,-1.1092,1.5727,
15.450381,-1.8830,1.7908,0.9457,6.0330,-10.7850,-4.8320,-1.4105,-1.1092,1.5727,
15.467975,0.0771,0.1031,0.5172,6.0330,-10.7850,-4.8320,-1.4105,-1.1092,1.5727,
15.471883,0.0771,0.1031,0.5172,7.3200,-6.1990,6.0900,-1.4105,-1.1092,1.5727,
15.488484,0.0771,0.1031,0.5172,0.1560,3.6220,3.8350,-1.4105,-1.1092,1.5727,
15.508784,0.0771,0.1031,0.5172,0.1560,3.6220,3.8350,0.1836,-2.3922,1.4077,
15.512147,0.0771,0.1031,0.5172,-0.3260,6.5160,0.3400,0.1836,-2.3922,1.4077,
15.528531,-0.2074,1.1620,-0.0287,-0.3260,6.5160,0.3400,0.1836,-2.3922,1.4077,
15.533796,-0.2074,1.1620,-0.0287,4.1050,3.7460,0.1360,0.1836,-2.3922,1.4077,
15.549555,-0.2074,1.1620,-0.0287,-0.0750,-0.6850,-0.3020,0.1836,-2.3922,1.4077,
15.568529,-0.2074,1.1620,-0.0287,-0.0750,-0.6850,-0.3020,-0.4675,-0.2762,1.2117,
15.572594,-0.2074,1.1620,-0.0287,-4.5560,-1.8870,-0.6270,-0.4675,-0.2762,1.2117,
15.589598,-1.3908,0.7412,-0.0655,-4.5560,-1.8870,-0.6270,-0.4675,-0.2762,1.2117,
15.593627,-1.3908,0.7412,-0.0655,-8.0130,-0.7840,-0.7900,-0.4675,-0.2762,1.2117,
15.611818,-1.3908,0.7412,-0.0655,-5.4680,-0.0620,-2.5870,-0.4675,-0.2762,1.2117,
15.628250,-1.3908,0.7412,-0.0655,-5.4680,-0.0620,-2.5870,-1.2284,0.8957,0.8737,
15.635624,-1.3908,0.7412,-0.0655,0.1790,0.4660,-2.0710,-1.2284,0.8957,0.8737,
15.650268,-0.4692,0.8612,0.1971,0.1790,0.4660,-2.0710,-1.2284,0.8957,0.8737,
15.654713,-0.4692,0.8612,0.1971,0.5400,0.0800,1.5740,-1.2284,0.8957,0.8737,
15.670245,-0.4692,0.8612,0.1971,-0.2500,-0.6110,2.2570,-1.2284,0.8957,0.8737,
15.690201,-0.4692,0.8612,0.1971,-3.2220,0.0060,0.0780,-1.2284,0.8957,0.8737,
15.711678,-0.8497,1.1165,-0.0807,-3.2220,0.0060,0.0780,-1.2284,0.8957,0.8737,
15.716367,-0.8497,1.1165,-0.0807,-3.2220,0.0060,0.0780,-0.8315,-1.1183,1.1227,
15.719477,-0.8497,1.1165,-0.0807,-3.6350,2.3740,-1.7260,-0.8315,-1.1183,1.1227,
15.729894,-0.8497,1.1165,-0.0807,-1.4350,2.0930,-2.0060,-0.8315,-1.1183,1.1227,
15.751118,-0.8497,1.1165,-0.0807,-1.5650,-0.7940,1.0330,-0.8315,-1.1183,1.1227,
15.770703,-0.6239,0.6889,0.1059,-1.5650,-0.7940,1.0330,-0.8315,-1.1183,1.1227,
15.774411,-0.6239,0.6889,0.1059,-1.5650,-0.7940,1.0330,-0.6175,-0.9182,1.3237,
15.777260,-0.6239,0.6889,0.1059,-2.2240,-2.1100,-0.6280,-0.6175,-0.9182,1.3237,
15.791282,-0.6239,0.6889,0.1059,-3.4990,-2.2790,-3.2080,-0.6175,-0.9182,1.3237,
15.810781,-0.6239,0.6889,0.1059,-2.4570,-3.0280,-3.3960,-0.6175,-0.9182,1.3237,
15.831628,-0.3055,0.5655,0.0446,-2.4570,-3.0280,-3.3960,-0.6175,-0.9182,1.3237,
15.835112,-0.3055,0.5655,0.0446,-2.4570,-3.0280,-3.3960,0.7476,-0.3223,0.3316,
15.837302,-0.3055,0.5655,0.0446,0.3020,-3.5310,-1.3730,0.7476,-0.3223,0.3316,
15.851380,-0.3055,0.5655,0.0446,-0.0540,-1.8080,-0.5390,0.7476,-0.3223,0.3316,
15.872418,-0.3055,0.5655,0.0446,-0.1030,1.4450,-2.2300,0.7476,-0.3223,0.3316,
15.892688,-0.0662,1.3681,-0.1366,-0.1030,1.4450,-2.2300,0.7476,-0.3223,0.3316,
15.896166,-0.0662,1.3681,-0.1366,-0.1030,1.4450,-2.2300,1.3655,0.1818,-1.7024,
15.898616,-0.0662,1.3681,-0.1366,2.9640,4.4000,-2.8010,1.3655,0.1818,-1.7024,
15.912768,-0.0662,1.3681,-0.1366,1.6640,0.8300,-0.0410,1.3655,0.1818,-1.7024,
15.932863,-0.0662,1.3681,-0.1366,-1.1600,-1.0840,0.1060,1.3655,0.1818,-1.7024,
15.953394,-0.6943,1.2305,0.0737,-1.1600,-1.0840,0.1060,1.3655,0.1818,-1.7024,
15.957633,-0.6943,1.2305,0.0737,-2.1100,3.4480,0.3260,1.3655,0.1818,-1.7024,
15.973018,-0.6943,1.2305,0.0737,-2.1100,3.4480,0.3260,1.3365,-0.3502,-1.2133,
15.976294,-0.6943,1.2305,0.0737,0.9640,6.8650,0.4250,1.3365,-0.3502,-1.2133,
15.993743,-0.6943,1.2305,0.0737,6.2690,5.9510,0.3150,1.3365,-0.3502,-1.2133,
16.012910,0.4540,1.1838,-0.3334,6.2690,5.9510,0.3150,1.3365,-0.3502,-1.2133,
16.014805,0.4540,1.1838,-0.3334,9.5370,3.2230,-2.8430,1.3365,-0.3502,-1.2133,
16.035381,0.4540,1.1838,-0.3334,9.5370,3.2230,-2.8430,1.6635,0.3187,-0.6094,
16.040062,0.4540,1.1838,-0.3334,6.5630,0.2090,-1.3060,1.6635,0.3187,-0.6094,
16.052874,0.4540,1.1838,-0.3334,2.6410,-1.1910,1.5250,1.6635,0.3187,-0.6094,
16.076320,-0.3008,0.7158,-0.0941,2.6410,-1.1910,1.5250,1.6635,0.3187,-0.6094,
16.078331,-0.3008,0.7158,-0.0941,2.4260,-1.0790,0.4450,1.6635,0.3187,-0.6094,
16.093446,-0.3008,0.7158,-0.0941,2.4260,-1.0790,0.4450,2.2315,-0.7703,-0.5423,
16.095349,-0.3008,0.7158,-0.0941,3.7850,-0.9970,1.0790,2.2315,-0.7703,-0.5423,
16.116418,-0.3008,0.7158,-0.0941,3.0000,-2.0360,1.7060,2.2315,-0.7703,-0.5423,
16.134548,-0.3570,0.4902,-0.1005,3.0000,-2.0360,1.7060,2.2315,-0.7703,-0.5423,
16.138600,-0.3570,0.4902,-0.1005,2.1720,-2.8830,1.2970,2.2315,-0.7703,-0.5423,
16.156690,-0.3570,0.4902,-0.1005,2.1720,-2.8830,1.2970,1.9125,0.4107,-0.1114,
16.160128,-0.3570,0.4902,-0.1005,2.7030,-2.7760,2.4510,1.9125,0.4107,-0.1114,
16.176900,-0.3570,0.4902,-0.1005,3.2230,-2.3530,3.8650,1.9125,0.4107,-0.1114,
16.197101,-0.2416,0.5124,-0.0515,3.2230,-2.3530,3.8650,1.9125,0.4107,-0.1114,
16.201493,-0.2416,0.5124,-0.0515,3.3860,-2.2540,2.7190,1.9125,0.4107,-0.1114,
16.215116,-0.2416,0.5124,-0.0515,3.7140,-2.1890,-0.2610,1.9125,0.4107,-0.1114,
16.237813,-0.2416,0.5124,-0.0515,3.7140,-2.1890,-0.2610,1.2305,-1.1953,0.4327,
16.242061,-0.2416,0.5124,-0.0515,4.1150,-2.5950,-0.9780,1.2305,-1.1953,0.4327,
16.255326,-0.3238,0.3854,-0.4646,4.1150,-2.5950,-0.9780,1.2305,-1.1953,0.4327,
16.258101,-0.3238,0.3854,-0.4646,2.6670,-3.3530,-1.1690,1.2305,-1.1953,0.4327,
16.279616,-0.3238,0.3854,-0.4646,0.1660,-4.1240,-2.3570,1.2305,-1.1953,0.4327,
16.296707,-0.3238,0.3854,-0.4646,0.1660,-4.1240,-2.3570,0.0476,-2.9363,1.2617,
16.301449,-0.3238,0.3854,-0.4646,-1.4500,-4.3810,-3.4840,0.0476,-2.9363,1.2617,
16.319116,-0.7887,0.3473,-0.6293,-1.4500,-4.3810,-3.4840,0.0476,-2.9363,1.2617,
16.323225,-0.7887,0.3473,-0.6293,-1.9090,-4.0900,-3.6250,0.0476,-2.9363,1.2617,
16.337829,-0.7887,0.3473,-0.6293,-1.1100,-3.6270,-5.3990,0.0476,-2.9363,1.2617,
16.359796,-0.7887,0.3473,-0.6293,-1.1100,-3.6270,-5.3990,-1.0295,-3.0603,1.1527,
16.363113,-0.7887,0.3473,-0.6293,0.7560,-2.4240,-6.6400,-1.0295,-3.0603,1.1527,
16.377480,-0.5750,0.8089,-0.7288,0.7560,-2.4240,-6.6400,-1.0295,-3.0603,1.1527,
16.380503,-0.5750,0.8089,-0.7288,-0.0900,-0.0980,-5.9770,-1.0295,-3.0603,1.1527,
16.400622,-0.5750,0.8089,-0.7288,-3.6670,4.8110,2.1360,-1.0295,-3.0603,1.1527,
16.417155,-0.5750,0.8089,-0.7288,-3.6670,4.8110,2.1360,-0.1425,-0.9783,-0.8583,
16.420952,-0.5750,0.8089,-0.7288,-3.5280,12.6070,11.5450,-0.1425,-0.9783,-0.8583,
16.439157,-0.5042,1.9427,0.7189,-3.5280,12.6070,11.5450,-0.1425,-0.9783,-0.8583,
16.443145,-0.5042,1.9427,0.7189,0.9180,11.1560,7.1170,-0.1425,-0.9783,-0.8583,
16.457775,-0.5042,1.9427,0.7189,7.3340,-0.2920,-8.5160,-0.1425,-0.9783,-0.8583,
16.479843,-0.5042,1.9427,0.7189,9.3900,0.3390,-3.4510,-0.1425,-0.9783,-0.8583,
16.498851,0.2030,1.2891,1.1048,9.3900,0.3390,-3.4510,-0.1425,-0.9783,-0.8583,
16.502180,0.2030,1.2891,1.1048,9.3900,0.3390,-3.4510,0.9426,-3.4673,0.7527,
16.504679,0.2030,1.2891,1.1048,7.7280,4.6750,10.7080,0.9426,-3.4673,0.7527,
16.521856,0.2030,1.2891,1.1048,4.7900,3.0130,8.6610,0.9426,-3.4673,0.7527,
16.539887,0.2030,1.2891,1.1048,0.3460,1.0770,3.4230,0.9426,-3.4673,0.7527,
16.561527,-0.6950,0.8581,0.1519,0.3460,1.0770,3.4230,0.9426,-3.4673,0.7527,
16.565047,-0.6950,0.8581,0.1519,0.3460,1.0770,3.4230,-0.6935,-2.5013,1.2006,
16.568317,-0.6950,0.8581,0.1519,-1.5450,0.1680,0.6860,-0.6935,-2.5013,1.2006,
16.579419,-0.6950,0.8581,0.1519,-2.1970,-0.9160,-0.2780,-0.6935,-2.5013,1.2006,
16.601590,-0.6950,0.8581,0.1519,-2.5810,-2.3740,5.4320,-0.6935,-2.5013,1.2006,
16.621197,-0.8341,0.5897,0.3631,-2.5810,-2.3740,5.4320,-0.6935,-2.5013,1.2006,
16.625187,-0.8341,0.5897,0.3631,-2.5810,-2.3740,5.4320,1.1505,-2.3313,0.4007,
16.628314,-0.8341,0.5897,0.3631,-3.6700,-2.6720,1.4250,1.1505,-2.3313,0.4007,
16.642485,-0.8341,0.5897,0.3631,-0.8590,-1.4310,-2.8590,1.1505,-2.3313,0.4007,
16.660245,-0.8341,0.5897,0.3631,-0.3350,-1.8660,1.7130,1.1505,-2.3313,0.4007,
16.682773,-0.5501,0.6449,0.3594,-0.3350,-1.8660,1.7130,1.1505,-2.3313,0.4007,
16.686432,-0.5501,0.6449,0.3594,-0.3350,-1.8660,1.7130,0.7125,-2.7833,-0.0864,
16.689481,-0.5501,0.6449,0.3594,-1.2790,-2.2640,1.1330,0.7125,-2.7833,-0.0864,
16.700748,-0.5501,0.6449,0.3594,-1.9700,-2.1550,-0.3420,0.7125,-2.7833,-0.0864,
16.724000,-0.5501,0.6449,0.3594,-2.7470,-1.6950,-1.2140,0.7125,-2.7833,-0.0864,
16.744401,-0.7664,0.7581,0.0029,-2.7470,-1.6950,-1.2140,0.7125,-2.7833,-0.0864,
16.748125,-0.7664,0.7581,0.0029,-3.7080,-1.2470,-2.5390,0.7125,-2.7833,-0.0864,
16.763964,-0.7664,0.7581,0.0029,-3.7080,-1.2470,-2.5390,0.7425,-1.5273,-0.1844,
16.767870,-0.7664,0.7581,0.0029,-3.2550,-1.4350,-2.5570,0.7425,-1.5273,-0.1844,
16.781808,-0.7664,0.7581,0.0029,-1.9530,-1.4150,-2.1920,0.7425,-1.5273,-0.1844,
16.804506,-0.5124,0.7982,0.0563,-1.9530,-1.4150,-2.1920,0.7425,-1.5273,-0.1844,
16.808757,-0.5124,0.7982,0.0563,-1.3310,-0.9190,-1.9600,0.7425,-1.5273,-0.1844,
16.822759,-0.5124,0.7982,0.0563,-1.3310,-0.9190,-1.9600,0.4715,-0.7573,0.0166,
16.825892,-0.5124,0.7982,0.0563,-2.1320,-1.2950,-1.4060,0.4715,-0.7573,0.0166,
16.845869,-0.5124,0.7982,0.0563,-2.1620,-2.2860,-0.9710,0.4715,-0.7573,0.0166,
16.862943,-0.6142,0.6735,0.2529,-2.1620,-2.2860,-0.9710,0.4715,-0.7573,0.0166,
16.867178,-0.6142,0.6735,0.2529,-2.3840,-2.2050,0.0900,0.4715,-0.7573,0.0166,
16.884886,-0.6142,0.6735,0.2529,-2.3840,-2.2050,0.0900,0.9145,-0.1812,-0.5963,
16.888728,-0.6142,0.6735,0.2529,-2.5010,-1.5040,1.2720,0.9145,-0.1812,-0.5963,
16.903361,-0.6142,0.6735,0.2529,-1.8780,-0.7720,1.5720,0.9145,-0.1812,-0.5963,
16.925865,-0.4012,1.0156,0.5715,-1.8780,-0.7720,1.5720,0.9145,-0.1812,-0.5963,
16.929261,-0.4012,1.0156,0.5715,0.0860,1.1770,3.7930,0.9145,-0.1812,-0.5963,
16.945149,-0.4012,1.0156,0.5715,0.0860,1.1770,3.7930,5.1125,-2.8053,-2.8684,
16.948894,-0.4012,1.0156,0.5715,1.3170,7.5720,4.1330,5.1125,-2.8053,-2.8684,
16.967230,-0.4012,1.0156,0.5715,-1.0310,11.8440,-3.0560,5.1125,-2.8053,-2.8684,
16.984143,-0.4071,1.8146,-1.0238,-1.0310,11.8440,-3.0560,5.1125,-2.8053,-2.8684,
16.987615,-0.4071,1.8146,-1.0238,1.2040,9.4500,-10.1950,5.1125,-2.8053,-2.8684,
17.007987,-0.4071,1.8146,-1.0238,5.6380,8.0920,-6.9500,5.1125,-2.8053,-2.8684,
17.027969,-0.4071,1.8146,-1.0238,5.6380,8.0920,-6.9500,3.0045,0.2127,-1.6563,
17.033203,-0.4071,1.8146,-1.0238,4.6220,7.6450,0.0350,3.0045,0.2127,-1.6563,
17.046612,-0.5477,1.3253,0.3923,4.6220,7.6450,0.0350,3.0045,0.2127,-1.6563,
17.050520,-0.5477,1.3253,0.3923,0.6500,5.3420,5.1210,3.0045,0.2127,-1.6563,
17.065284,-0.5477,1.3253,0.3923,-2.2850,0.8630,7.4800,3.0045,0.2127,-1.6563,
17.088916,-0.5477,1.3253,0.3923,-2.2850,0.8630,7.4800,3.7625,1.7747,-3.1163,
17.093188,-0.5477,1.3253,0.3923,-6.2930,-2.1810,3.0030,3.7625,1.7747,-3.1163,
17.105731,-0.8849,0.4997,-0.5271,-6.2930,-2.1810,3.0030,3.7625,1.7747,-3.1163,
17.107915,-0.8849,0.4997,-0.5271,-1.6660,-1.1790,-1.9370,3.7625,1.7747,-3.1163,
17.129854,-0.8849,0.4997,-0.5271,4.6820,-1.0070,1.2310,3.7625,1.7747,-3.1163,
17.147092,-0.8849,0.4997,-0.5271,4.6820,-1.0070,1.2310,2.8985,2.4227,-1.5234,
17.151373,-0.8849,0.4997,-0.5271,6.9520,-2.3590,4.5630,2.8985,2.4227,-1.5234,
17.168366,-0.0122,0.2426,-0.2882,6.9520,-2.3590,4.5630,2.8985,2.4227,-1.5234,
17.172325,-0.0122,0.2426,-0.2882,6.6840,-2.2250,2.5550,2.8985,2.4227,-1.5234,
17.186517,-0.0122,0.2426,-0.2882,4.0670,-2.0910,1.3910,2.8985,2.4227,-1.5234,
17.209352,-0.0122,0.2426,-0.2882,4.0670,-2.0910,1.3910,1.4476,0.7987,-0.6094,
17.212884,-0.0122,0.2426,-0.2882,2.1680,-3.6070,1.1540,1.4476,0.7987,-0.6094,
17.227619,-0.4485,-0.0092,-0.5824,2.1680,-3.6070,1.1540,1.4476,0.7987,-0.6094,
17.231085,-0.4485,-0.0092,-0.5824,2.2940,-3.6170,0.5410,1.4476,0.7987,-0.6094,
17.250630,-0.4485,-0.0092,-0.5824,3.1600,-2.4100,0.4790,1.4476,0.7987,-0.6094,
17.267611,-0.4485,-0.0092,-0.5824,3.3760,-3.2450,-0.4050,1.4476,0.7987,-0.6094,
17.290238,-0.4137,-0.0612,-0.7552,3.3760,-3.2450,-0.4050,1.4476,0.7987,-0.6094,
17.294358,-0.4137,-0.0612,-0.7552,3.3760,-3.2450,-0.4050,-0.0645,-0.8453,0.4496,
17.297386,-0.4137,-0.0612,-0.7552,2.6810,-3.9930,-1.1180,-0.0645,-0.8453,0.4496,
17.307680,-0.4137,-0.0612,-0.7552,2.4000,-4.0040,-1.1360,-0.0645,-0.8453,0.4496,
17.329826,-0.4137,-0.0612,-0.7552,2.6940,-3.7550,-1.8750,-0.0645,-0.8453,0.4496,
17.348302,-0.5706,0.1458,-0.7682,2.6940,-3.7550,-1.8750,-0.0645,-0.8453,0.4496,
17.351288,-0.5706,0.1458,-0.7682,2.6940,-3.7550,-1.8750,-0.5134,-2.3493,1.5297,
17.352959,-0.5706,0.1458,-0.7682,1.5690,-2.5980,-2.1450,-0.5134,-2.3493,1.5297,
17.370858,-0.5706,0.1458,-0.7682,1.7340,-1.8800,-2.3560,-0.5134,-2.3493,1.5297,
17.388807,-0.5706,0.1458,-0.7682,2.8320,6.8100,-7.4320,-0.5134,-2.3493,1.5297,
17.412346,-2.7669,2.5108,-0.6716,2.8320,6.8100,-7.4320,-0.5134,-2.3493,1.5297,
17.415898,-2.7669,2.5108,-0.6716,2.8320,6.8100,-7.4320,-0.7954,-3.0683,0.0566,
17.418274,-2.7669,2.5108,-0.6716,-19.5220,20.0070,-2.3810,-0.7954,-3.0683,0.0566,
17.429391,-2.7669,2.5108,-0.6716,-12.2870,4.3740,2.3510,-0.7954,-3.0683,0.0566,
17.452946,-2.7669,2.5108,-0.6716,12.7780,-9.9200,-2.6440,-0.7954,-3.0683,0.0566,
17.470093,0.5230,-0.0642,0.2367,12.7780,-9.9200,-2.6440,-0.7954,-3.0683,0.0566,
17.473737,0.5230,-0.0642,0.2367,12.7780,-9.9200,-2.6440,-0.7325,-2.6463,1.9557,
17.476436,0.5230,-0.0642,0.2367,12.5210,-6.0610,5.7590,-0.7325,-2.6463,1.9557,
17.493691,0.5230,-0.0642,0.2367,5.1730,9.5490,7.2320,-0.7325,-2.6463,1.9557,
17.510909,0.5230,-0.0642,0.2367,-0.5430,16.7950,2.4720,-0.7325,-2.6463,1.9557,
17.533470,-0.9478,1.1021,0.0910,-0.5430,16.7950,2.4720,-0.7325,-2.6463,1.9557,
17.537376,-0.9478,1.1021,0.0910,-1.9330,4.5750,2.7560,-0.7325,-2.6463,1.9557,
17.550916,-0.9478,1.1021,0.0910,-1.9330,4.5750,2.7560,-0.4855,-1.8862,1.2666,
17.554650,-0.9478,1.1021,0.0910,-3.1440,-2.1510,1.6140,-0.4855,-1.8862,1.2666,
17.574057,-0.9478,1.1021,0.0910,-3.3250,0.9080,1.0370,-0.4855,-1.8862,1.2666,
17.594636,-0.6677,0.9951,0.0747,-3.3250,0.9080,1.0370,-0.4855,-1.8862,1.2666,
17.598987,-0.6677,0.9951,0.0747,0.3320,2.8030,1.6560,-0.4855,-1.8862,1.2666,
17.613565,-0.6677,0.9951,0.0747,0.3320,2.8030,1.6560,-0.3604,-1.5803,1.9976,
17.617121,-0.6677,0.9951,0.0747,2.4600,0.9780,1.1610,-0.3604,-1.5803,1.9976,
17.631880,-0.6677,0.9951,0.0747,1.9570,-1.2670,0.9690,-0.3604,-1.5803,1.9976,
17.655334,-0.5601,0.5142,-0.0391,1.9570,-1.2670,0.9690,-0.3604,-1.5803,1.9976,
17.659567,-0.5601,0.5142,-0.0391,0.5480,-2.7090,-0.1720,-0.3604,-1.5803,1.9976,
17.672184,-0.5601,0.5142,-0.0391,0.5480,-2.7090,-0.1720,-0.5115,-0.8683,1.7207,
17.674878,-0.5601,0.5142,-0.0391,-0.5310,-3.4870,-0.6510,-0.5115,-0.8683,1.7207,
17.694961,-0.5601,0.5142,-0.0391,-0.1910,-3.7490,0.2730,-0.5115,-0.8683,1.7207,
17.712801,-0.5564,0.3874,-0.0422,-0.1910,-3.7490,0.2730,-0.5115,-0.8683,1.7207,
17.716849,-0.5564,0.3874,-0.0422,-0.1880,-4.4870,-0.6310,-0.5115,-0.8683,1.7207,
17.735282,-0.5564,0.3874,-0.0422,-0.1880,-4.4870,-0.6310,-0.4654,-0.4033,0.8617,
17.739490,-0.5564,0.3874,-0.0422,0.7320,-4.5970,-0.4540,-0.4654,-0.4033,0.8617,
17.753884,-0.5564,0.3874,-0.0422,1.8170,-4.2810,0.3530,-0.4654,-0.4033,0.8617,
17.775334,-0.3644,0.5433,-0.0026,1.8170,-4.2810,0.3530,-0.4654,-0.4033,0.8617,
17.779039,-0.3644,0.5433,-0.0026,1.2760,-3.1960,-0.5600,-0.4654,-0.4033,0.8617,
17.794406,-0.3644,0.5433,-0.0026,0.3370,-1.4430,-2.0060,-0.4654,-0.4033,0.8617,
17.815107,-0.3644,0.5433,-0.0026,0.3370,-1.4430,-2.0060,-0.2464,-0.1613,0.2417,
17.819021,-0.3644,0.5433,-0.0026,-1.2470,-0.2100,-0.9950,-0.2464,-0.1613,0.2417,
17.834927,-0.7283,0.9064,0.0490,-1.2470,-0.2100,-0.9950,-0.2464,-0.1613,0.2417,
17.839083,-0.7283,0.9064,0.0490,-2.4470,0.2920,-0.2630,-0.2464,-0.1613,0.2417,
17.855989,-0.7283,0.9064,0.0490,-2.2640,0.6120,0.3250,-0.2464,-0.1613,0.2417,
17.876272,-0.7283,0.9064,0.0490,-2.2640,0.6120,0.3250,-0.2424,-0.0503,0.4686,
17.879523,-0.7283,0.9064,0.0490,-1.5460,1.0770,0.7820,-0.2424,-0.0503,0.4686,
17.896444,-0.5921,1.0927,0.1022,-1.5460,1.0770,0.7820,-0.2424,-0.0503,0.4686,
17.902071,-0.5921,1.0927,0.1022,-1.3620,2.0100,0.0710,-0.2424,-0.0503,0.4686,
17.916152,-0.5921,1.0927,0.1022,-1.4770,3.2990,0.4190,-0.2424,-0.0503,0.4686,
17.937000,-0.5921,1.0927,0.1022,-1.4770,3.2990,0.4190,0.3336,0.2277,-0.1763,
17.941455,-0.5921,1.0927,0.1022,-1.6850,5.2300,2.6440,0.3336,0.2277,-0.1763,
17.956310,-0.7421,1.6514,0.3677,-1.6850,5.2300,2.6440,0.3336,0.2277,-0.1763,
17.958908,-0.7421,1.6514,0.3677,-2.8600,7.4580,2.7380,0.3336,0.2277,-0.1763,
17.978329,-0.7421,1.6514,0.3677,0.2200,6.5890,1.0340,0.3336,0.2277,-0.1763,
17.997603,-0.7421,1.6514,0.3677,0.2200,6.5890,1.0340,3.0506,0.1367,-1.3513,
18.002198,-0.7421,1.6514,0.3677,4.3630,2.6110,1.5990,3.0506,0.1367,-1.3513,
18.017874,-0.1366,0.9408,0.0595,4.3630,2.6110,1.5990,3.0506,0.1367,-1.3513,
18.021592,-0.1366,0.9408,0.0595,3.5610,0.7110,0.7160,3.0506,0.1367,-1.3513,
18.038396,-0.1366,0.9408,0.0595,-0.9050,2.1530,-0.3560,3.0506,0.1367,-1.3513,
18.058733,-0.1366,0.9408,0.0595,-4.0630,4.2780,-1.3610,3.0506,0.1367,-1.3513,
18.078629,-0.7136,1.3670,-0.4357,-4.0630,4.2780,-1.3610,3.0506,0.1367,-1.3513,
18.081858,-0.7136,1.3670,-0.4357,-4.0630,4.2780,-1.3610,2.2315,-1.1403,-2.1693,
18.084553,-0.7136,1.3670,-0.4357,-0.9780,5.7750,-2.8140,2.2315,-1.1403,-2.1693,
18.098469,-0.7136,1.3670,-0.4357,1.0570,3.2150,-2.8800,2.2315,-1.1403,-2.1693,
18.117493,-0.7136,1.3670,-0.4357,1.5890,-0.5760,-0.5460,2.2315,-1.1403,-2.1693,
18.139579,-0.2579,0.4606,0.0321,1.5890,-0.5760,-0.5460,2.2315,-1.1403,-2.1693,
18.143451,-0.2579,0.4606,0.0321,1.5890,-0.5760,-0.5460,0.9515,1.7368,-2.1944,
18.146612,-0.2579,0.4606,0.0321,4.3330,-2.0400,2.8280,0.9515,1.7368,-2.1944,
18.158249,-0.2579,0.4606,0.0321,4.6990,-3.0580,2.8190,0.9515,1.7368,-2.1944,
18.179285,-0.2579,0.4606,0.0321,3.7780,-3.7750,2.8080,0.9515,1.7368,-2.1944,
18.199474,-0.3891,0.2793,-0.2579,3.7780,-3.7750,2.8080,0.9515,1.7368,-2.1944,
18.203485,-0.3891,0.2793,-0.2579,3.7780,-3.7750,2.8080,1.2525,1.9966,-2.1813,
18.206774,-0.3891,0.2793,-0.2579,3.4740,-2.6620,1.2530,1.2525,1.9966,-2.1813,
18.219617,-0.3891,0.2793,-0.2579,3.8370,-1.1750,1.0650,1.2525,1.9966,-2.1813,
18.240659,-0.3891,0.2793,-0.2579,4.1490,-1.1370,3.1580,1.2525,1.9966,-2.1813,
18.261806,-0.4433,0.2527,-0.2339,4.1490,-1.1370,3.1580,1.2525,1.9966,-2.1813,
18.266632,-0.4433,0.2527,-0.2339,4.1490,-1.1370,3.1580,0.6245,2.6828,-1.2964,
18.269930,-0.4433,0.2527,-0.2339,2.8660,-1.8230,2.8070,0.6245,2.6828,-1.2964,
18.280125,-0.4433,0.2527,-0.2339,2.8530,-1.6370,2.3070,0.6245,2.6828,-1.2964,
18.300999,-0.4433,0.2527,-0.2339,4.0710,-0.5870,3.1300,0.6245,2.6828,-1.2964,
18.321140,-0.1657,0.3741,-0.4423,4.0710,-0.5870,3.1300,0.6245,2.6828,-1.2964,
18.325159,-0.1657,0.3741,-0.4423,5.1780,-0.2050,1.5820,0.6245,2.6828,-1.2964,
18.341852,-0.1657,0.3741,-0.4423,5.1780,-0.2050,1.5820,-0.1914,-1.1723,0.3557,
18.345122,-0.1657,0.3741,-0.4423,4.3830,-0.4650,-0.7800,-0.1914,-1.1723,0.3557,
18.361312,-0.1657,0.3741,-0.4423,2.6670,-0.5980,-1.9840,-0.1914,-1.1723,0.3557,
18.382680,-0.6359,0.3600,-0.7474,2.6670,-0.5980,-1.9840,-0.1914,-1.1723,0.3557,
18.386756,-0.6359,0.3600,-0.7474,1.0330,-0.8830,-2.4110,-0.1914,-1.1723,0.3557,
18.401828,-0.6359,0.3600,-0.7474,1.0330,-0.8830,-2.4110,-1.7155,-3.7243,2.4626,
18.406055,-0.6359,0.3600,-0.7474,0.0850,-1.4490,-0.7520,-1.7155,-3.7243,2.4626,
18.422885,-0.6359,0.3600,-0.7474,1.4960,0.4430,0.7890,-1.7155,-3.7243,2.4626,
18.443711,-0.8989,1.7955,-0.1415,1.4960,0.4430,0.7890,-1.7155,-3.7243,2.4626,
18.447007,-0.8989,1.7955,-0.1415,-1.4050,11.8020,1.4670,-1.7155,-3.7243,2.4626,
18.462068,-0.8989,1.7955,-0.1415,-1.4050,11.8020,1.4670,0.2646,-1.5073,-0.1224,
18.465317,-0.8989,1.7955,-0.1415,-10.7410,21.3980,9.4210,0.2646,-1.5073,-0.1224,
18.483984,-0.8989,1.7955,-0.1415,-7.4920,3.8170,-5.1480,0.2646,-1.5073,-0.1224,
18.503550,-0.2698,-0.2521,-0.4294,-7.4920,3.8170,-5.1480,0.2646,-1.5073,-0.1224,
18.507416,-0.2698,-0.2521,-0.4294,4.6790,-8.6770,-2.2040,0.2646,-1.5073,-0.1224,
18.523636,-0.2698,-0.2521,-0.4294,4.6790,-8.6770,-2.2040,-0.7755,-0.4753,2.1597,
18.526695,-0.2698,-0.2521,-0.4294,7.3980,-7.0540,4.8220,-0.7755,-0.4753,2.1597,
18.544178,-0.2698,-0.2521,-0.4294,3.1040,2.0830,4.1270,-0.7755,-0.4753,2.1597,
18.563514,-0.5867,1.6027,0.2839,3.1040,2.0830,4.1270,-0.7755,-0.4753,2.1597,
18.567586,-0.5867,1.6027,0.2839,0.7300,8.4770,4.1810,-0.7755,-0.4753,2.1597,
18.584370,-0.5867,1.6027,0.2839,2.0470,5.6760,3.9370,-0.7755,-0.4753,2.1597,
18.605428,-0.5867,1.6027,0.2839,2.0470,5.6760,3.9370,-0.2964,-1.4532,1.7467,
18.609749,-0.5867,1.6027,0.2839,0.3660,-0.4280,0.8830,-0.2964,-1.4532,1.7467,
18.625928,-0.7417,0.5834,-0.1608,0.3660,-0.4280,0.8830,-0.2964,-1.4532,1.7467,
18.628653,-0.7417,0.5834,-0.1608,-1.5140,-2.2130,-0.9040,-0.2964,-1.4532,1.7467,
18.644235,-0.7417,0.5834,-0.1608,-3.0410,-1.6760,0.4380,-0.2964,-1.4532,1.7467,
18.665306,-0.7417,0.5834,-0.1608,-3.0410,-1.6760,0.4380,-0.7435,0.1708,1.2947,
18.669627,-0.7417,0.5834,-0.1608,-0.9040,-2.6440,-0.3550,-0.7435,0.1708,1.2947,
18.685756,-0.2987,0.4916,-0.1405,-0.9040,-2.6440,-0.3550,-0.7435,0.1708,1.2947,
18.689799,-0.2987,0.4916,-0.1405,2.1970,-3.5590,-1.2000,-0.7435,0.1708,1.2947,
18.705876,-0.2987,0.4916,-0.1405,2.3280,-4.2810,-0.6270,-0.7435,0.1708,1.2947,
18.725875,-0.2987,0.4916,-0.1405,2.3280,-4.2810,-0.6270,-0.7505,0.0657,0.9947,
18.729198,-0.2987,0.4916,-0.1405,1.7770,-4.3720,0.4910,-0.7505,0.0657,0.9947,
18.746058,-0.3879,0.4601,0.1015,1.7770,-4.3720,0.4910,-0.7505,0.0657,0.9947,
18.750403,-0.3879,0.4601,0.1015,0.7950,-4.1530,0.8470,-0.7505,0.0657,0.9947,
18.766572,-0.3879,0.4601,0.1015,-0.4300,-3.2460,0.4880,-0.7505,0.0657,0.9947,
18.787061,-0.3879,0.4601,0.1015,-0.4300,-3.2460,0.4880,-0.4015,0.2298,0.3057,
18.790526,-0.3879,0.4601,0.1015,-1.1720,-2.0330,0.2850,-0.4015,0.2298,0.3057,
18.806964,-0.6037,0.7779,0.0600,-1.1720,-2.0330,0.2850,-0.4015,0.2298,0.3057,
18.810426,-0.6037,0.7779,0.0600,-1.5230,-1.1440,0.1220,-0.4015,0.2298,0.3057,
18.827356,-0.6037,0.7779,0.0600,-1.7780,0.1760,0.6400,-0.4015,0.2298,0.3057,
18.848198,-0.6037,0.7779,0.0600,-1.7820,1.1040,0.3720,-0.4015,0.2298,0.3057,
18.867633,-0.6921,0.9844,0.0683,-1.7820,1.1040,0.3720,-0.4015,0.2298,0.3057,
18.871697,-0.6921,0.9844,0.0683,-1.7820,1.1040,0.3720,-0.3114,0.3267,0.5376,
18.875373,-0.6921,0.9844,0.0683,-2.6360,0.7770,0.0550,-0.3114,0.3267,0.5376,
18.887511,-0.6921,0.9844,0.0683,-3.3250,0.4840,0.1460,-0.3114,0.3267,0.5376,
18.909001,-0.6921,0.9844,0.0683,-2.5480,0.9660,0.1270,-0.3114,0.3267,0.5376,
18.928747,-0.5633,1.1808,0.1746,-2.5480,0.9660,0.1270,-0.3114,0.3267,0.5376,
18.933670,-0.5633,1.1808,0.1746,-2.5480,0.9660,0.1270,-0.3945,0.4807,-0.0323,
18.936993,-0.5633,1.1808,0.1746,-1.5120,2.6390,0.9940,-0.3945,0.4807,-0.0323,
18.948503,-0.5633,1.1808,0.1746,-1.4350,5.1800,2.0580,-0.3945,0.4807,-0.0323,
18.968529,-0.5633,1.1808,0.1746,0.6580,7.3540,1.0380,-0.3945,0.4807,-0.0323,
18.988913,-0.0967,1.4937,-0.0048,0.6580,7.3540,1.0380,-0.3945,0.4807,-0.0323,
18.992372,-0.0967,1.4937,-0.0048,3.3200,5.8020,-0.3780,-0.3945,0.4807,-0.0323,
18.995151,-0.0967,1.4937,-0.0048,3.3200,5.8020,-0.3780,2.2715,0.1957,-0.9453,
19.008752,-0.0967,1.4937,-0.0048,2.5100,1.4340,-0.4780,2.2715,0.1957,-0.9453,
19.029766,-0.0967,1.4937,-0.0048,-0.5720,1.2690,-0.4990,2.2715,0.1957,-0.9453,
19.049187,-0.8216,1.2321,-0.1433,-0.5720,1.2690,-0.4990,2.2715,0.1957,-0.9453,
19.053283,-0.8216,1.2321,-0.1433,-0.5720,1.2690,-0.4990,2.6005,-1.1993,-2.0203,
19.056549,-0.8216,1.2321,-0.1433,-2.8760,3.8230,-0.1970,2.6005,-1.1993,-2.0203,
