
time,gFx,gFy,gFz,ax,ay,az,wx,wy,wz,
0.027045,0.0000,0.0000,0.0000,0.0000,0.0000,0.0000,-0.1129,-0.2525,-0.2642,
0.044643,0.0901,0.3164,1.0139,0.0000,0.0000,0.0000,-0.1129,-0.2525,-0.2642,
0.046088,0.0901,0.3164,1.0139,0.0000,0.0000,0.0000,-0.1129,-0.2525,-0.2642,
0.064818,0.0901,0.3164,1.0139,0.0000,0.0000,0.0000,-0.1129,-0.2525,-0.2642,
0.084961,0.0691,0.3853,0.7481,0.0000,0.0000,0.0000,-0.1129,-0.2525,-0.2642,
0.086772,0.0691,0.3853,0.7481,-0.1255,-0.6994,-1.3580,-0.1129,-0.2525,-0.2642,
0.088803,0.0691,0.3853,0.7481,-0.1255,-0.6994,-1.3580,-0.1129,-0.2525,-0.2642,
0.104811,0.0691,0.3853,0.7481,-0.1255,-0.6994,-1.3580,1.3486,1.0717,-0.5183,
0.124694,-0.0300,0.4459,0.8771,-0.1255,-0.6994,-1.3580,1.3486,1.0717,-0.5183,
0.126855,-0.0300,0.4459,0.8771,-0.5826,-0.0972,-0.1305,1.3486,1.0717,-0.5183,
0.128677,-0.0300,0.4459,0.8771,-0.5826,-0.0972,-0.1305,1.5036,1.2687,-0.5097,
0.144604,-0.0300,0.4459,0.8771,-0.5826,-0.0972,-0.1305,1.7907,1.3912,-0.4895,
0.164806,-0.0965,0.4806,0.7676,-0.5826,-0.0972,-0.1305,1.7907,1.3912,-0.4895,
0.167646,-0.0965,0.4806,0.7676,-0.6601,-0.0779,-1.0314,1.7907,1.3912,-0.4895,
0.169529,-0.0965,0.4806,0.7676,-0.6601,-0.0779,-1.0314,1.8882,1.1569,-0.5555,
0.184763,-0.0965,0.4806,0.7676,-0.6601,-0.0779,-1.0314,1.8099,0.9550,-0.6605,
0.205471,-0.1666,0.5629,0.7058,-0.6601,-0.0779,-1.0314,1.8099,0.9550,-0.6605,
0.210395,-0.1666,0.5629,0.7058,-0.6938,0.1650,-1.2473,1.8099,0.9550,-0.6605,
0.212764,-0.1666,0.5629,0.7058,-0.6938,0.1650,-1.2473,1.6687,0.8783,-0.7569,
0.224546,-0.1666,0.5629,0.7058,-0.6938,0.1650,-1.2473,1.6496,0.9630,-0.7473,
0.245156,-0.2941,0.6064,0.8106,-0.6938,0.1650,-1.2473,1.6496,0.9630,-0.7473,
0.248095,-0.2941,0.6064,0.8106,-1.0948,0.4293,0.0332,1.6496,0.9630,-0.7473,
0.250084,-0.2941,0.6064,0.8106,-1.0948,0.4293,0.0332,1.8994,1.2069,-0.6631,
0.264510,-0.2941,0.6064,0.8106,-1.0948,0.4293,0.0332,2.2520,1.3241,-0.6312,
0.285034,-0.3997,0.6555,0.6777,-1.0948,0.4293,0.0332,2.2520,1.3241,-0.6312,
0.289169,-0.3997,0.6555,0.6777,-1.1989,0.5196,-0.7018,2.2520,1.3241,-0.6312,
0.291258,-0.3997,0.6555,0.6777,-1.1989,0.5196,-0.7018,2.4027,1.1010,-0.6376,
0.304522,-0.3997,0.6555,0.6777,-1.1989,0.5196,-0.7018,2.2520,0.7952,-0.7265,
0.324250,-0.4224,0.7376,0.4683,-1.1989,0.5196,-0.7018,2.2520,0.7952,-0.7265,
0.326492,-0.4224,0.7376,0.4683,-0.7086,0.5635,-1.7334,2.2520,0.7952,-0.7265,
0.328368,-0.4224,0.7376,0.4683,-0.7086,0.5635,-1.7334,2.0490,0.7931,-0.7574,
0.344778,-0.4224,0.7376,0.4683,-0.7086,0.5635,-1.7334,1.9617,0.9566,-0.6658,
0.364480,-0.5621,0.7894,0.4637,-0.7086,0.5635,-1.7334,1.9617,0.9566,-0.6658,
0.366999,-0.5621,0.7894,0.4637,-1.6579,0.6963,-1.0937,1.9617,0.9566,-0.6658,
0.368305,-0.5621,0.7894,0.4637,-1.6579,0.6963,-1.0937,1.9361,0.9950,-0.5183,
0.384691,-0.5621,0.7894,0.4637,-1.6579,0.6963,-1.0937,1.7918,0.6237,-0.4304,
0.404709,-0.4766,0.7740,0.2470,-1.6579,0.6963,-1.0937,1.7918,0.6237,-0.4304,
0.406670,-0.4766,0.7740,0.2470,-0.4998,0.2221,-2.5353,1.7918,0.6237,-0.4304,
0.408590,-0.4766,0.7740,0.2470,-0.4998,0.2221,-2.5353,1.4466,0.1912,-0.4868,
0.424215,-0.4766,0.7740,0.2470,-0.4998,0.2221,-2.5353,1.2272,0.1529,-0.4900,
0.444353,-0.5470,0.8133,0.3066,-0.4998,0.2221,-2.5353,1.2272,0.1529,-0.4900,
0.446879,-0.5470,0.8133,0.3066,-0.9917,0.4320,-1.4961,1.2272,0.1529,-0.4900,
0.448952,-0.5470,0.8133,0.3066,-0.9917,0.4320,-1.4961,1.2911,0.4613,-0.4160,
0.464189,-0.5470,0.8133,0.3066,-0.9917,0.4320,-1.4961,1.2437,0.7840,-0.2690,
0.484714,-0.5734,0.8429,0.1371,-0.9917,0.4320,-1.4961,1.2437,0.7840,-0.2690,
0.486847,-0.5734,0.8429,0.1371,-1.0156,0.5564,-2.6106,1.2437,0.7840,-0.2690,
0.488758,-0.5734,0.8429,0.1371,-1.0156,0.5564,-2.6106,0.9795,0.5902,-0.1475,
0.504725,-0.5734,0.8429,0.1371,-1.0156,0.5564,-2.6106,0.8155,0.2003,-0.1289,
0.524878,-0.4429,0.7879,0.2526,-1.0156,0.5564,-2.6106,0.8155,0.2003,-0.1289,
0.528486,-0.4429,0.7879,0.2526,0.3737,-0.0991,-1.1002,0.8155,0.2003,-0.1289,
0.530887,-0.4429,0.7879,0.2526,0.3737,-0.0991,-1.1002,0.7798,0.1198,-0.2349,
0.544486,-0.4429,0.7879,0.2526,0.3737,-0.0991,-1.1002,0.8725,0.2754,-0.2706,
0.565202,-0.5123,0.8211,0.2284,0.3737,-0.0991,-1.1002,0.8725,0.2754,-0.2706,
0.568877,-0.5123,0.8211,0.2284,-0.1938,0.1548,-1.0151,0.8725,0.2754,-0.2706,
0.570707,-0.5123,0.8211,0.2284,-0.1938,0.1548,-1.0151,0.9646,0.4117,-0.2695,
0.584416,-0.5123,0.8211,0.2284,-0.1938,0.1548,-1.0151,0.8703,0.3691,-0.2045,
0.605402,-0.5431,0.8468,0.1119,-0.1938,0.1548,-1.0151,0.8703,0.3691,-0.2045,
0.607461,-0.5431,0.8468,0.1119,-0.3651,0.3315,-1.7541,0.8703,0.3691,-0.2045,
0.609432,-0.5431,0.8468,0.1119,-0.3651,0.3315,-1.7541,0.6764,0.3004,-0.1582,
0.624645,-0.5431,0.8468,0.1119,-0.3651,0.3315,-1.7541,0.6136,0.1135,-0.1305,
0.643991,-0.5663,0.8668,0.1537,-0.3651,0.3315,-1.7541,0.6136,0.1135,-0.1305,
0.646199,-0.5663,0.8668,0.1537,-0.5168,0.4808,-1.0667,0.6136,0.1135,-0.1305,
0.647785,-0.5663,0.8668,0.1537,-0.5168,0.4808,-1.0667,0.6104,-0.0170,-0.1129,
0.663736,-0.5663,0.8668,0.1537,-0.5168,0.4808,-1.0667,0.4788,-0.0874,-0.1316,
0.683966,-0.4529,0.8394,0.1200,-0.5168,0.4808,-1.0667,0.4788,-0.0874,-0.1316,
0.685989,-0.4529,0.8394,0.1200,0.6255,0.1717,-1.2002,0.4788,-0.0874,-0.1316,
0.687625,-0.4529,0.8394,0.1200,0.6255,0.1717,-1.2002,0.3409,-0.1651,-0.2663,
0.703766,-0.4529,0.8394,0.1200,0.6255,0.1717,-1.2002,0.4181,-0.0394,-0.2535,
0.723617,-0.4532,0.8233,0.2035,0.6255,0.1717,-1.2002,0.4181,-0.0394,-0.2535,
0.725814,-0.4532,0.8233,0.2035,0.6877,0.0209,-0.2639,0.4181,-0.0394,-0.2535,
0.727438,-0.4532,0.8233,0.2035,0.6877,0.0209,-0.2639,0.5183,0.0005,-0.2999,
0.744176,-0.4532,0.8233,0.2035,0.6877,0.0209,-0.2639,0.4794,-0.0069,-0.3739,
0.764726,-0.3611,0.8348,0.1698,0.6877,0.0209,-0.2639,0.4794,-0.0069,-0.3739,
0.767409,-0.3611,0.8348,0.1698,0.8780,-0.3945,-0.1036,0.4794,-0.0069,-0.3739,
0.769452,-0.3611,0.8348,0.1698,0.8780,-0.3945,-0.1036,0.5140,0.2700,-0.3957,
0.784393,-0.3611,0.8348,0.1698,0.8780,-0.3945,-0.1036,0.8671,1.0807,-0.3228,
0.804200,-0.1429,1.1739,0.2343,0.8780,-0.3945,-0.1036,0.8671,1.0807,-0.3228,
0.806241,-0.1429,1.1739,0.2343,3.1453,2.9316,0.8761,0.8671,1.0807,-0.3228,
0.807792,-0.1429,1.1739,0.2343,3.1453,2.9316,0.8761,1.2959,2.0373,-0.6424,
0.823727,-0.1429,1.1739,0.2343,3.1453,2.9316,0.8761,1.5585,2.7553,-0.3127,
0.843206,-0.5712,1.1241,0.0213,3.1453,2.9316,0.8761,1.5585,2.7553,-0.3127,
0.844197,-0.5712,1.1241,0.0213,-0.7981,2.4775,-0.2744,1.5585,2.7553,-0.3127,
0.844988,-0.5712,1.1241,0.0213,-0.7981,2.4775,-0.2744,1.2469,1.3140,0.4517,
0.863574,-0.5712,1.1241,0.0213,-0.7981,2.4775,-0.2744,0.8096,0.5689,1.6315,
0.884240,-0.4141,0.8956,0.0801,-0.7981,2.4775,-0.2744,0.8096,0.5689,1.6315,
0.885747,-0.4141,0.8956,0.0801,0.3835,0.0341,0.8202,0.8096,0.5689,1.6315,
0.886763,-0.4141,0.8956,0.0801,0.3835,0.0341,0.8202,0.4858,-0.0282,2.0922,
0.903000,-0.4141,0.8956,0.0801,0.3835,0.0341,0.8202,0.3957,-0.1294,1.8754,
0.924043,-0.3384,0.9161,0.1248,0.3835,0.0341,0.8202,0.3957,-0.1294,1.8754,
0.925946,-0.3384,0.9161,0.1248,0.4185,-0.0883,1.3685,0.3957,-0.1294,1.8754,
0.927555,-0.3384,0.9161,0.1248,0.4185,-0.0883,1.3685,0.4613,0.0639,1.5532,
0.944329,-0.3384,0.9161,0.1248,0.4185,-0.0883,1.3685,0.2647,-0.1848,1.6437,
0.964520,-0.5509,0.8265,0.0855,0.4185,-0.0883,1.3685,0.2647,-0.1848,1.6437,
0.966520,-0.5509,0.8265,0.0855,-2.2028,-1.1689,1.0640,0.2647,-0.1848,1.6437,
0.968411,-0.5509,0.8265,0.0855,-2.2028,-1.1689,1.0640,-0.0085,-1.1590,1.8072,
0.984102,-0.5509,0.8265,0.0855,-2.2028,-1.1689,1.0640,-0.2296,-1.5297,1.7220,
1.003442,-0.5148,0.7869,0.0054,-2.2028,-1.1689,1.0640,-0.2296,-1.5297,1.7220,
1.006412,-0.5148,0.7869,0.0054,-2.4321,-1.7405,0.0625,-0.2296,-1.5297,1.7220,
1.008503,-0.5148,0.7869,0.0054,-2.4321,-1.7405,0.0625,-0.4985,-1.2964,1.4109,
1.024019,-0.5148,0.7869,0.0054,-2.4321,-1.7405,0.0625,-0.7659,-1.4152,1.1377,
1.043569,-0.5861,0.7661,0.0442,-2.4321,-1.7405,0.0625,-0.7659,-1.4152,1.1377,
1.046332,-0.5861,0.7661,0.0442,-3.5590,-2.0451,0.0715,-0.7659,-1.4152,1.1377,
1.048189,-0.5861,0.7661,0.0442,-3.5590,-2.0451,0.0715,-0.9406,-1.8333,0.7521,
1.063407,-0.5861,0.7661,0.0442,-3.5590,-2.0451,0.0715,-0.9300,-1.6139,0.3116,
1.083934,-0.7549,0.9074,0.0711,-3.5590,-2.0451,0.0715,-0.9300,-1.6139,0.3116,
1.086706,-0.7549,0.9074,0.0711,-5.4199,-0.6746,-0.1612,-0.9300,-1.6139,0.3116,
1.089076,-0.7549,0.9074,0.0711,-5.4199,-0.6746,-0.1612,-0.8682,-1.7662,-0.0133,
1.103646,-0.7549,0.9074,0.0711,-5.4199,-0.6746,-0.1612,-0.9646,-2.0576,-0.2338,
1.123007,-0.7454,0.8404,-0.1197,-5.4199,-0.6746,-0.1612,-0.9646,-2.0576,-0.2338,
1.125265,-0.7454,0.8404,-0.1197,-5.3500,-1.2782,-2.5252,-0.9646,-2.0576,-0.2338,
1.127175,-0.7454,0.8404,-0.1197,-5.3500,-1.2782,-2.5252,-1.1931,-1.7646,-0.5337,
1.142764,-0.7454,0.8404,-0.1197,-5.3500,-1.2782,-2.5252,-1.4243,-1.2810,-0.9177,
1.163943,-0.7288,1.0266,0.0941,-5.3500,-1.2782,-2.5252,-1.4243,-1.2810,-0.9177,
1.166180,-0.7288,1.0266,0.0941,-5.0126,0.6923,-1.0467,-1.4243,-1.2810,-0.9177,
1.168033,-0.7288,1.0266,0.0941,-5.0126,0.6923,-1.0467,-1.2320,-0.8490,-1.2698,
1.183535,-0.7288,1.0266,0.0941,-5.0126,0.6923,-1.0467,-0.7436,-0.7478,-1.4402,
1.203229,-0.7109,1.0192,-0.0371,-5.0126,0.6923,-1.0467,-0.7436,-0.7478,-1.4402,
1.205705,-0.7109,1.0192,-0.0371,-4.4074,0.8334,-2.7723,-0.7436,-0.7478,-1.4402,
1.207378,-0.7109,1.0192,-0.0371,-4.4074,0.8334,-2.7723,-0.4916,-1.0370,-1.5207,
1.222798,-0.7109,1.0192,-0.0371,-4.4074,0.8334,-2.7723,-0.5326,-0.9268,-1.6906,
1.242940,-0.6032,0.8812,-0.1021,-4.4074,0.8334,-2.7723,-0.5326,-0.9268,-1.6906,
1.245346,-0.6032,0.8812,-0.1021,-2.8717,-0.2875,-3.7034,-0.5326,-0.9268,-1.6906,
1.247312,-0.6032,0.8812,-0.1021,-2.8717,-0.2875,-3.7034,-0.5832,-0.5539,-1.9351,
1.262904,-0.6032,0.8812,-0.1021,-2.8717,-0.2875,-3.7034,-0.3595,-0.4687,-1.7678,
1.283201,-0.3252,0.8150,0.1434,-2.8717,-0.2875,-3.7034,-0.3595,-0.4687,-1.7678,
1.286302,-0.3252,0.8150,0.1434,0.4834,-0.6418,-1.4658,-0.3595,-0.4687,-1.7678,
1.288545,-0.3252,0.8150,0.1434,0.4834,-0.6418,-1.4658,0.2551,-0.2530,-1.5729,
1.303077,-0.3252,0.8150,0.1434,0.4834,-0.6418,-1.4658,0.8938,0.1928,-1.7023,
1.322907,-0.4063,0.8859,-0.0569,0.4834,-0.6418,-1.4658,0.8938,0.1928,-1.7023,
1.325668,-0.4063,0.8859,-0.0569,0.2608,0.2274,-3.1468,0.8938,0.1928,-1.7023,
1.327627,-0.4063,0.8859,-0.0569,0.2608,0.2274,-3.1468,1.0482,-0.1976,-1.4717,
1.342636,-0.4063,0.8859,-0.0569,0.2608,0.2274,-3.1468,1.1627,-0.3728,-1.3960,
1.362989,-0.4178,0.8729,0.0261,0.2608,0.2274,-3.1468,1.1627,-0.3728,-1.3960,
1.365365,-0.4178,0.8729,0.0261,0.5964,0.2275,-1.9416,1.1627,-0.3728,-1.3960,
1.367146,-0.4178,0.8729,0.0261,0.5964,0.2275,-1.9416,1.4583,-0.2136,-1.4951,
1.382846,-0.4178,0.8729,0.0261,0.5964,0.2275,-1.9416,1.7566,-0.2280,-1.2591,
1.403896,-0.4368,0.5504,0.0398,0.5964,0.2275,-1.9416,1.7566,-0.2280,-1.2591,
1.405800,-0.4368,0.5504,0.0398,0.8460,-2.7884,-1.3218,1.7566,-0.2280,-1.2591,
1.407587,-0.4368,0.5504,0.0398,0.8460,-2.7884,-1.3218,1.7279,-0.2051,-1.0978,
1.423464,-0.4368,0.5504,0.0398,0.8460,-2.7884,-1.3218,1.6549,-0.0208,-0.9598,
1.443341,-0.4603,0.5929,0.2057,0.8460,-2.7884,-1.3218,1.6549,-0.0208,-0.9598,
1.445996,-0.4603,0.5929,0.2057,0.9431,-2.2527,0.8292,1.6549,-0.0208,-0.9598,
1.447922,-0.4603,0.5929,0.2057,0.9431,-2.2527,0.8292,1.3950,0.0826,-0.9492,
1.462850,-0.4603,0.5929,0.2057,0.9431,-2.2527,0.8292,1.1191,0.2727,-0.7137,
1.482945,-0.6271,0.5099,0.2121,0.9431,-2.2527,0.8292,1.1191,0.2727,-0.7137,
1.485598,-0.6271,0.5099,0.2121,-0.4201,-2.9299,1.3329,1.1191,0.2727,-0.7137,
1.487651,-0.6271,0.5099,0.2121,-0.4201,-2.9299,1.3329,0.8000,0.2205,-0.4661,
1.502555,-0.6271,0.5099,0.2121,-0.4201,-2.9299,1.3329,0.4714,-0.0634,-0.2679,
1.523953,-0.5971,0.5565,0.1612,-0.4201,-2.9299,1.3329,0.4714,-0.0634,-0.2679,
1.525951,-0.5971,0.5565,0.1612,-0.0078,-2.4038,1.0532,0.4714,-0.0634,-0.2679,
1.528114,-0.5971,0.5565,0.1612,-0.0078,-2.4038,1.0532,0.7334,-0.0943,-0.2855,
1.542899,-0.5971,0.5565,0.1612,-0.0078,-2.4038,1.0532,1.6410,-0.2871,-0.3190,
1.562695,-0.6464,0.6025,-0.0239,-0.0078,-2.4038,1.0532,1.6410,-0.2871,-0.3190,
1.565672,-0.6464,0.6025,-0.0239,-0.3996,-1.8998,-0.4355,1.6410,-0.2871,-0.3190,
1.567500,-0.6464,0.6025,-0.0239,-0.3996,-1.8998,-0.4355,2.3255,-0.6519,-0.1587,
1.582870,-0.6464,0.6025,-0.0239,-0.3996,-1.8998,-0.4355,2.5769,-1.0322,0.2567,
1.603068,-0.6477,0.6369,-0.1112,-0.3996,-1.8998,-0.4355,2.5769,-1.0322,0.2567,
1.605280,-0.6477,0.6369,-0.1112,-0.4230,-1.5650,-0.7267,2.5769,-1.0322,0.2567,
1.607212,-0.6477,0.6369,-0.1112,-0.4230,-1.5650,-0.7267,2.6152,-1.1888,0.8394,
1.623180,-0.6477,0.6369,-0.1112,-0.4230,-1.5650,-0.7267,2.5140,-0.9294,1.1505,
1.642770,-0.4207,0.9521,-0.2033,-0.4230,-1.5650,-0.7267,2.5140,-0.9294,1.1505,
1.645043,-0.4207,0.9521,-0.2033,1.5141,1.3589,-1.0676,2.5140,-0.9294,1.1505,
1.646752,-0.4207,0.9521,-0.2033,1.5141,1.3589,-1.0676,2.3942,-0.1459,1.2533,
1.662534,-0.4207,0.9521,-0.2033,1.5141,1.3589,-1.0676,1.7460,0.2802,1.3204,
1.682696,-0.5089,0.9076,-0.2675,1.5141,1.3589,-1.0676,1.7460,0.2802,1.3204,
1.684825,-0.5089,0.9076,-0.2675,0.2304,0.7474,-1.0176,1.7460,0.2802,1.3204,
1.686528,-0.5089,0.9076,-0.2675,0.2304,0.7474,-1.0176,1.2096,0.6072,1.5148,
1.702126,-0.5089,0.9076,-0.2675,0.2304,0.7474,-1.0176,0.9305,0.5752,1.7833,
1.723086,-0.5406,1.0090,-0.3843,0.2304,0.7474,-1.0176,0.9305,0.5752,1.7833,
1.725169,-0.5406,1.0090,-0.3843,-0.6670,1.4969,-1.6902,0.9305,0.5752,1.7833,
1.726950,-0.5406,1.0090,-0.3843,-0.6670,1.4969,-1.6902,0.9859,0.3478,1.9308,
1.742743,-0.5406,1.0090,-0.3843,-0.6670,1.4969,-1.6902,0.9907,-0.3542,2.1721,
1.762276,-0.5932,1.0566,-0.4564,-0.6670,1.4969,-1.6902,0.9907,-0.3542,2.1721,
1.765076,-0.5932,1.0566,-0.4564,-1.8788,1.7026,-2.0581,0.9907,-0.3542,2.1721,
1.767228,-0.5932,1.0566,-0.4564,-1.8788,1.7026,-2.0581,0.8416,-0.3744,2.1657,
1.782644,-0.5932,1.0566,-0.4564,-1.8788,1.7026,-2.0581,0.7750,0.0101,2.0842,
1.803085,-0.4542,1.1548,-0.2050,-1.8788,1.7026,-2.0581,0.7750,0.0101,2.0842,
1.805207,-0.4542,1.1548,-0.2050,-1.2422,2.4434,0.6610,0.7750,0.0101,2.0842,
1.806958,-0.4542,1.1548,-0.2050,-1.2422,2.4434,0.6610,0.4416,-0.3862,2.2461,
1.822456,-0.4542,1.1548,-0.2050,-1.2422,2.4434,0.6610,0.1800,-0.7329,2.2488,
1.843119,-0.3474,1.4253,-0.1495,-1.2422,2.4434,0.6610,0.1800,-0.7329,2.2488,
1.845240,-0.3474,1.4253,-0.1495,-0.9419,4.8731,1.2538,0.1800,-0.7329,2.2488,
1.846949,-0.3474,1.4253,-0.1495,-0.9419,4.8731,1.2538,0.2210,-0.3872,1.6549,
1.863002,-0.3474,1.4253,-0.1495,-0.9419,4.8731,1.2538,0.4943,-0.6397,0.7760,
1.882638,-0.3112,1.0114,-0.4161,-0.9419,4.8731,1.2538,0.4943,-0.6397,0.7760,
1.884798,-0.3112,1.0114,-0.4161,-0.9746,0.7470,-1.2727,0.4943,-0.6397,0.7760,
1.886626,-0.3112,1.0114,-0.4161,-0.9746,0.7470,-1.2727,0.6173,-0.8277,0.1332,
1.901583,-0.3112,1.0114,-0.4161,-0.9746,0.7470,-1.2727,0.3414,-0.5220,-0.0293,
1.922383,-0.1981,0.9005,-0.3574,-0.9746,0.7470,-1.2727,0.3414,-0.5220,-0.0293,
1.924185,-0.1981,0.9005,-0.3574,0.1922,-0.2894,-0.5796,0.3414,-0.5220,-0.0293,
1.925738,-0.1981,0.9005,-0.3574,0.1922,-0.2894,-0.5796,0.0453,-0.4554,-0.0069,
1.941890,-0.1981,0.9005,-0.3574,0.1922,-0.2894,-0.5796,-0.0937,-0.3350,0.1614,
1.962131,-0.2064,0.8758,-0.2861,0.1922,-0.2894,-0.5796,-0.0937,-0.3350,0.1614,
1.965067,-0.2064,0.8758,-0.2861,0.1352,-0.5388,0.0775,-0.0937,-0.3350,0.1614,
1.966709,-0.2064,0.8758,-0.2861,0.1352,-0.5388,0.0775,-0.2019,0.2583,0.2413,
1.981959,-0.2064,0.8758,-0.2861,0.1352,-0.5388,0.0775,-0.2381,0.4282,0.1811,
2.001817,-0.3054,0.8988,-0.2167,0.1352,-0.5388,0.0775,-0.2381,0.4282,0.1811,
2.003707,-0.3054,0.8988,-0.2167,-0.9269,-0.3535,0.6985,-0.2381,0.4282,0.1811,
2.005598,-0.3054,0.8988,-0.2167,-0.9269,-0.3535,0.6985,-0.1188,0.2322,0.1465,
2.021874,-0.3054,0.8988,-0.2167,-0.9269,-0.3535,0.6985,-0.1033,0.2839,0.1129,
2.042601,-0.2057,0.8458,-0.3452,-0.9269,-0.3535,0.6985,-0.1033,0.2839,0.1129,
2.045752,-0.2057,0.8458,-0.3452,-0.0107,-0.8903,-0.5733,-0.1033,0.2839,0.1129,
2.048301,-0.2057,0.8458,-0.3452,-0.0107,-0.8903,-0.5733,-0.2407,0.5422,-0.1433,
2.061991,-0.2057,0.8458,-0.3452,-0.0107,-0.8903,-0.5733,-0.2248,0.9795,0.1454,
2.082478,-0.2526,0.8074,-0.3325,-0.0107,-0.8903,-0.5733,-0.2248,0.9795,0.1454,
2.084821,-0.2526,0.8074,-0.3325,-0.5428,-1.2867,-0.4649,-0.2248,0.9795,0.1454,
2.086713,-0.2526,0.8074,-0.3325,-0.5428,-1.2867,-0.4649,-0.3574,0.8325,0.6653,
2.102427,-0.2526,0.8074,-0.3325,-0.5428,-1.2867,-0.4649,-0.3915,0.3505,0.8538,
2.122161,-0.2428,0.8634,-0.2897,-0.5428,-1.2867,-0.4649,-0.3915,0.3505,0.8538,
2.124464,-0.2428,0.8634,-0.2897,-0.7749,-0.8270,-0.1331,-0.3915,0.3505,0.8538,
2.126491,-0.2428,0.8634,-0.2897,-0.7749,-0.8270,-0.1331,-0.1822,0.0932,0.8911,
2.142410,-0.2428,0.8634,-0.2897,-0.7749,-0.8270,-0.1331,-0.2594,-0.1012,1.0189,
2.162461,-0.3542,0.9762,-0.2384,-0.7749,-0.8270,-0.1331,-0.2594,-0.1012,1.0189,
2.164713,-0.3542,0.9762,-0.2384,-2.1591,0.2112,0.2926,-0.2594,-0.1012,1.0189,
2.166439,-0.3542,0.9762,-0.2384,-2.1591,0.2112,0.2926,-0.3185,-0.0165,1.1430,
2.182550,-0.3542,0.9762,-0.2384,-2.1591,0.2112,0.2926,-0.2945,0.0032,1.2847,
2.201676,-0.2951,1.0146,-0.2673,-2.1591,0.2112,0.2926,-0.2945,0.0032,1.2847,
2.203662,-0.2951,1.0146,-0.2673,-1.9841,0.5085,-0.1024,-0.2945,0.0032,1.2847,
2.205561,-0.2951,1.0146,-0.2673,-1.9841,0.5085,-0.1024,-0.2567,-0.0852,1.1894,
2.222264,-0.2951,1.0146,-0.2673,-1.9841,0.5085,-0.1024,-0.2482,-0.1028,1.1670,
2.241573,-0.3005,1.0855,-0.2878,-1.9841,0.5085,-0.1024,-0.2482,-0.1028,1.1670,
2.244159,-0.3005,1.0855,-0.2878,-1.9968,1.1890,-0.3712,-0.2482,-0.1028,1.1670,
2.246129,-0.3005,1.0855,-0.2878,-1.9968,1.1890,-0.3712,-0.2834,-0.2194,1.2943,
2.261867,-0.3005,1.0855,-0.2878,-1.9968,1.1890,-0.3712,-0.4107,-0.5529,1.3502,
2.281446,0.0208,1.0356,-0.2805,-1.9968,1.1890,-0.3712,-0.4107,-0.5529,1.3502,
2.283909,0.0208,1.0356,-0.2805,0.6988,0.6313,-0.4380,-0.4107,-0.5529,1.3502,
2.285720,0.0208,1.0356,-0.2805,0.6988,0.6313,-0.4380,-0.4698,-0.6914,1.1638,
2.301538,0.0208,1.0356,-0.2805,0.6988,0.6313,-0.4380,-0.4256,-0.5428,0.8384,
2.322308,0.2152,0.9938,-0.0967,0.6988,0.6313,-0.4380,-0.4256,-0.5428,0.8384,
2.324379,0.2152,0.9938,-0.0967,2.2735,0.1677,1.1785,-0.4256,-0.5428,0.8384,
2.325926,0.2152,0.9938,-0.0967,2.2735,0.1677,1.1785,-0.2780,-0.2024,0.2812,
2.343063,0.2152,0.9938,-0.0967,2.2735,0.1677,1.1785,0.0804,0.3009,-0.4655,
2.361444,0.1847,1.0456,-0.2050,2.2735,0.1677,1.1785,0.0804,0.3009,-0.4655,
2.363557,0.1847,1.0456,-0.2050,1.9856,0.6664,0.0766,0.0804,0.3009,-0.4655,
2.364988,0.1847,1.0456,-0.2050,1.9856,0.6664,0.0766,0.1337,0.4165,-0.8996,
2.381300,0.1847,1.0456,-0.2050,1.9856,0.6664,0.0766,-0.0708,0.5848,-1.2203,
2.401510,-0.0601,0.8905,-0.0982,1.9856,0.6664,0.0766,-0.0708,0.5848,-1.2203,
2.403069,-0.0601,0.8905,-0.0982,-0.0737,-0.8410,1.1256,-0.0708,0.5848,-1.2203,
2.404992,-0.0601,0.8905,-0.0982,-0.0737,-0.8410,1.1256,-0.1886,0.9998,-1.2836,
2.421946,-0.0601,0.8905,-0.0982,-0.0737,-0.8410,1.1256,0.1182,1.5888,-0.9646,
2.443159,-0.1776,0.9183,-0.1424,-0.0737,-0.8410,1.1256,0.1182,1.5888,-0.9646,
2.445288,-0.1776,0.9183,-0.1424,-0.9079,-0.5435,0.7023,0.1182,1.5888,-0.9646,
2.447073,-0.1776,0.9183,-0.1424,-0.9079,-0.5435,0.7023,0.2690,1.3710,-0.6189,
2.462094,-0.1776,0.9183,-0.1424,-0.9079,-0.5435,0.7023,0.1630,0.6764,-0.3755,
2.481902,-0.1862,0.8783,-0.2502,-0.9079,-0.5435,0.7023,0.1630,0.6764,-0.3755,
2.484051,-0.1862,0.8783,-0.2502,-0.8857,-0.9004,-0.2390,0.1630,0.6764,-0.3755,
2.486026,-0.1862,0.8783,-0.2502,-0.8857,-0.9004,-0.2390,-0.1246,0.0352,-0.3089,
2.501607,-0.1862,0.8783,-0.2502,-0.8857,-0.9004,-0.2390,-0.4357,-0.3606,-0.1001,
2.521606,-0.0332,1.0175,-0.2587,-0.8857,-0.9004,-0.2390,-0.4357,-0.3606,-0.1001,
2.523694,-0.0332,1.0175,-0.2587,0.6989,0.4481,-0.4334,-0.4357,-0.3606,-0.1001,
2.526001,-0.0332,1.0175,-0.2587,0.6989,0.4481,-0.4334,-0.3462,0.0192,-0.1257,
2.542080,-0.0332,1.0175,-0.2587,0.6989,0.4481,-0.4334,-0.0916,0.4708,-0.0687,
2.561523,-0.0821,1.0266,-0.1053,0.6989,0.4481,-0.4334,-0.0916,0.4708,-0.0687,
2.563296,-0.0821,1.0266,-0.1053,0.2279,0.5189,0.9837,-0.0916,0.4708,-0.0687,
2.564955,-0.0821,1.0266,-0.1053,0.2279,0.5189,0.9837,0.1683,0.0479,0.0405,
2.581001,-0.0821,1.0266,-0.1053,0.2279,0.5189,0.9837,0.5587,-0.4064,0.1156,
2.601336,-0.2189,1.0014,-0.5309,0.2279,0.5189,0.9837,0.5587,-0.4064,0.1156,
2.605145,-0.2189,1.0014,-0.5309,-1.1222,0.3035,-3.0398,0.5587,-0.4064,0.1156,
2.607202,-0.2189,1.0014,-0.5309,-1.1222,0.3035,-3.0398,0.5918,0.2945,0.1470,
2.620786,-0.2189,1.0014,-0.5309,-1.1222,0.3035,-3.0398,0.2514,0.6844,0.1811,
2.642379,-0.1534,0.8358,-0.3809,-1.1222,0.3035,-3.0398,0.2514,0.6844,0.1811,
2.645880,-0.1534,0.8358,-0.3809,-0.5664,-1.2752,-1.3470,0.2514,0.6844,0.1811,
2.647944,-0.1534,0.8358,-0.3809,-0.5664,-1.2752,-1.3470,0.1129,0.5188,0.1039,
2.660791,-0.1534,0.8358,-0.3809,-0.5664,-1.2752,-1.3470,0.0948,0.3430,0.0389,
2.681042,-0.1761,0.8328,-0.3139,-0.5664,-1.2752,-1.3470,0.0948,0.3430,0.0389,
2.684184,-0.1761,0.8328,-0.3139,-0.8394,-1.2887,-0.6124,0.0948,0.3430,0.0389,
2.686322,-0.1761,0.8328,-0.3139,-0.8394,-1.2887,-0.6124,0.0549,0.3723,0.0117,
2.701326,-0.1761,0.8328,-0.3139,-0.8394,-1.2887,-0.6124,0.0905,0.6828,-0.0197,
2.720700,-0.1720,0.8732,-0.3034,-0.8394,-1.2887,-0.6124,0.0905,0.6828,-0.0197,
2.722746,-0.1720,0.8732,-0.3034,-0.8319,-0.8802,-0.4473,0.0905,0.6828,-0.0197,
2.724742,-0.1720,0.8732,-0.3034,-0.8319,-0.8802,-0.4473,0.1507,0.9044,-0.0181,
2.742280,-0.1720,0.8732,-0.3034,-0.8319,-0.8802,-0.4473,0.1992,0.9987,0.0069,
2.761093,-0.0904,0.8883,-0.3567,-0.8319,-0.8802,-0.4473,0.1992,0.9987,0.0069,
2.763270,-0.0904,0.8883,-0.3567,-0.1147,-0.7074,-0.8542,0.1992,0.9987,0.0069,
2.765285,-0.0904,0.8883,-0.3567,-0.1147,-0.7074,-0.8542,0.2445,0.9747,0.0016,
2.781130,-0.0904,0.8883,-0.3567,-0.1147,-0.7074,-0.8542,0.2738,0.8394,-0.0485,
2.800341,-0.0540,0.8084,-0.4185,-0.1147,-0.7074,-0.8542,0.2738,0.8394,-0.0485,
2.802460,-0.0540,0.8084,-0.4185,0.1579,-1.4567,-1.3209,0.2738,0.8394,-0.0485,
2.804453,-0.0540,0.8084,-0.4185,0.1579,-1.4567,-1.3209,0.2141,0.6605,-0.0975,
2.821275,-0.0540,0.8084,-0.4185,0.1579,-1.4567,-1.3209,0.1017,0.5007,-0.1651,
2.841280,-0.0430,0.7830,-0.4542,0.1579,-1.4567,-1.3209,0.1017,0.5007,-0.1651,
2.843612,-0.0430,0.7830,-0.4542,0.2504,-1.6806,-1.5836,0.1017,0.5007,-0.1651,
2.845297,-0.0430,0.7830,-0.4542,0.2504,-1.6806,-1.5836,-0.1385,0.1944,-0.2333,
2.861294,-0.0430,0.7830,-0.4542,0.2504,-1.6806,-1.5836,-0.3467,0.1001,-0.2434,
2.881025,-0.1366,0.9252,-0.4234,0.2504,-1.6806,-1.5836,-0.3467,0.1001,-0.2434,
2.883061,-0.1366,0.9252,-0.4234,-0.5864,-0.2959,-1.3306,-0.3467,0.1001,-0.2434,
2.885150,-0.1366,0.9252,-0.4234,-0.5864,-0.2959,-1.3306,-0.3649,0.2381,-0.2455,
2.900351,-0.1366,0.9252,-0.4234,-0.5864,-0.2959,-1.3306,-0.3174,0.3148,-0.2578,
2.920748,-0.2096,0.9174,-0.5067,-0.5864,-0.2959,-1.3306,-0.3174,0.3148,-0.2578,
2.923046,-0.2096,0.9174,-0.5067,-1.2148,-0.3810,-2.2005,-0.3174,0.3148,-0.2578,
2.925033,-0.2096,0.9174,-0.5067,-1.2148,-0.3810,-2.2005,-0.2706,0.3968,-0.3089,
2.941329,-0.2096,0.9174,-0.5067,-1.2148,-0.3810,-2.2005,-0.2423,0.4490,-0.3856,
2.960517,-0.2497,0.9423,-0.4617,-1.2148,-0.3810,-2.2005,-0.2423,0.4490,-0.3856,
2.963515,-0.2497,0.9423,-0.4617,-1.5003,-0.1378,-1.7982,-0.2423,0.4490,-0.3856,
2.965603,-0.2497,0.9423,-0.4617,-1.5003,-0.1378,-1.7982,-0.2077,0.4517,-0.4485,
2.980813,-0.2497,0.9423,-0.4617,-1.5003,-0.1378,-1.7982,-0.1411,0.4969,-0.4389,
3.000447,-0.2245,1.1106,-0.4117,-1.5003,-0.1378,-1.7982,-0.1411,0.4969,-0.4389,
3.002309,-0.2245,1.1106,-0.4117,-1.1387,1.5108,-1.3537,-0.1411,0.4969,-0.4389,
3.003767,-0.2245,1.1106,-0.4117,-1.1387,1.5108,-1.3537,0.0080,0.6461,-0.3696,
3.020423,-0.2245,1.1106,-0.4117,-1.1387,1.5108,-1.3537,0.2972,0.8522,-0.2546,
3.040786,-0.0958,1.2777,-0.3411,-1.1387,1.5108,-1.3537,0.2972,0.8522,-0.2546,
3.042846,-0.0958,1.2777,-0.3411,0.1586,3.1786,-0.5721,0.2972,0.8522,-0.2546,
3.044632,-0.0958,1.2777,-0.3411,0.1586,3.1786,-0.5721,0.6690,0.8165,-0.0453,
3.061238,-0.0958,1.2777,-0.3411,0.1586,3.1786,-0.5721,0.5300,-0.2535,0.0985,
3.081029,0.0577,1.1954,-0.4334,0.1586,3.1786,-0.5721,0.5300,-0.2535,0.0985,
3.083050,0.0577,1.1954,-0.4334,1.6209,2.4399,-1.2420,0.5300,-0.2535,0.0985,
3.084826,0.0577,1.1954,-0.4334,1.6209,2.4399,-1.2420,-0.1182,-1.1606,0.2125,
3.100579,0.0577,1.1954,-0.4334,1.6209,2.4399,-1.2420,-0.7148,-1.1212,0.4692,
3.120777,0.1415,0.9916,-0.0303,1.6209,2.4399,-1.2420,-0.7148,-1.1212,0.4692,
3.122721,0.1415,0.9916,-0.0303,2.4491,0.3804,2.5048,-0.7148,-1.1212,0.4692,
3.124340,0.1415,0.9916,-0.0303,2.4491,0.3804,2.5048,-0.6748,-0.9241,0.7180,
3.140434,0.1415,0.9916,-0.0303,2.4491,0.3804,2.5048,-0.0719,-0.5593,0.7659,
3.160160,0.2944,1.0654,-0.0308,2.4491,0.3804,2.5048,-0.0719,-0.5593,0.7659,
3.162544,0.2944,1.0654,-0.0308,3.7452,1.0330,2.3286,-0.0719,-0.5593,0.7659,
3.164391,0.2944,1.0654,-0.0308,3.7452,1.0330,2.3286,0.1353,-1.5500,0.1012,
3.180891,0.2944,1.0654,-0.0308,3.7452,1.0330,2.3286,-0.5092,-2.9726,-0.2242,
3.200298,-0.0623,1.0674,-0.0906,3.7452,1.0330,2.3286,-0.5092,-2.9726,-0.2242,
3.201740,-0.0623,1.0674,-0.0906,0.4929,1.0320,1.5735,-0.5092,-2.9726,-0.2242,
3.203064,-0.0623,1.0674,-0.0906,0.4929,1.0320,1.5735,-1.0184,-2.5391,-0.3739,
3.220304,-0.0623,1.0674,-0.0906,0.4929,1.0320,1.5735,-1.0812,-1.0807,-0.6157,
3.240344,-0.3213,1.0495,0.0689,0.4929,1.0320,1.5735,-1.0812,-1.0807,-0.6157,
3.242771,-0.3213,1.0495,0.0689,-1.7000,0.7853,2.6296,-1.0812,-1.0807,-0.6157,
3.244709,-0.3213,1.0495,0.0689,-1.7000,0.7853,2.6296,-1.0221,-0.4826,-0.6397,
3.260086,-0.3213,1.0495,0.0689,-1.7000,0.7853,2.6296,-1.0200,-0.6221,-0.3723,
3.280093,-0.1551,0.9814,0.1244,-1.7000,0.7853,2.6296,-1.0200,-0.6221,-0.3723,
3.282846,-0.1551,0.9814,0.1244,0.1472,0.0684,2.7035,-1.0200,-0.6221,-0.3723,
3.284663,-0.1551,0.9814,0.1244,0.1472,0.0684,2.7035,-0.8645,-0.6892,-0.2248,
3.301020,-0.1551,0.9814,0.1244,0.1472,0.0684,2.7035,-0.6296,-0.6434,-0.3121,
3.319715,-0.1077,0.9166,0.0684,0.1472,0.0684,2.7035,-0.6296,-0.6434,-0.3121,
3.322147,-0.1077,0.9166,0.0684,0.7283,-0.5973,1.7679,-0.6296,-0.6434,-0.3121,
3.324241,-0.1077,0.9166,0.0684,0.7283,-0.5973,1.7679,-0.4746,-0.6429,-0.4506,
3.340163,-0.1077,0.9166,0.0684,0.7283,-0.5973,1.7679,-0.3292,-0.8298,-0.5049,
3.360443,-0.1686,0.8306,-0.0225,0.7283,-0.5973,1.7679,-0.3292,-0.8298,-0.5049,
3.363726,-0.1686,0.8306,-0.0225,0.3384,-1.4221,0.6571,-0.3292,-0.8298,-0.5049,
3.365164,-0.1686,0.8306,-0.0225,0.3384,-1.4221,0.6571,-0.1593,-1.0216,-0.5188,
3.379763,-0.1686,0.8306,-0.0225,0.3384,-1.4221,0.6571,-0.1822,-1.1542,-0.5518,
3.401474,-0.2531,0.8602,-0.1683,0.3384,-1.4221,0.6571,-0.1822,-1.1542,-0.5518,
3.403622,-0.2531,0.8602,-0.1683,-0.2519,-1.0929,-0.9292,-0.1822,-1.1542,-0.5518,
3.405746,-0.2531,0.8602,-0.1683,-0.2519,-1.0929,-0.9292,-0.2860,-1.0807,-0.4320,
3.419411,-0.2531,0.8602,-0.1683,-0.2519,-1.0929,-0.9292,-0.2583,-0.9369,-0.3734,
3.439705,-0.2998,0.8971,-0.1554,-0.2519,-1.0929,-0.9292,-0.2583,-0.9369,-0.3734,
3.440821,-0.2998,0.8971,-0.1554,-0.5300,-0.7002,-0.9925,-0.2583,-0.9369,-0.3734,
3.441536,-0.2998,0.8971,-0.1554,-0.5300,-0.7002,-0.9925,-0.2802,-1.0232,-0.3489,
3.459999,-0.2998,0.8971,-0.1554,-0.5300,-0.7002,-0.9925,-0.3601,-1.1382,-0.3675,
3.479900,-0.3906,0.8802,-0.0911,-0.5300,-0.7002,-0.9925,-0.3601,-1.1382,-0.3675,
3.482643,-0.3906,0.8802,-0.0911,-0.7661,-0.6453,0.0181,-0.3601,-1.1382,-0.3675,
3.484217,-0.3906,0.8802,-0.0911,-0.7661,-0.6453,0.0181,-0.3979,-1.0594,-0.2951,
3.503367,-0.3906,0.8802,-0.0911,-0.7661,-0.6453,0.0181,-0.3947,-0.8432,-0.2503,
3.520077,-0.4705,0.8927,-0.0721,-0.7661,-0.6453,0.0181,-0.3947,-0.8432,-0.2503,
3.523503,-0.4705,0.8927,-0.0721,-1.4017,-0.4952,-0.0541,-0.3947,-0.8432,-0.2503,
3.526531,-0.4705,0.8927,-0.0721,-1.4017,-0.4952,-0.0541,-0.3132,-0.5678,-0.1353,
3.540036,-0.4705,0.8927,-0.0721,-1.4017,-0.4952,-0.0541,-0.1172,-0.4123,0.0533,
3.560068,-0.3337,0.9188,-0.1031,-1.4017,-0.4952,-0.0541,-0.1172,-0.4123,0.0533,
3.562763,-0.3337,0.9188,-0.1031,-0.0238,-0.2343,-0.4879,-0.1172,-0.4123,0.0533,
3.564494,-0.3337,0.9188,-0.1031,-0.0238,-0.2343,-0.4879,0.0719,-0.5289,0.1209,
3.579981,-0.3337,0.9188,-0.1031,-0.0238,-0.2343,-0.4879,0.1268,-0.8027,0.1342,
3.600252,-0.3110,0.9267,-0.0296,-0.0238,-0.2343,-0.4879,0.1268,-0.8027,0.1342,
3.602516,-0.3110,0.9267,-0.0296,0.1693,-0.1704,0.1881,0.1268,-0.8027,0.1342,
3.604438,-0.3110,0.9267,-0.0296,0.1693,-0.1704,0.1881,0.1411,-1.0136,0.1603,
3.619263,-0.3110,0.9267,-0.0296,0.1693,-0.1704,0.1881,0.2423,-1.1569,0.1886,
3.639280,-0.3134,1.0649,0.0972,0.1693,-0.1704,0.1881,0.2423,-1.1569,0.1886,
3.641584,-0.3134,1.0649,0.0972,0.0983,1.1647,1.3508,0.2423,-1.1569,0.1886,
3.643189,-0.3134,1.0649,0.0972,0.0983,1.1647,1.3508,0.3808,-1.2693,0.2093,
3.659432,-0.3134,1.0649,0.0972,0.0983,1.1647,1.3508,0.5736,-1.3625,0.2551,
3.679289,-0.3046,1.2814,0.1239,0.0983,1.1647,1.3508,0.5736,-1.3625,0.2551,
3.681479,-0.3046,1.2814,0.1239,0.1192,3.2644,1.6238,0.5736,-1.3625,0.2551,
3.682948,-0.3046,1.2814,0.1239,0.1192,3.2644,1.6238,0.8053,-1.4828,0.3435,
3.699090,-0.3046,1.2814,0.1239,0.1192,3.2644,1.6238,0.9385,-1.4083,0.4357,
3.719723,-0.4615,1.4507,-0.0752,0.1192,3.2644,1.6238,0.9385,-1.4083,0.4357,
3.721858,-0.4615,1.4507,-0.0752,-1.5353,4.8929,-0.1795,0.9385,-1.4083,0.4357,
3.723722,-0.4615,1.4507,-0.0752,-1.5353,4.8929,-0.1795,0.8645,-1.0179,0.5449,
3.739890,-0.4615,1.4507,-0.0752,-1.5353,4.8929,-0.1795,0.5097,-0.7734,0.5752,
3.759310,-0.5104,1.4336,-0.0921,-1.5353,4.8929,-0.1795,0.5097,-0.7734,0.5752,
3.762178,-0.5104,1.4336,-0.0921,-2.2003,4.6780,-0.1921,0.5097,-0.7734,0.5752,
3.764010,-0.5104,1.4336,-0.0921,-2.2003,4.6780,-0.1921,-0.1406,-0.8490,0.4666,
3.779520,-0.5104,1.4336,-0.0921,-2.2003,4.6780,-0.1921,-0.4879,-0.8245,0.4629,
3.799168,-0.2001,1.2557,0.2758,-2.2003,4.6780,-0.1921,-0.4879,-0.8245,0.4629,
3.801616,-0.2001,1.2557,0.2758,0.6868,2.8770,3.2045,-0.4879,-0.8245,0.4629,
3.803131,-0.2001,1.2557,0.2758,0.6868,2.8770,3.2045,-0.1321,-1.2575,0.5017,
3.819881,-0.2001,1.2557,0.2758,0.6868,2.8770,3.2045,0.4820,-1.7955,0.5236,
3.839896,0.0413,0.9775,0.2265,0.6868,2.8770,3.2045,0.4820,-1.7955,0.5236,
3.841997,0.0413,0.9775,0.2265,2.8848,0.1003,2.6311,0.4820,-1.7955,0.5236,
3.843534,0.0413,0.9775,0.2265,2.8848,0.1003,2.6311,0.9289,-2.2157,0.5049,
3.859182,0.0413,0.9775,0.2265,2.8848,0.1003,2.6311,0.9534,-2.4938,0.5220,
3.879681,0.1991,0.9692,0.0369,2.8848,0.1003,2.6311,0.9534,-2.4938,0.5220,
3.881879,0.1991,0.9692,0.0369,4.2687,-0.0162,0.8952,0.9534,-2.4938,0.5220,
3.883578,0.1991,0.9692,0.0369,4.2687,-0.0162,0.8952,0.5715,-2.1998,0.6924,
3.902304,0.1991,0.9692,0.0369,4.2687,-0.0162,0.8952,0.1007,-1.0882,0.9081,
3.919578,0.3799,1.1407,0.0889,4.2687,-0.0162,0.8952,0.1007,-1.0882,0.9081,
3.921744,0.3799,1.1407,0.0889,5.7705,1.6019,1.3875,0.1007,-1.0882,0.9081,
3.923366,0.3799,1.1407,0.0889,5.7705,1.6019,1.3875,0.0692,0.4842,0.8048,
3.938983,0.3799,1.1407,0.0889,5.7705,1.6019,1.3875,1.2016,2.6445,0.2903,
3.959441,0.0181,1.1128,0.2480,5.7705,1.6019,1.3875,1.2016,2.6445,0.2903,
3.962218,0.0181,1.1128,0.2480,1.9720,1.3044,3.3059,1.2016,2.6445,0.2903,
3.963730,0.0181,1.1128,0.2480,1.9720,1.3044,3.3059,2.4885,3.1692,0.0778,
3.979468,0.0181,1.1128,0.2480,1.9720,1.3044,3.3059,2.9732,2.2600,0.1736,
3.999757,-0.0767,0.9406,-0.1810,1.9720,1.3044,3.3059,2.9732,2.2600,0.1736,
4.001901,-0.0767,0.9406,-0.1810,0.8037,-0.2443,0.2808,2.9732,2.2600,0.1736,
4.003578,-0.0767,0.9406,-0.1810,0.8037,-0.2443,0.2808,2.7463,1.4839,0.1662,
4.019009,-0.0767,0.9406,-0.1810,0.8037,-0.2443,0.2808,2.2653,1.1585,0.2051,
4.039090,-0.0120,0.8099,-0.4507,0.8037,-0.2443,0.2808,2.2653,1.1585,0.2051,
4.041254,-0.0120,0.8099,-0.4507,1.2021,-1.2923,-1.3753,2.2653,1.1585,0.2051,
4.043573,-0.0120,0.8099,-0.4507,1.2021,-1.2923,-1.3753,1.7976,0.9950,0.3633,
4.059042,-0.0120,0.8099,-0.4507,1.2021,-1.2923,-1.3753,1.3049,0.5875,0.4565,
4.079410,0.1239,0.6276,-0.5228,1.2021,-1.2923,-1.3753,1.3049,0.5875,0.4565,
4.081809,0.1239,0.6276,-0.5228,2.2786,-2.8904,-1.4774,1.3049,0.5875,0.4565,
4.083572,0.1239,0.6276,-0.5228,2.2786,-2.8904,-1.4774,0.7713,-0.0053,0.4485,
4.098861,0.1239,0.6276,-0.5228,2.2786,-2.8904,-1.4774,0.5012,-0.2147,0.3846,
4.119006,0.1033,0.5797,-0.2741,2.2786,-2.8904,-1.4774,0.5012,-0.2147,0.3846,
4.121522,0.1033,0.5797,-0.2741,1.9446,-3.2807,1.1844,0.5012,-0.2147,0.3846,
4.123193,0.1033,0.5797,-0.2741,1.9446,-3.2807,1.1844,0.2589,-0.3723,0.2535,
4.138859,0.1033,0.5797,-0.2741,1.9446,-3.2807,1.1844,0.0634,-0.2205,0.1028,
4.158997,0.0474,0.6117,-0.2323,1.9446,-3.2807,1.1844,0.0634,-0.2205,0.1028,
4.161274,0.0474,0.6117,-0.2323,1.3788,-2.9485,1.6405,0.0634,-0.2205,0.1028,
4.163005,0.0474,0.6117,-0.2323,1.3788,-2.9485,1.6405,-0.0836,0.0218,0.0410,
4.178818,0.0474,0.6117,-0.2323,1.3788,-2.9485,1.6405,-0.2328,0.2189,-0.0458,
4.198783,0.0594,0.6169,-0.3325,1.3788,-2.9485,1.6405,-0.2328,0.2189,-0.0458,
4.201100,0.0594,0.6169,-0.3325,1.4783,-2.9228,0.6067,-0.2328,0.2189,-0.0458,
4.202796,0.0594,0.6169,-0.3325,1.4783,-2.9228,0.6067,-0.3478,0.1694,-0.1332,
4.218822,0.0594,0.6169,-0.3325,1.4783,-2.9228,0.6067,-0.3595,0.2226,-0.1886,
4.239142,0.0601,0.7043,-0.4063,1.4783,-2.9228,0.6067,-0.3595,0.2226,-0.1886,
4.241350,0.0601,0.7043,-0.4063,1.5135,-2.1135,-0.2363,-0.3595,0.2226,-0.1886,
4.243194,0.0601,0.7043,-0.4063,1.5135,-2.1135,-0.2363,-0.2743,0.2487,-0.1870,
4.258489,0.0601,0.7043,-0.4063,1.5135,-2.1135,-0.2363,-0.2381,0.0272,-0.2365,
4.278565,0.0765,0.7603,-0.4036,1.5135,-2.1135,-0.2363,-0.2381,0.0272,-0.2365,
4.280969,0.0765,0.7603,-0.4036,1.7298,-1.5951,-0.2972,-0.2381,0.0272,-0.2365,
4.282785,0.0765,0.7603,-0.4036,1.7298,-1.5951,-0.2972,-0.1886,-0.2429,-0.3478,
4.298710,0.0765,0.7603,-0.4036,1.7298,-1.5951,-0.2972,-0.1156,-0.8139,-0.6163,
4.318921,-0.1244,1.4258,-0.3144,1.7298,-1.5951,-0.2972,-0.1156,-0.8139,-0.6163,
4.321157,-0.1244,1.4258,-0.3144,0.0007,4.9227,0.4940,-0.1156,-0.8139,-0.6163,
4.322571,-0.1244,1.4258,-0.3144,0.0007,4.9227,0.4940,0.1246,-0.9188,-0.3457,
4.339020,-0.1244,1.4258,-0.3144,0.0007,4.9227,0.4940,0.7105,-0.3824,0.3222,
4.358495,0.3051,1.1788,-0.5824,0.0007,4.9227,0.4940,0.7105,-0.3824,0.3222,
4.361697,0.3051,1.1788,-0.5824,4.3073,2.5629,-2.0157,0.7105,-0.3824,0.3222,
4.363354,0.3051,1.1788,-0.5824,4.3073,2.5629,-2.0157,0.1864,-0.9438,-0.1422,
4.379071,0.3051,1.1788,-0.5824,4.3073,2.5629,-2.0157,-0.8554,-1.7960,-0.2344,
4.398067,-0.0305,1.3408,-0.1256,4.3073,2.5629,-2.0157,-0.8554,-1.7960,-0.2344,
4.400409,-0.0305,1.3408,-0.1256,1.2841,4.1134,2.2616,-0.8554,-1.7960,-0.2344,
4.401631,-0.0305,1.3408,-0.1256,1.2841,4.1134,2.2616,-0.5566,-0.1832,0.7366,
4.418168,-0.0305,1.3408,-0.1256,1.2841,4.1134,2.2616,-0.7238,-1.3534,0.5172,
4.438105,0.1200,1.1013,-0.1805,1.2841,4.1134,2.2616,-0.7238,-1.3534,0.5172,
4.440898,0.1200,1.1013,-0.1805,2.6333,1.6437,1.4453,-0.7238,-1.3534,0.5172,
4.442405,0.1200,1.1013,-0.1805,2.6333,1.6437,1.4453,-0.7089,-1.6948,0.3542,
4.458186,0.1200,1.1013,-0.1805,2.6333,1.6437,1.4453,-0.8623,-1.6922,0.3462,
4.478829,0.0985,0.9469,-0.1593,2.6333,1.6437,1.4453,-0.8623,-1.6922,0.3462,
4.480958,0.0985,0.9469,-0.1593,2.4898,0.0125,1.2601,-0.8623,-1.6922,0.3462,
4.482633,0.0985,0.9469,-0.1593,2.4898,0.0125,1.2601,-1.0717,-1.7289,0.2892,
4.498042,0.0985,0.9469,-0.1593,2.4898,0.0125,1.2601,-1.1681,-1.5638,0.1630,
4.518704,0.0894,1.0686,-0.1268,2.4898,0.0125,1.2601,-1.1681,-1.5638,0.1630,
4.520993,0.0894,1.0686,-0.1268,2.4720,1.0729,1.0543,-1.1681,-1.5638,0.1630,
4.523120,0.0894,1.0686,-0.1268,2.4720,1.0729,1.0543,-1.2602,-1.4450,-0.0202,
4.538861,0.0894,1.0686,-0.1268,2.4720,1.0729,1.0543,-1.4104,-1.4333,-0.1742,
4.558359,0.0963,1.1319,-0.0606,2.4720,1.0729,1.0543,-1.4104,-1.4333,-0.1742,
4.561104,0.0963,1.1319,-0.0606,2.6912,1.5931,1.1031,-1.4104,-1.4333,-0.1742,
4.562853,0.0963,1.1319,-0.0606,2.6912,1.5931,1.1031,-1.4578,-1.2384,-0.4192,
4.578883,0.0963,1.1319,-0.0606,2.6912,1.5931,1.1031,-1.4338,-1.0535,-0.8341,
4.598166,-0.0901,1.0288,0.0117,2.6912,1.5931,1.1031,-1.4338,-1.0535,-0.8341,
4.599797,-0.0901,1.0288,0.0117,1.1390,0.5444,1.1706,-1.4338,-1.0535,-0.8341,
4.601419,-0.0901,1.0288,0.0117,1.1390,0.5444,1.1706,-1.4046,-0.9492,-1.1856,
4.618534,-0.0901,1.0288,0.0117,1.1390,0.5444,1.1706,-1.4552,-0.5950,-1.2991,
4.638702,-0.4190,0.9093,0.0237,1.1390,0.5444,1.1706,-1.4552,-0.5950,-1.2991,
4.640775,-0.4190,0.9093,0.0237,-1.6169,-0.5642,0.6699,-1.4552,-0.5950,-1.2991,
4.642648,-0.4190,0.9093,0.0237,-1.6169,-0.5642,0.6699,-1.5579,-0.2040,-1.1745,
4.658234,-0.4190,0.9093,0.0237,-1.6169,-0.5642,0.6699,-1.6884,0.0969,-0.8565,
4.678491,-0.5008,0.7495,0.0916,-1.6169,-0.5642,0.6699,-1.6884,0.0969,-0.8565,
4.681679,-0.5008,0.7495,0.0916,-2.0286,-2.0272,0.7181,-1.6884,0.0969,-0.8565,
4.683539,-0.5008,0.7495,0.0916,-2.0286,-2.0272,0.7181,-1.7018,0.3670,-0.4724,
4.698948,-0.5008,0.7495,0.0916,-2.0286,-2.0272,0.7181,-1.5446,0.5268,-0.2152,
4.717674,-0.3342,0.5758,0.1524,-2.0286,-2.0272,0.7181,-1.5446,0.5268,-0.2152,
4.719998,-0.3342,0.5758,0.1524,-0.2587,-3.6593,0.7619,-1.5446,0.5268,-0.2152,
4.721740,-0.3342,0.5758,0.1524,-0.2587,-3.6593,0.7619,-1.2155,0.4330,-0.1337,
4.738282,-0.3342,0.5758,0.1524,-0.2587,-3.6593,0.7619,-0.7164,0.1129,-0.1087,
4.758440,-0.2778,0.6433,0.0833,-0.2587,-3.6593,0.7619,-0.7164,0.1129,-0.1087,
4.760964,-0.2778,0.6433,0.0833,0.3487,-2.9493,-0.2405,-0.7164,0.1129,-0.1087,
4.762763,-0.2778,0.6433,0.0833,0.3487,-2.9493,-0.2405,-0.1891,-0.1284,-0.0447,
4.778392,-0.2778,0.6433,0.0833,0.3487,-2.9493,-0.2405,0.1348,-0.2786,-0.0410,
4.798639,-0.2480,0.7735,-0.0186,0.3487,-2.9493,-0.2405,0.1348,-0.2786,-0.0410,
4.801051,-0.2480,0.7735,-0.0186,0.6478,-1.6668,-1.2739,0.1348,-0.2786,-0.0410,
4.802907,-0.2480,0.7735,-0.0186,0.6478,-1.6668,-1.2739,0.2498,-0.4176,0.0399,
4.818149,-0.2480,0.7735,-0.0186,0.6478,-1.6668,-1.2739,0.2392,-0.4096,0.1257,
4.838963,-0.2138,0.9679,-0.0308,0.6478,-1.6668,-1.2739,0.2392,-0.4096,0.1257,
4.841420,-0.2138,0.9679,-0.0308,0.9346,0.2184,-1.3538,0.2392,-0.4096,0.1257,
4.843140,-0.2138,0.9679,-0.0308,0.9346,0.2184,-1.3538,0.1736,-0.2844,0.1438,
4.857879,-0.2138,0.9679,-0.0308,0.9346,0.2184,-1.3538,0.1390,-0.1656,0.1449,
4.878492,-0.2734,1.2047,0.0239,0.9346,0.2184,-1.3538,0.1390,-0.1656,0.1449,
4.880742,-0.2734,1.2047,0.0239,-0.1914,2.3210,0.0903,0.1390,-0.1656,0.1449,
4.882375,-0.2734,1.2047,0.0239,-0.1914,2.3210,0.0903,0.1960,-0.0490,0.1481,
4.898734,-0.2734,1.2047,0.0239,-0.1914,2.3210,0.0903,0.3755,0.0554,0.1449,
4.917551,-0.3552,1.3972,0.1297,-0.1914,2.3210,0.0903,0.3755,0.0554,0.1449,
4.919726,-0.3552,1.3972,0.1297,-1.0490,4.1922,1.2356,0.3755,0.0554,0.1449,
4.921454,-0.3552,1.3972,0.1297,-1.0490,4.1922,1.2356,0.6653,-0.0820,0.1646,
4.937777,-0.3552,1.3972,0.1297,-1.0490,4.1922,1.2356,0.9151,-0.5912,0.1806,
4.957675,-0.4165,1.3852,0.1407,-1.0490,4.1922,1.2356,0.9151,-0.5912,0.1806,
4.959735,-0.4165,1.3852,0.1407,-1.7136,4.0616,1.6114,0.9151,-0.5912,0.1806,
4.961415,-0.4165,1.3852,0.1407,-1.7136,4.0616,1.6114,0.9854,-1.1180,0.2434,
4.977672,-0.4165,1.3852,0.1407,-1.7136,4.0616,1.6114,0.7931,-1.3726,0.3159,
4.997671,-0.1673,1.2860,0.1989,-1.7136,4.0616,1.6114,0.7931,-1.3726,0.3159,
4.999799,-0.1673,1.2860,0.1989,0.6402,3.0760,2.4036,0.7931,-1.3726,0.3159,
5.001396,-0.1673,1.2860,0.1989,0.6402,3.0760,2.4036,0.5747,-1.6432,0.4027,
5.016956,-0.1673,1.2860,0.1989,0.6402,3.0760,2.4036,0.4171,-1.7971,0.2791,
5.037663,0.0513,0.8973,0.2866,0.6402,3.0760,2.4036,0.4171,-1.7971,0.2791,
5.039354,0.0513,0.8973,0.2866,2.6862,-0.7540,3.2992,0.4171,-1.7971,0.2791,
5.040455,0.0513,0.8973,0.2866,2.6862,-0.7540,3.2992,0.3883,-1.7524,0.2306,
5.057596,0.0513,0.8973,0.2866,2.6862,-0.7540,3.2992,0.3995,-1.3492,0.3148,
5.078147,0.1967,0.8793,0.1598,2.6862,-0.7540,3.2992,0.3995,-1.3492,0.3148,
5.080293,0.1967,0.8793,0.1598,3.9908,-0.9594,2.0235,0.3995,-1.3492,0.3148,
5.081964,0.1967,0.8793,0.1598,3.9908,-0.9594,2.0235,0.4266,-0.5731,0.3744,
5.098518,0.1967,0.8793,0.1598,3.9908,-0.9594,2.0235,0.5065,0.5193,0.2509,
5.117542,-0.0298,1.1668,0.1075,3.9908,-0.9594,2.0235,0.5065,0.5193,0.2509,
5.119364,-0.0298,1.1668,0.1075,1.6437,1.8414,1.6787,0.5065,0.5193,0.2509,
5.120339,-0.0298,1.1668,0.1075,1.6437,1.8414,1.6787,0.8922,2.0096,0.0469,
5.136939,-0.0298,1.1668,0.1075,1.6437,1.8414,1.6787,1.8195,3.5202,-0.1838,
5.158180,-0.2827,1.0293,-0.0752,1.6437,1.8414,1.6787,1.8195,3.5202,-0.1838,
5.160201,-0.2827,1.0293,-0.0752,-0.9256,0.5469,0.5892,1.8195,3.5202,-0.1838,
5.161903,-0.2827,1.0293,-0.0752,-0.9256,0.5469,0.5892,2.3042,3.2954,-0.0410,
5.176998,-0.2827,1.0293,-0.0752,-0.9256,0.5469,0.5892,2.1321,2.1604,0.2913,
5.196987,-0.1300,0.8981,-0.1559,-0.9256,0.5469,0.5892,2.1321,2.1604,0.2913,
5.199276,-0.1300,0.8981,-0.1559,0.3145,-0.6038,0.7519,2.1321,2.1604,0.2913,
5.200672,-0.1300,0.8981,-0.1559,0.3145,-0.6038,0.7519,1.8615,1.1745,0.5944,
5.216578,-0.1300,0.8981,-0.1559,0.3145,-0.6038,0.7519,1.7327,0.7446,0.8932,
5.237234,0.0115,0.7505,-0.1603,0.3145,-0.6038,0.7519,1.7327,0.7446,0.8932,
5.239739,0.0115,0.7505,-0.1603,1.3236,-1.9013,1.4335,1.7327,0.7446,0.8932,
5.241397,0.0115,0.7505,-0.1603,1.3236,-1.9013,1.4335,1.7108,0.6860,0.9374,
5.257186,0.0115,0.7505,-0.1603,1.3236,-1.9013,1.4335,1.6655,0.6855,0.9481,
5.276992,0.0662,0.7300,-0.2668,1.3236,-1.9013,1.4335,1.6655,0.6855,0.9481,
5.279526,0.0662,0.7300,-0.2668,1.4235,-1.9154,1.0350,1.6655,0.6855,0.9481,
5.280904,0.0662,0.7300,-0.2668,1.4235,-1.9154,1.0350,1.5116,0.4799,0.9294,
5.297276,0.0662,0.7300,-0.2668,1.4235,-1.9154,1.0350,1.2240,0.2333,0.7814,
5.317149,0.0814,0.6853,-0.4107,1.4235,-1.9154,1.0350,1.2240,0.2333,0.7814,
5.319409,0.0814,0.6853,-0.4107,1.2104,-2.1607,0.1236,1.2240,0.2333,0.7814,
5.320850,0.0814,0.6853,-0.4107,1.2104,-2.1607,0.1236,0.7840,0.2125,0.5459,
5.336835,0.0814,0.6853,-0.4107,1.2104,-2.1607,0.1236,0.2988,0.4421,0.3334,
5.356430,0.0129,0.6315,-0.4004,1.2104,-2.1607,0.1236,0.2988,0.4421,0.3334,
5.358120,0.0129,0.6315,-0.4004,0.3289,-2.6012,0.4190,0.2988,0.4421,0.3334,
5.359049,0.0129,0.6315,-0.4004,0.3289,-2.6012,0.4190,-0.1704,0.6653,0.2312,
5.376348,0.0129,0.6315,-0.4004,0.3289,-2.6012,0.4190,-0.4554,0.7840,0.2205,
5.396786,0.1087,0.6105,-0.3433,0.3289,-2.6012,0.4190,-0.4554,0.7840,0.2205,
5.399383,0.1087,0.6105,-0.3433,1.0635,-2.8616,0.8719,-0.4554,0.7840,0.2205,
5.401043,0.1087,0.6105,-0.3433,1.0635,-2.8616,0.8719,-0.4948,0.7574,0.2514,
5.417454,0.1087,0.6105,-0.3433,1.0635,-2.8616,0.8719,-0.4623,0.1779,0.1758,
5.437849,0.2595,0.7126,-0.4427,1.0635,-2.8616,0.8719,-0.4623,0.1779,0.1758,
5.440097,0.2595,0.7126,-0.4427,2.3870,-1.9394,-0.2737,-0.4623,0.1779,0.1758,
5.441938,0.2595,0.7126,-0.4427,2.3870,-1.9394,-0.2737,-0.4021,-0.0708,-0.0096,
5.457587,0.2595,0.7126,-0.4427,2.3870,-1.9394,-0.2737,-0.3196,-0.0698,-0.1481,
5.477250,0.0093,1.0478,-0.6078,2.3870,-1.9394,-0.2737,-0.3196,-0.0698,-0.1481,
5.480224,0.0093,1.0478,-0.6078,-0.0468,1.2992,-1.9947,-0.3196,-0.0698,-0.1481,
5.482186,0.0093,1.0478,-0.6078,-0.0468,1.2992,-1.9947,-0.0692,-0.4107,-0.4176,
5.497295,0.0093,1.0478,-0.6078,-0.0468,1.2992,-1.9947,0.2248,-0.5545,-0.1273,
5.516508,0.0887,1.2970,-0.5922,-0.0468,1.2992,-1.9947,0.2248,-0.5545,-0.1273,
5.518665,0.0887,1.2970,-0.5922,0.9053,3.7529,-1.8129,0.2248,-0.5545,-0.1273,
5.520697,0.0887,1.2970,-0.5922,0.9053,3.7529,-1.8129,0.0756,-0.4181,0.1294,
5.536107,0.0887,1.2970,-0.5922,0.9053,3.7529,-1.8129,-0.5662,-1.1127,-0.2077,
5.556834,-0.1312,1.1834,-0.2072,0.9053,3.7529,-1.8129,-0.5662,-1.1127,-0.2077,
5.558885,-0.1312,1.1834,-0.2072,-1.1143,2.6013,1.8697,-0.5662,-1.1127,-0.2077,
5.560625,-0.1312,1.1834,-0.2072,-1.1143,2.6013,1.8697,-1.0157,-1.2810,0.1784,
5.576848,-0.1312,1.1834,-0.2072,-1.1143,2.6013,1.8697,-0.6296,-0.4884,0.7286,
5.596955,0.2599,1.2995,-0.2272,-1.1143,2.6013,1.8697,-0.6296,-0.4884,0.7286,
5.599083,0.2599,1.2995,-0.2272,2.6873,3.6119,1.3685,-0.6296,-0.4884,0.7286,
5.600644,0.2599,1.2995,-0.2272,2.6873,3.6119,1.3685,-0.7372,-1.5484,0.3228,
5.617663,0.2599,1.2995,-0.2272,2.6873,3.6119,1.3685,-1.0685,-1.9739,0.0522,
5.636125,0.1984,0.9420,-0.3450,2.6873,3.6119,1.3685,-1.0685,-1.9739,0.0522,
5.638093,0.1984,0.9420,-0.3450,2.2565,-0.0155,-0.1317,-1.0685,-1.9739,0.0522,
5.639301,0.1984,0.9420,-0.3450,2.2565,-0.0155,-0.1317,-1.4275,-1.7273,-0.1997,
5.656539,0.1984,0.9420,-0.3450,2.2565,-0.0155,-0.1317,-1.7119,-1.7076,-0.5955,
5.676685,0.1275,0.8915,-0.0806,2.2565,-0.0155,-0.1317,-1.7119,-1.7076,-0.5955,
5.680188,0.1275,0.8915,-0.0806,1.8605,-0.6944,1.8285,-1.7119,-1.7076,-0.5955,
5.682012,0.1275,0.8915,-0.0806,1.8605,-0.6944,1.8285,-1.7827,-1.6693,-1.0285,
5.695966,0.1275,0.8915,-0.0806,1.8605,-0.6944,1.8285,-1.7433,-1.6868,-1.4109,
5.716879,0.0042,1.0789,-0.0095,1.8605,-0.6944,1.8285,-1.7433,-1.6868,-1.4109,
5.719137,0.0042,1.0789,-0.0095,1.2215,1.0199,1.7823,-1.7433,-1.6868,-1.4109,
5.720746,0.0042,1.0789,-0.0095,1.2215,1.0199,1.7823,-1.8413,-1.9351,-1.6299,
5.736111,0.0042,1.0789,-0.0095,1.2215,1.0199,1.7823,-1.9425,-1.7779,-1.5963,
5.756455,-0.3313,1.1844,0.1068,1.2215,1.0199,1.7823,-1.9425,-1.7779,-1.5963,
5.759222,-0.3313,1.1844,0.1068,-1.3402,2.0437,2.0847,-1.9425,-1.7779,-1.5963,
5.761204,-0.3313,1.1844,0.1068,-1.3402,2.0437,2.0847,-1.9782,-1.1915,-1.5217,
5.776359,-0.3313,1.1844,0.1068,-1.3402,2.0437,2.0847,-2.0011,-0.5598,-1.1723,
5.796440,-0.6071,0.9144,0.3599,-1.3402,2.0437,2.0847,-2.0011,-0.5598,-1.1723,
5.799445,-0.6071,0.9144,0.3599,-3.5015,-0.5327,3.7180,-2.0011,-0.5598,-1.1723,
5.801602,-0.6071,0.9144,0.3599,-3.5015,-0.5327,3.7180,-1.7225,0.4085,-0.5369,
5.817302,-0.6071,0.9144,0.3599,-3.5015,-0.5327,3.7180,-1.1942,1.3273,-0.0160,
5.837004,-0.3249,0.5255,0.2663,-3.5015,-0.5327,3.7180,-1.1942,1.3273,-0.0160,
5.841015,-0.3249,0.5255,0.2663,-0.6268,-4.3134,2.3375,-1.1942,1.3273,-0.0160,
5.843081,-0.3249,0.5255,0.2663,-0.6268,-4.3134,2.3375,-0.7926,1.5627,0.0826,
5.856677,-0.3249,0.5255,0.2663,-0.6268,-4.3134,2.3375,-0.5880,1.4200,-0.0735,
5.877158,-0.3403,0.4835,0.1554,-0.6268,-4.3134,2.3375,-0.5880,1.4200,-0.0735,
5.879617,-0.3403,0.4835,0.1554,-0.7595,-4.7166,1.1420,-0.5880,1.4200,-0.0735,
5.881543,-0.3403,0.4835,0.1554,-0.7595,-4.7166,1.1420,-0.4597,0.9838,-0.1736,
5.896862,-0.3403,0.4835,0.1554,-0.7595,-4.7166,1.1420,-0.3324,0.1731,-0.1779,
5.916731,-0.2480,0.5988,0.1258,-0.7595,-4.7166,1.1420,-0.3324,0.1731,-0.1779,
5.918884,-0.2480,0.5988,0.1258,0.2212,-3.5616,0.7631,-0.3324,0.1731,-0.1779,
5.920725,-0.2480,0.5988,0.1258,0.2212,-3.5616,0.7631,-0.1278,-0.5252,-0.1470,
5.936754,-0.2480,0.5988,0.1258,0.2212,-3.5616,0.7631,0.1124,-0.9689,-0.1060,
5.956626,-0.1510,0.7632,0.0752,0.2212,-3.5616,0.7631,0.1124,-0.9689,-0.1060,
5.958987,-0.1510,0.7632,0.0752,1.2037,-1.9367,0.1848,0.1124,-0.9689,-0.1060,
5.960783,-0.1510,0.7632,0.0752,1.2037,-1.9367,0.1848,0.2929,-1.2171,-0.0282,
5.976057,-0.1510,0.7632,0.0752,1.2037,-1.9367,0.1848,0.3792,-1.0232,0.1119,
5.995374,-0.1595,0.9645,-0.0325,1.2037,-1.9367,0.1848,0.3792,-1.0232,0.1119,
5.996151,-0.1595,0.9645,-0.0325,1.0792,0.0242,-0.8640,0.3792,-1.0232,0.1119,
5.996555,-0.1595,0.9645,-0.0325,1.0792,0.0242,-0.8640,0.3089,-0.3931,0.2610,
6.015783,-0.1595,0.9645,-0.0325,1.0792,0.0242,-0.8640,0.0708,0.4506,0.3537,
6.036325,-0.3149,1.1275,0.0217,1.0792,0.0242,-0.8640,0.0708,0.4506,0.3537,
6.038417,-0.3149,1.1275,0.0217,-0.5592,1.5855,-0.2580,0.0708,0.4506,0.3537,
6.040280,-0.3149,1.1275,0.0217,-0.5592,1.5855,-0.2580,-0.1965,1.0578,0.3318,
6.056470,-0.3149,1.1275,0.0217,-0.5592,1.5855,-0.2580,-0.2977,1.2165,0.2674,
6.076005,-0.4957,1.3757,0.1945,-0.5592,1.5855,-0.2580,-0.2977,1.2165,0.2674,
6.079181,-0.4957,1.3757,0.1945,-2.4236,3.9928,1.4535,-0.2977,1.2165,0.2674,
6.080948,-0.4957,1.3757,0.1945,-2.4236,3.9928,1.4535,-0.1720,1.0567,0.2658,
6.096078,-0.4957,1.3757,0.1945,-2.4236,3.9928,1.4535,0.1987,0.6882,0.3132,
6.115765,-0.4801,1.5460,0.2761,-2.4236,3.9928,1.4535,0.1987,0.6882,0.3132,
6.118203,-0.4801,1.5460,0.2761,-2.3654,5.6339,2.3417,0.1987,0.6882,0.3132,
6.119553,-0.4801,1.5460,0.2761,-2.3654,5.6339,2.3417,0.7185,0.0932,0.3068,
6.136335,-0.4801,1.5460,0.2761,-2.3654,5.6339,2.3417,1.1041,-0.6019,0.2903,
6.155363,-0.4498,1.2701,0.0816,-2.3654,5.6339,2.3417,1.1041,-0.6019,0.2903,
6.157566,-0.4498,1.2701,0.0816,-2.1832,2.8965,0.7604,1.1041,-0.6019,0.2903,
6.158905,-0.4498,1.2701,0.0816,-2.1832,2.8965,0.7604,0.9886,-1.0578,0.2402,
6.175276,-0.4498,1.2701,0.0816,-2.1832,2.8965,0.7604,0.6695,-1.3284,0.1641,
6.195398,-0.1043,1.1661,0.2555,-2.1832,2.8965,0.7604,0.6695,-1.3284,0.1641,
6.197700,-0.1043,1.1661,0.2555,1.1293,1.8614,2.6776,0.6695,-1.3284,0.1641,
6.198994,-0.1043,1.1661,0.2555,1.1293,1.8614,2.6776,0.4389,-1.5931,0.0277,
6.216337,-0.1043,1.1661,0.2555,1.1293,1.8614,2.6776,0.4165,-1.8749,-0.1028,
6.236137,0.1781,0.9340,0.3266,1.1293,1.8614,2.6776,0.4165,-1.8749,-0.1028,
6.238308,0.1781,0.9340,0.3266,3.9242,-0.4067,3.3881,0.4165,-1.8749,-0.1028,
6.240075,0.1781,0.9340,0.3266,3.9242,-0.4067,3.3881,0.5119,-1.8802,-0.1475,
6.255998,0.1781,0.9340,0.3266,3.9242,-0.4067,3.3881,0.5593,-1.3811,-0.0623,
6.276090,0.3025,0.9616,0.0906,3.9242,-0.4067,3.3881,0.5593,-1.3811,-0.0623,
6.278401,0.3025,0.9616,0.0906,5.1672,-0.1297,1.1163,0.5593,-1.3811,-0.0623,
6.280115,0.3025,0.9616,0.0906,5.1672,-0.1297,1.1163,0.5177,-0.4064,0.0549,
6.296309,0.3025,0.9616,0.0906,5.1672,-0.1297,1.1163,0.3680,0.5902,0.0197,
6.315439,0.1112,1.0195,-0.0347,5.1672,-0.1297,1.1163,0.3680,0.5902,0.0197,
6.317548,0.1112,1.0195,-0.0347,3.2254,0.4275,0.0441,0.3680,0.5902,0.0197,
6.319074,0.1112,1.0195,-0.0347,3.2254,0.4275,0.0441,0.2083,1.4184,0.0485,
6.336077,0.1112,1.0195,-0.0347,3.2254,0.4275,0.0441,0.1955,1.7662,0.1326,
6.355750,-0.0303,0.9015,0.0252,3.2254,0.4275,0.0441,0.1955,1.7662,0.1326,
6.357837,-0.0303,0.9015,0.0252,1.7069,-0.7486,0.8091,0.1955,1.7662,0.1326,
6.359554,-0.0303,0.9015,0.0252,1.7069,-0.7486,0.8091,0.4820,1.7950,0.1390,
6.375446,-0.0303,0.9015,0.0252,1.7069,-0.7486,0.8091,0.9385,1.7193,0.1577,
6.395767,-0.1937,0.8104,-0.0322,1.7069,-0.7486,0.8091,0.9385,1.7193,0.1577,
6.398197,-0.1937,0.8104,-0.0322,-0.0072,-1.6322,0.6518,0.9385,1.7193,0.1577,
6.400040,-0.1937,0.8104,-0.0322,-0.0072,-1.6322,0.6518,1.4232,1.5052,0.1289,
6.416259,-0.1937,0.8104,-0.0322,-0.0072,-1.6322,0.6518,1.8094,1.1217,0.1593,
6.435554,-0.2389,0.7478,-0.0955,-0.0072,-1.6322,0.6518,1.8094,1.1217,0.1593,
6.438029,-0.2389,0.7478,-0.0955,-0.5724,-2.1697,0.7440,1.8094,1.1217,0.1593,
6.439892,-0.2389,0.7478,-0.0955,-0.5724,-2.1697,0.7440,2.0022,0.6061,0.2019,
6.455283,-0.2389,0.7478,-0.0955,-0.5724,-2.1697,0.7440,2.0229,0.1422,0.3004,
6.475813,-0.2206,0.6887,-0.1058,-0.5724,-2.1697,0.7440,2.0229,0.1422,0.3004,
6.478053,-0.2206,0.6887,-0.1058,-0.5165,-2.5992,1.4271,2.0229,0.1422,0.3004,
6.479923,-0.2206,0.6887,-0.1058,-0.5165,-2.5992,1.4271,1.8685,-0.1230,0.5449,
6.495774,-0.2206,0.6887,-0.1058,-0.5165,-2.5992,1.4271,1.5036,-0.3121,0.8549,
6.515091,-0.1893,0.7253,-0.1620,-0.5165,-2.5992,1.4271,1.5036,-0.3121,0.8549,
6.518250,-0.1893,0.7253,-0.1620,-0.4443,-2.0960,1.4880,1.5036,-0.3121,0.8549,
6.521796,-0.1893,0.7253,-0.1620,-0.4443,-2.0960,1.4880,1.0749,-0.1454,1.0173,
6.535300,-0.1893,0.7253,-0.1620,-0.4443,-2.0960,1.4880,0.8021,0.5880,1.0397,
6.555732,-0.0369,0.7102,-0.4485,-0.4443,-2.0960,1.4880,0.8021,0.5880,1.0397,
6.558035,-0.0369,0.7102,-0.4485,0.6429,-2.1729,-0.9674,0.8021,0.5880,1.0397,
6.559876,-0.0369,0.7102,-0.4485,0.6429,-2.1729,-0.9674,0.4991,1.3012,1.0482,
6.575980,-0.0369,0.7102,-0.4485,0.6429,-2.1729,-0.9674,-0.1960,1.0717,1.0115,
6.595493,0.2270,0.6100,-0.5988,0.6429,-2.1729,-0.9674,-0.1960,1.0717,1.0115,
6.597996,0.2270,0.6100,-0.5988,2.6871,-3.1637,-2.3496,-0.1960,1.0717,1.0115,
6.599903,0.2270,0.6100,-0.5988,2.6871,-3.1637,-2.3496,-0.7830,0.5667,0.8581,
6.614890,0.2270,0.6100,-0.5988,2.6871,-3.1637,-2.3496,-0.9023,0.2237,0.5955,
6.635534,0.1742,0.8790,-0.3005,2.6871,-3.1637,-2.3496,-0.9023,0.2237,0.5955,
6.637717,0.1742,0.8790,-0.3005,1.8492,-0.6497,0.2689,-0.9023,0.2237,0.5955,
6.639357,0.1742,0.8790,-0.3005,1.8492,-0.6497,0.2689,-0.6903,-0.0005,0.3249,
6.655340,0.1742,0.8790,-0.3005,1.8492,-0.6497,0.2689,-0.2349,-0.0687,-0.0927,
6.674801,0.0161,1.0378,-0.5607,1.8492,-0.6497,0.2689,-0.2349,-0.0687,-0.0927,
6.677105,0.0161,1.0378,-0.5607,0.2366,0.8647,-2.4020,-0.2349,-0.0687,-0.0927,
6.678175,0.0161,1.0378,-0.5607,0.2366,0.8647,-2.4020,0.1012,-0.4021,-0.5055,
6.695206,0.0161,1.0378,-0.5607,0.2366,0.8647,-2.4020,0.1699,-0.9209,-0.5278,
6.715265,-0.1681,1.4336,-0.5194,0.2366,0.8647,-2.4020,0.1699,-0.9209,-0.5278,
6.717414,-0.1681,1.4336,-0.5194,-1.2944,4.7644,-1.9533,0.1699,-0.9209,-0.5278,
6.719153,-0.1681,1.4336,-0.5194,-1.2944,4.7644,-1.9533,0.1539,-0.9268,-0.0826,
6.734469,-0.1681,1.4336,-0.5194,-1.2944,4.7644,-1.9533,0.1678,-0.7478,-0.0474,
6.755297,0.0110,1.1954,-0.4324,-1.2944,4.7644,-1.9533,0.1678,-0.7478,-0.0474,
6.757597,0.0110,1.1954,-0.4324,0.5902,2.4515,-1.0553,0.1678,-0.7478,-0.0474,
6.759184,0.0110,1.1954,-0.4324,0.5902,2.4515,-1.0553,-0.5598,-2.1071,-0.2168,
6.774911,0.0110,1.1954,-0.4324,0.5902,2.4515,-1.0553,-1.6064,-3.2341,0.6392,
6.795576,0.4021,1.0552,-0.2780,0.5902,2.4515,-1.0553,-1.6064,-3.2341,0.6392,
6.798047,0.4021,1.0552,-0.2780,4.6617,0.9436,-0.0140,-1.6064,-3.2341,0.6392,
6.799661,0.4021,1.0552,-0.2780,4.6617,0.9436,-0.0140,-1.3848,-1.6623,0.5827,
6.814713,0.4021,1.0552,-0.2780,4.6617,0.9436,-0.0140,-1.6203,-2.1193,-0.0069,
6.835783,0.3779,0.9833,-0.0271,4.6617,0.9436,-0.0140,-1.6203,-2.1193,-0.0069,
6.837946,0.3779,0.9833,-0.0271,4.4969,0.0875,1.8210,-1.6203,-2.1193,-0.0069,
6.839493,0.3779,0.9833,-0.0271,4.4969,0.0875,1.8210,-1.6666,-2.6435,-0.4005,
6.854728,0.3779,0.9833,-0.0271,4.4969,0.0875,1.8210,-1.6837,-2.9726,-0.8309,
6.875416,0.3494,1.0622,0.0816,4.4969,0.0875,1.8210,-1.6837,-2.9726,-0.8309,
6.878468,0.3494,1.0622,0.0816,4.6443,0.7713,2.1324,-1.6837,-2.9726,-0.8309,
6.880240,0.3494,1.0622,0.0816,4.6443,0.7713,2.1324,-1.7731,-3.0520,-1.2565,
6.894538,0.3494,1.0622,0.0816,4.6443,0.7713,2.1324,-1.8557,-2.6237,-1.6837,
6.915555,-0.0752,1.0207,0.3792,4.6443,0.7713,2.1324,-1.8557,-2.6237,-1.6837,
6.917669,-0.0752,1.0207,0.3792,1.1158,0.3832,4.1591,-1.8557,-2.6237,-1.6837,
6.919236,-0.0752,1.0207,0.3792,1.1158,0.3832,4.1591,-1.7422,-2.1598,-1.7540,
6.935042,-0.0752,1.0207,0.3792,1.1158,0.3832,4.1591,-1.2927,-1.3726,-1.2490,
6.955539,-0.3882,1.1040,0.5986,1.1158,0.3832,4.1591,-1.2927,-1.3726,-1.2490,
6.957778,-0.3882,1.1040,0.5986,-1.3713,1.3237,5.5786,-1.2927,-1.3726,-1.2490,
6.959487,-0.3882,1.1040,0.5986,-1.3713,1.3237,5.5786,-0.5454,-0.2083,-0.7132,
6.974819,-0.3882,1.1040,0.5986,-1.3713,1.3237,5.5786,0.1092,0.6780,-0.4991,
6.995711,-0.2692,0.8504,0.2404,-1.3713,1.3237,5.5786,0.1092,0.6780,-0.4991,
6.998022,-0.2692,0.8504,0.2404,0.0014,-1.1017,1.9484,0.1092,0.6780,-0.4991,
6.999712,-0.2692,0.8504,0.2404,0.0014,-1.1017,1.9484,0.3771,0.8852,-0.5523,
7.016919,-0.2692,0.8504,0.2404,0.0014,-1.1017,1.9484,0.2328,0.6083,-0.6008,
7.035491,-0.3467,0.6103,0.0462,0.0014,-1.1017,1.9484,0.2328,0.6083,-0.6008,
7.039197,-0.3467,0.6103,0.0462,-0.5317,-3.3955,0.2414,0.2328,0.6083,-0.6008,
7.041815,-0.3467,0.6103,0.0462,-0.5317,-3.3955,0.2414,-0.0698,0.1997,-0.5768,
7.054657,-0.3467,0.6103,0.0462,-0.5317,-3.3955,0.2414,-0.3372,-0.1699,-0.5225,
7.075413,-0.3709,0.5282,-0.0242,-0.5317,-3.3955,0.2414,-0.3372,-0.1699,-0.5225,
7.077781,-0.3709,0.5282,-0.0242,-0.5636,-4.1328,-0.5227,-0.3372,-0.1699,-0.5225,
7.079759,-0.3709,0.5282,-0.0242,-0.5636,-4.1328,-0.5227,-0.5907,-0.3116,-0.4831,
7.095471,-0.3709,0.5282,-0.0242,-0.5636,-4.1328,-0.5227,-0.8101,-0.4069,-0.4293,
7.115698,-0.3452,0.5986,0.0537,-0.5636,-4.1328,-0.5227,-0.8101,-0.4069,-0.4293,
7.121152,-0.3452,0.5986,0.0537,-0.1495,-3.3736,-0.0637,-0.8101,-0.4069,-0.4293,
7.122964,-0.3452,0.5986,0.0537,-0.1495,-3.3736,-0.0637,-0.8432,-0.3760,-0.3340,
7.135109,-0.3452,0.5986,0.0537,-0.1495,-3.3736,-0.0637,-0.5731,-0.5198,-0.3127,
7.155231,-0.1415,0.7466,0.1082,-0.1495,-3.3736,-0.0637,-0.5731,-0.5198,-0.3127,
7.159305,-0.1415,0.7466,0.1082,1.9524,-1.8592,0.1507,-0.5731,-0.5198,-0.3127,
7.161350,-0.1415,0.7466,0.1082,1.9524,-1.8592,0.1507,-0.2061,-1.0472,-0.1699,
7.174541,-0.1415,0.7466,0.1082,1.9524,-1.8592,0.1507,0.2237,-1.3049,0.0826,
7.195077,-0.1524,0.8600,-0.0208,1.9524,-1.8592,0.1507,0.2237,-1.3049,0.0826,
7.198145,-0.1524,0.8600,-0.0208,1.8133,-0.7431,-1.2668,0.2237,-1.3049,0.0826,
7.200201,-0.1524,0.8600,-0.0208,1.8133,-0.7431,-1.2668,0.4613,-1.1366,0.2642,
7.216490,-0.1524,0.8600,-0.0208,1.8133,-0.7431,-1.2668,0.3830,-0.5390,0.4037,
7.234342,-0.3159,0.9396,-0.0144,1.8133,-0.7431,-1.2668,0.3830,-0.5390,0.4037,
7.237346,-0.3159,0.9396,-0.0144,0.0537,-0.0233,-1.1581,0.3830,-0.5390,0.4037,
7.238988,-0.3159,0.9396,-0.0144,0.0537,-0.0233,-1.1581,0.0708,0.0538,0.4479,
7.254450,-0.3159,0.9396,-0.0144,0.0537,-0.0233,-1.1581,-0.2684,0.4458,0.3792,
7.274764,-0.4493,0.9611,0.1424,0.0537,-0.0233,-1.1581,-0.2684,0.4458,0.3792,
7.277232,-0.4493,0.9611,0.1424,-1.3864,0.1432,0.3791,-0.2684,0.4458,0.3792,
7.278863,-0.4493,0.9611,0.1424,-1.3864,0.1432,0.3791,-0.4799,0.5209,0.3047,
7.294430,-0.4493,0.9611,0.1424,-1.3864,0.1432,0.3791,-0.4900,0.1779,0.3329,
7.314905,-0.4016,0.9606,0.1014,-1.3864,0.1432,0.3791,-0.4900,0.1779,0.3329,
7.317169,-0.4016,0.9606,0.1014,-0.9970,0.1282,-0.1494,-0.4900,0.1779,0.3329,
7.318982,-0.4016,0.9606,0.1014,-0.9970,0.1282,-0.1494,-0.3244,-0.2929,0.3744,
7.333889,-0.4016,0.9606,0.1014,-0.9970,0.1282,-0.1494,-0.1273,-0.4559,0.3409,
7.354076,-0.3853,1.0591,-0.0293,-0.9970,0.1282,-0.1494,-0.1273,-0.4559,0.3409,
7.356581,-0.3853,1.0591,-0.0293,-0.9730,1.0648,-1.5379,-0.1273,-0.4559,0.3409,
7.358118,-0.3853,1.0591,-0.0293,-0.9730,1.0648,-1.5379,0.0352,-0.3771,0.2732,
7.373937,-0.3853,1.0591,-0.0293,-0.9730,1.0648,-1.5379,0.1310,-0.4362,0.2466,
7.394682,-0.4026,1.1795,0.0222,-0.9730,1.0648,-1.5379,0.1310,-0.4362,0.2466,
7.398242,-0.4026,1.1795,0.0222,-1.2604,2.2125,-1.0463,0.1310,-0.4362,0.2466,
7.400691,-0.4026,1.1795,0.0222,-1.2604,2.2125,-1.0463,0.1822,-0.8096,0.2786,
7.413763,-0.4026,1.1795,0.0222,-1.2604,2.2125,-1.0463,0.2738,-1.1191,0.3196,
7.434961,-0.4041,1.3662,0.1546,-1.2604,2.2125,-1.0463,0.2738,-1.1191,0.3196,
7.437397,-0.4041,1.3662,0.1546,-1.4357,3.9989,0.2364,0.2738,-1.1191,0.3196,
7.439140,-0.4041,1.3662,0.1546,-1.4357,3.9989,0.2364,0.4085,-1.2922,0.3595,
7.454195,-0.4041,1.3662,0.1546,-1.4357,3.9989,0.2364,0.5332,-1.6091,0.3957,
7.474816,-0.3596,1.5162,0.2106,-1.4357,3.9989,0.2364,0.5332,-1.6091,0.3957,
7.478719,-0.3596,1.5162,0.2106,-1.2152,5.4087,0.8220,0.5332,-1.6091,0.3957,
7.480652,-0.3596,1.5162,0.2106,-1.2152,5.4087,0.8220,0.6487,-1.9319,0.5135,
7.494443,-0.3596,1.5162,0.2106,-1.2152,5.4087,0.8220,0.6093,-1.4749,0.6045,
7.513798,-0.3503,1.3459,0.0943,-1.2152,5.4087,0.8220,0.6093,-1.4749,0.6045,
7.515967,-0.3503,1.3459,0.0943,-1.4181,3.6616,-0.2271,0.6093,-1.4749,0.6045,
7.518300,-0.3503,1.3459,0.0943,-1.4181,3.6616,-0.2271,0.1747,-0.4288,0.4836,
7.533899,-0.3503,1.3459,0.0943,-1.4181,3.6616,-0.2271,-0.1768,-0.1955,0.3334,
7.554163,-0.1092,1.0180,0.3051,-1.4181,3.6616,-0.2271,-0.1768,-0.1955,0.3334,
7.556466,-0.1092,1.0180,0.3051,0.7749,0.4172,1.8145,-0.1768,-0.1955,0.3334,
7.558056,-0.1092,1.0180,0.3051,0.7749,0.4172,1.8145,-0.0197,-0.9236,0.1577,
7.574348,-0.1092,1.0180,0.3051,0.7749,0.4172,1.8145,0.2690,-1.6517,-0.0644,
7.594251,0.1073,0.8473,0.3283,0.7749,0.4172,1.8145,0.2690,-1.6517,-0.0644,
7.598026,0.1073,0.8473,0.3283,2.8105,-1.2660,1.9899,0.2690,-1.6517,-0.0644,
7.600060,0.1073,0.8473,0.3283,2.8105,-1.2660,1.9899,0.5204,-2.0906,-0.2386,
7.615256,0.1073,0.8473,0.3283,2.8105,-1.2660,1.9899,0.5859,-2.0629,-0.3004,
7.633808,0.2853,1.0559,0.2497,2.8105,-1.2660,1.9899,0.5859,-2.0629,-0.3004,
7.636686,0.2853,1.0559,0.2497,4.5452,0.7694,1.2774,0.5859,-2.0629,-0.3004,
7.638479,0.2853,1.0559,0.2497,4.5452,0.7694,1.2774,0.4948,-1.4056,-0.2519,
7.654623,0.2853,1.0559,0.2497,4.5452,0.7694,1.2774,0.4762,-0.2844,-0.2360,
7.673762,0.3359,1.0881,0.1649,4.5452,0.7694,1.2774,0.4762,-0.2844,-0.2360,
7.675936,0.3359,1.0881,0.1649,5.0958,1.0810,0.5729,0.4762,-0.2844,-0.2360,
7.677530,0.3359,1.0881,0.1649,5.0958,1.0810,0.5729,0.5742,0.7100,-0.3127,
7.694580,0.3359,1.0881,0.1649,5.0958,1.0810,0.5729,0.6610,1.1436,-0.3164,
7.714213,0.1576,0.9064,0.0726,5.0958,1.0810,0.5729,0.6610,1.1436,-0.3164,
7.716124,0.1576,0.9064,0.0726,3.4309,-0.7115,-0.0417,0.6610,1.1436,-0.3164,
7.717884,0.1576,0.9064,0.0726,3.4309,-0.7115,-0.0417,0.7622,1.2219,-0.2125,
7.733833,0.1576,0.9064,0.0726,3.4309,-0.7115,-0.0417,0.9891,1.2219,-0.0932,
7.753831,0.0672,0.8353,0.0335,3.4309,-0.7115,-0.0417,0.9891,1.2219,-0.0932,
7.756610,0.0672,0.8353,0.0335,2.5923,-1.4226,-0.0037,0.9891,1.2219,-0.0932,
7.758276,0.0672,0.8353,0.0335,2.5923,-1.4226,-0.0037,1.2874,1.1036,-0.0128,
7.773872,0.0672,0.8353,0.0335,2.5923,-1.4226,-0.0037,1.6842,1.1537,-0.1039,
7.794328,-0.1984,0.9201,-0.0552,2.5923,-1.4226,-0.0037,1.6842,1.1537,-0.1039,
7.796711,-0.1984,0.9201,-0.0552,-0.0048,-0.5911,-0.2218,1.6842,1.1537,-0.1039,
7.798653,-0.1984,0.9201,-0.0552,-0.0048,-0.5911,-0.2218,2.2307,1.6048,-0.4453,
7.815299,-0.1984,0.9201,-0.0552,-0.0048,-0.5911,-0.2218,2.4954,1.5883,-0.4570,
7.835579,-0.2599,0.7740,-0.1842,-0.0048,-0.5911,-0.2218,2.4954,1.5883,-0.4570,
7.839438,-0.2599,0.7740,-0.1842,-0.4882,-1.9078,-0.4562,2.4954,1.5883,-0.4570,
7.841911,-0.2599,0.7740,-0.1842,-0.4882,-1.9078,-0.4562,2.3686,0.9619,-0.1529,
7.853556,-0.2599,0.7740,-0.1842,-0.4882,-1.9078,-0.4562,2.1007,0.5971,0.1507,
7.874074,-0.1346,0.6428,-0.2262,-0.4882,-1.9078,-0.4562,2.1007,0.5971,0.1507,
7.876604,-0.1346,0.6428,-0.2262,0.6857,-3.0322,0.0362,2.1007,0.5971,0.1507,
7.878320,-0.1346,0.6428,-0.2262,0.6857,-3.0322,0.0362,1.8184,0.6669,0.3494,
7.894692,-0.1346,0.6428,-0.2262,0.6857,-3.0322,0.0362,1.4307,0.7324,0.3553,
7.913842,-0.1908,0.7566,-0.2822,0.6857,-3.0322,0.0362,1.4307,0.7324,0.3553,
7.916792,-0.1908,0.7566,-0.2822,-0.0681,-1.7759,0.1423,1.4307,0.7324,0.3553,
7.919087,-0.1908,0.7566,-0.2822,-0.0681,-1.7759,0.1423,0.9646,0.7329,0.3249,
7.933591,-0.1908,0.7566,-0.2822,-0.0681,-1.7759,0.1423,0.5832,0.9481,0.3947,
7.953393,-0.0616,0.5614,-0.4876,-0.0681,-1.7759,0.1423,0.5832,0.9481,0.3947,
7.956780,-0.0616,0.5614,-0.4876,0.9627,-3.6181,-1.5318,0.5832,0.9481,0.3947,
7.958891,-0.0616,0.5614,-0.4876,0.9627,-3.6181,-1.5318,0.1342,0.8975,0.4155,
7.973879,-0.0616,0.5614,-0.4876,0.9627,-3.6181,-1.5318,-0.4586,0.6940,0.4959,
7.992861,0.0078,0.5883,-0.4539,0.9627,-3.6181,-1.5318,-0.4586,0.6940,0.4959,
7.995167,0.0078,0.5883,-0.4539,1.3724,-3.4019,-1.2150,-0.4586,0.6940,0.4959,
7.996994,0.0078,0.5883,-0.4539,1.3724,-3.4019,-1.2150,-0.6535,0.5822,0.5667,
8.014493,0.0078,0.5883,-0.4539,1.3724,-3.4019,-1.2150,-0.6029,0.3750,0.5710,
8.033355,0.0511,0.8204,-0.3557,1.3724,-3.4019,-1.2150,-0.6029,0.3750,0.5710,
8.036514,0.0511,0.8204,-0.3557,1.5267,-1.2323,-0.4615,-0.6029,0.3750,0.5710,
8.039014,0.0511,0.8204,-0.3557,1.5267,-1.2323,-0.4615,-0.3973,0.0607,0.3707,
8.053459,0.0511,0.8204,-0.3557,1.5267,-1.2323,-0.4615,-0.1827,-0.0213,0.1204,
8.074385,0.0960,0.9083,-0.5194,1.5267,-1.2323,-0.4615,-0.1827,-0.0213,0.1204,
8.076748,0.0960,0.9083,-0.5194,1.8692,-0.4128,-2.1659,-0.1827,-0.0213,0.1204,
8.078542,0.0960,0.9083,-0.5194,1.8692,-0.4128,-2.1659,-0.0687,0.0613,-0.0820,
8.093549,0.0960,0.9083,-0.5194,1.8692,-0.4128,-2.1659,-0.1140,0.1294,-0.2919,
8.113619,-0.1063,0.9560,-0.5705,1.8692,-0.4128,-2.1659,-0.1140,0.1294,-0.2919,
8.117012,-0.1063,0.9560,-0.5705,-0.0819,0.0725,-2.6184,-0.1140,0.1294,-0.2919,
8.119447,-0.1063,0.9560,-0.5705,-0.0819,0.0725,-2.6184,-0.2253,0.0842,-0.3957,
8.133532,-0.1063,0.9560,-0.5705,-0.0819,0.0725,-2.6184,-0.3228,0.1529,-0.5310,
8.153459,-0.2296,1.2638,-0.5665,-0.0819,0.0725,-2.6184,-0.3228,0.1529,-0.5310,
8.156397,-0.2296,1.2638,-0.5665,-1.1326,3.0764,-2.6770,-0.3228,0.1529,-0.5310,
8.158095,-0.2296,1.2638,-0.5665,-1.1326,3.0764,-2.6770,-0.2418,0.3952,-0.5976,
8.172697,-0.2296,1.2638,-0.5665,-1.1326,3.0764,-2.6770,0.1209,0.4938,-0.5108,
8.193428,-0.2411,1.6740,-0.5487,-1.1326,3.0764,-2.6770,0.1209,0.4938,-0.5108,
8.196532,-0.2411,1.6740,-0.5487,-1.0899,7.1159,-2.5033,0.1209,0.4938,-0.5108,
8.198051,-0.2411,1.6740,-0.5487,-1.0899,7.1159,-2.5033,0.0719,-0.0298,0.0421,
8.212844,-0.2411,1.6740,-0.5487,-1.0899,7.1159,-2.5033,-0.5939,-0.8203,0.3542,
8.233360,0.0999,0.7715,-0.1920,-1.0899,7.1159,-2.5033,-0.5939,-0.8203,0.3542,
8.235784,0.0999,0.7715,-0.1920,2.2267,-1.7676,0.8737,-0.5939,-0.8203,0.3542,
8.237479,0.0999,0.7715,-0.1920,2.2267,-1.7676,0.8737,-0.9428,-1.3044,1.1952,
8.252908,0.0999,0.7715,-0.1920,2.2267,-1.7676,0.8737,-0.8075,-1.5329,2.0890,
8.273623,0.4278,0.8793,-0.0694,2.2267,-1.7676,0.8737,-0.8075,-1.5329,2.0890,
8.275797,0.4278,0.8793,-0.0694,4.9086,-0.8723,1.6896,-0.8075,-1.5329,2.0890,
8.277562,0.4278,0.8793,-0.0694,4.9086,-0.8723,1.6896,-0.6898,-1.8493,2.0336,
8.293136,0.4278,0.8793,-0.0694,4.9086,-0.8723,1.6896,-0.7728,-2.4016,1.5079,
8.313147,0.7862,1.3803,-0.1397,4.9086,-0.8723,1.6896,-0.7728,-2.4016,1.5079,
8.315288,0.7862,1.3803,-0.1397,7.9335,3.9409,0.6850,-0.7728,-2.4016,1.5079,
8.316981,0.7862,1.3803,-0.1397,7.9335,3.9409,0.6850,-1.2128,-3.3082,0.8426,
8.333104,0.7862,1.3803,-0.1397,7.9335,3.9409,0.6850,-1.9372,-3.9889,0.3878,
8.353141,0.4964,1.1087,0.0342,7.9335,3.9409,0.6850,-1.9372,-3.9889,0.3878,
8.355221,0.4964,1.1087,0.0342,5.1134,1.1642,1.7509,-1.9372,-3.9889,0.3878,
8.356870,0.4964,1.1087,0.0342,5.1134,1.1642,1.7509,-2.5391,-3.5857,0.0932,
8.373206,0.4964,1.1087,0.0342,5.1134,1.1642,1.7509,-3.0488,-2.5481,-0.3510,
8.394029,0.3367,0.9306,0.3457,5.1134,1.1642,1.7509,-3.0488,-2.5481,-0.3510,
8.397868,0.3367,0.9306,0.3457,3.7114,-0.6742,3.6761,-3.0488,-2.5481,-0.3510,
8.399886,0.3367,0.9306,0.3457,3.7114,-0.6742,3.6761,-3.3668,-1.7097,-0.7318,
8.414242,0.3367,0.9306,0.3457,3.7114,-0.6742,3.6761,-2.9087,-1.1148,-0.8511,
8.433130,0.0955,0.9096,0.8780,3.7114,-0.6742,3.6761,-2.9087,-1.1148,-0.8511,
8.435101,0.0955,0.9096,0.8780,1.6406,-0.8198,7.6375,-2.9087,-1.1148,-0.8511,
8.436976,0.0955,0.9096,0.8780,1.6406,-0.8198,7.6375,-1.8887,-0.3633,-0.9619,
8.453034,0.0955,0.9096,0.8780,1.6406,-0.8198,7.6375,-0.7452,0.1630,-1.1185,
8.472883,0.0657,0.9052,0.5218,1.6406,-0.8198,7.6375,-0.7452,0.1630,-1.1185,
8.476907,0.0657,0.9052,0.5218,1.7320,-0.7602,3.6184,-0.7452,0.1630,-1.1185,
8.478785,0.0657,0.9052,0.5218,1.7320,-0.7602,3.6184,-0.0543,0.3404,-1.4536,
8.492903,0.0657,0.9052,0.5218,1.7320,-0.7602,3.6184,-0.0208,0.1348,-1.7433,
8.513204,0.0198,0.6645,0.1605,1.7320,-0.7602,3.6184,-0.0208,0.1348,-1.7433,
8.515239,0.0198,0.6645,0.1605,1.9073,-3.0266,0.0748,-0.0208,0.1348,-1.7433,
8.517514,0.0198,0.6645,0.1605,1.9073,-3.0266,0.0748,-0.3521,-0.3276,-2.1396,
8.532077,0.0198,0.6645,0.1605,1.9073,-3.0266,0.0748,-0.6045,-0.8234,-2.4416,
8.553408,-0.4117,0.7876,0.1913,1.9073,-3.0266,0.0748,-0.6045,-0.8234,-2.4416,
8.556741,-0.4117,0.7876,0.1913,-1.4950,-1.5942,0.1457,-0.6045,-0.8234,-2.4416,
8.558992,-0.4117,0.7876,0.1913,-1.4950,-1.5942,0.1457,-0.5667,-1.0754,-2.2014,
8.572320,-0.4117,0.7876,0.1913,-1.4950,-1.5942,0.1457,-0.2051,-0.7409,-1.5414,
8.593406,-0.5722,0.7261,0.0293,-1.4950,-1.5942,0.1457,-0.2051,-0.7409,-1.5414,
8.595672,-0.5722,0.7261,0.0293,-2.4483,-1.9560,-1.6870,-0.2051,-0.7409,-1.5414,
8.597745,-0.5722,0.7261,0.0293,-2.4483,-1.9560,-1.6870,0.1332,-0.0107,-0.8309,
8.613843,-0.5722,0.7261,0.0293,-2.4483,-1.9560,-1.6870,0.2977,0.3792,-0.2386,
8.633819,-0.2900,0.6222,-0.0391,-2.4483,-1.9560,-1.6870,0.2977,0.3792,-0.2386,
8.636345,-0.2900,0.6222,-0.0391,0.5241,-2.9206,-2.2551,0.2977,0.3792,-0.2386,
8.638142,-0.2900,0.6222,-0.0391,0.5241,-2.9206,-2.2551,0.2993,-0.0234,-0.0016,
8.652268,-0.2900,0.6222,-0.0391,0.5241,-2.9206,-2.2551,0.1992,-0.5534,0.0016,
8.672462,-0.3327,0.7820,-0.0430,0.5241,-2.9206,-2.2551,0.1992,-0.5534,0.0016,
8.675692,-0.3327,0.7820,-0.0430,0.0841,-1.3731,-2.2421,0.1992,-0.5534,0.0016,
8.677822,-0.3327,0.7820,-0.0430,0.0841,-1.3731,-2.2421,0.0634,-0.7515,0.1017,
8.692448,-0.3327,0.7820,-0.0430,0.0841,-1.3731,-2.2421,-0.0069,-0.7068,0.2439,
8.712734,-0.3533,1.0857,0.1263,0.0841,-1.3731,-2.2421,-0.0069,-0.7068,0.2439,
8.715659,-0.3533,1.0857,0.1263,-0.2294,1.5748,-0.6450,-0.0069,-0.7068,0.2439,
8.717652,-0.3533,1.0857,0.1263,-0.2294,1.5748,-0.6450,0.0245,-0.6722,0.3419,
8.732224,-0.3533,1.0857,0.1263,-0.2294,1.5748,-0.6450,0.1625,-0.6498,0.3542,
8.752385,-0.2612,1.3972,0.2890,-0.2294,1.5748,-0.6450,0.1625,-0.6498,0.3542,
8.754542,-0.2612,1.3972,0.2890,0.4963,4.5765,0.9005,0.1625,-0.6498,0.3542,
8.756189,-0.2612,1.3972,0.2890,0.4963,4.5765,0.9005,0.5507,-0.7377,0.2615,
8.771945,-0.2612,1.3972,0.2890,0.4963,4.5765,0.9005,1.0637,-0.9859,0.1859,
8.792800,-0.3476,1.5482,0.2223,0.4963,4.5765,0.9005,1.0637,-0.9859,0.1859,
8.794960,-0.3476,1.5482,0.2223,-0.4967,5.9700,0.4399,1.0637,-0.9859,0.1859,
8.796755,-0.3476,1.5482,0.2223,-0.4967,5.9700,0.4399,1.3609,-1.3982,0.2258,
8.813532,-0.3476,1.5482,0.2223,-0.4967,5.9700,0.4399,1.1862,-1.6778,0.3963,
8.831920,-0.3188,1.3422,0.1395,-0.4967,5.9700,0.4399,1.1862,-1.6778,0.3963,
8.834069,-0.3188,1.3422,0.1395,-0.4257,3.8364,-0.0735,1.1862,-1.6778,0.3963,
8.835280,-0.3188,1.3422,0.1395,-0.4257,3.8364,-0.0735,0.6392,-1.6176,0.4874,
8.851799,-0.3188,1.3422,0.1395,-0.4257,3.8364,-0.0735,0.3404,-1.7332,0.5475,
8.872134,-0.0083,1.0618,0.3569,-0.4257,3.8364,-0.0735,0.3404,-1.7332,0.5475,
8.874463,-0.0083,1.0618,0.3569,2.3288,1.0073,2.0693,0.3404,-1.7332,0.5475,
8.876059,-0.0083,1.0618,0.3569,2.3288,1.0073,2.0693,0.4096,-1.7396,0.4458,
8.893006,-0.0083,1.0618,0.3569,2.3288,1.0073,2.0693,0.5065,-1.7044,0.2812,
8.912677,0.1622,0.8458,0.3450,2.3288,1.0073,2.0693,0.5065,-1.7044,0.2812,
8.914760,0.1622,0.8458,0.3450,3.7584,-1.1695,1.9629,0.5065,-1.7044,0.2812,
8.916580,0.1622,0.8458,0.3450,3.7584,-1.1695,1.9629,0.5305,-1.5750,0.1651,
8.932118,0.1622,0.8458,0.3450,3.7584,-1.1695,1.9629,0.5268,-1.2565,0.0831,
8.952797,0.2174,1.0019,0.2140,3.7584,-1.1695,1.9629,0.5268,-1.2565,0.0831,
8.955056,0.2174,1.0019,0.2140,4.1426,0.3159,0.7476,0.5268,-1.2565,0.0831,
8.956650,0.2174,1.0019,0.2140,4.1426,0.3159,0.7476,0.5119,-0.7350,-0.0144,
8.972255,0.2174,1.0019,0.2140,4.1426,0.3159,0.7476,0.5454,0.0479,-0.0852,
8.992100,0.0100,1.0608,0.1009,4.1426,0.3159,0.7476,0.5454,0.0479,-0.0852,
8.994798,0.0100,1.0608,0.1009,2.0750,0.8637,-0.1968,0.5454,0.0479,-0.0852,
8.996851,0.0100,1.0608,0.1009,2.0750,0.8637,-0.1968,0.7430,0.9763,-0.0293,
9.015793,0.0100,1.0608,0.1009,2.0750,0.8637,-0.1968,1.1073,1.6485,-0.0250,
9.032522,-0.2169,0.9567,0.1031,2.0750,0.8637,-0.1968,1.1073,1.6485,-0.0250,
9.034786,-0.2169,0.9567,0.1031,-0.1333,-0.1969,0.2586,1.1073,1.6485,-0.0250,
9.036784,-0.2169,0.9567,0.1031,-0.1333,-0.1969,0.2586,1.6773,2.0549,-0.3238,
9.051630,-0.2169,0.9567,0.1031,-0.1333,-0.1969,0.2586,2.1082,1.8988,-0.2807,
9.072367,-0.2414,0.7356,0.0012,-0.1333,-0.1969,0.2586,2.1082,1.8988,-0.2807,
9.075494,-0.2414,0.7356,0.0012,-0.2316,-2.3618,0.1455,2.1082,1.8988,-0.2807,
9.077264,-0.2414,0.7356,0.0012,-0.2316,-2.3618,0.1455,2.1545,1.1393,0.2471,
9.092213,-0.2414,0.7356,0.0012,-0.2316,-2.3618,0.1455,2.1151,0.4969,0.7313,
9.111509,-0.1395,0.7784,-0.0870,-0.2316,-2.3618,0.1455,2.1151,0.4969,0.7313,
9.113860,-0.1395,0.7784,-0.0870,0.5635,-1.9329,0.1647,2.1151,0.4969,0.7313,
9.115387,-0.1395,0.7784,-0.0870,0.5635,-1.9329,0.1647,2.0347,0.1385,1.0120,
9.131461,-0.1395,0.7784,-0.0870,0.5635,-1.9329,0.1647,1.9217,0.1150,1.2506,
9.152139,-0.1444,0.7522,-0.2499,0.5635,-1.9329,0.1647,1.9217,0.1150,1.2506,
9.154400,-0.1444,0.7522,-0.2499,0.0772,-2.1558,-0.6691,1.9217,0.1150,1.2506,
9.156261,-0.1444,0.7522,-0.2499,0.0772,-2.1558,-0.6691,1.6320,0.2040,1.3465,
9.171709,-0.1444,0.7522,-0.2499,0.0772,-2.1558,-0.6691,1.0983,0.3510,1.4663,
9.192335,-0.0410,0.6166,-0.3257,0.0772,-2.1558,-0.6691,1.0983,0.3510,1.4663,
9.194628,-0.0410,0.6166,-0.3257,0.5327,-3.4414,-0.8798,1.0983,0.3510,1.4663,
9.196514,-0.0410,0.6166,-0.3257,0.5327,-3.4414,-0.8798,0.5662,0.4788,1.5532,
9.212129,-0.0410,0.6166,-0.3257,0.5327,-3.4414,-0.8798,0.1545,0.5848,1.4914,
9.231301,0.1278,0.5885,-0.3828,0.5327,-3.4414,-0.8798,0.1545,0.5848,1.4914,
9.233969,0.1278,0.5885,-0.3828,1.5592,-3.7203,-1.2908,0.1545,0.5848,1.4914,
9.235783,0.1278,0.5885,-0.3828,1.5592,-3.7203,-1.2908,-0.1699,0.5475,1.3816,
9.251923,0.1278,0.5885,-0.3828,1.5592,-3.7203,-1.2908,-0.3989,0.4325,1.3060,
9.272458,0.3068,0.6477,-0.2849,1.5592,-3.7203,-1.2908,-0.3989,0.4325,1.3060,
9.275278,0.3068,0.6477,-0.2849,2.7567,-3.1697,-0.4380,-0.3989,0.4325,1.3060,
9.277084,0.3068,0.6477,-0.2849,2.7567,-3.1697,-0.4380,-0.5198,0.1832,1.1718,
9.292125,0.3068,0.6477,-0.2849,2.7567,-3.1697,-0.4380,-0.5912,-0.0538,0.8671,
9.312426,0.5138,0.7933,-0.2746,2.7567,-3.1697,-0.4380,-0.5912,-0.0538,0.8671,
9.314677,0.5138,0.7933,-0.2746,4.3904,-1.7743,-0.5497,-0.5912,-0.0538,0.8671,
9.316554,0.5138,0.7933,-0.2746,4.3904,-1.7743,-0.5497,-0.5364,0.0469,0.4762,
9.332193,0.5138,0.7933,-0.2746,4.3904,-1.7743,-0.5497,-0.3414,0.3222,0.0932,
9.352110,0.2599,1.0837,-0.4788,4.3904,-1.7743,-0.5497,-0.3414,0.3222,0.0932,
9.354404,0.2599,1.0837,-0.4788,1.7171,1.0605,-2.6718,-0.3414,0.3222,0.0932,
9.356103,0.2599,1.0837,-0.4788,1.7171,1.0605,-2.6718,-0.0426,0.4985,-0.1944,
9.371265,0.2599,1.0837,-0.4788,1.7171,1.0605,-2.6718,0.3265,0.4197,-0.5348,
9.392885,0.1732,1.4226,-0.6328,1.7171,1.0605,-2.6718,0.3265,0.4197,-0.5348,
9.395159,0.1732,1.4226,-0.6328,0.9693,4.3814,-4.1406,0.3265,0.4197,-0.5348,
9.396876,0.1732,1.4226,-0.6328,0.9693,4.3814,-4.1406,0.3121,-0.3680,-0.2802,
9.411429,0.1732,1.4226,-0.6328,0.9693,4.3814,-4.1406,-0.3707,-1.4578,-0.2935,
9.431510,0.2064,1.3798,-0.3867,0.9693,4.3814,-4.1406,-0.3707,-1.4578,-0.2935,
9.433834,0.2064,1.3798,-0.3867,1.4809,3.9525,-1.7182,-0.3707,-1.4578,-0.2935,
9.435501,0.2064,1.3798,-0.3867,1.4809,3.9525,-1.7182,-0.7654,-1.5089,-0.0549,
9.451504,0.2064,1.3798,-0.3867,1.4809,3.9525,-1.7182,-1.2464,-1.1239,0.1875,
9.471650,0.4488,1.1543,-0.2617,1.4809,3.9525,-1.7182,-1.2464,-1.1239,0.1875,
9.473839,0.4488,1.1543,-0.2617,3.9319,1.6677,-0.8526,-1.2464,-1.1239,0.1875,
9.475419,0.4488,1.1543,-0.2617,3.9319,1.6677,-0.8526,-1.5777,-1.1675,-0.1965,
9.491281,0.4488,1.1543,-0.2617,3.9319,1.6677,-0.8526,-1.7108,-1.5766,-0.4416,
9.511186,0.3494,1.0525,-0.0941,3.9319,1.6677,-0.8526,-1.7108,-1.5766,-0.4416,
9.513188,0.3494,1.0525,-0.0941,3.1571,0.5726,0.1734,-1.7108,-1.5766,-0.4416,
9.515026,0.3494,1.0525,-0.0941,3.1571,0.5726,0.1734,-1.9047,-2.3047,-0.5875,
9.531054,0.3494,1.0525,-0.0941,3.1571,0.5726,0.1734,-1.9830,-2.7367,-1.0216,
9.551663,0.3904,0.9533,0.0506,3.1571,0.5726,0.1734,-1.9830,-2.7367,-1.0216,
9.553760,0.3904,0.9533,0.0506,3.9452,-0.4577,0.8401,-1.9830,-2.7367,-1.0216,
9.555493,0.3904,0.9533,0.0506,3.9452,-0.4577,0.8401,-2.1055,-2.9226,-1.6932,
9.571981,0.3904,0.9533,0.0506,3.9452,-0.4577,0.8401,-2.3686,-2.9082,-2.2365,
9.591203,-0.0459,0.9269,0.5062,3.9452,-0.4577,0.8401,-2.3686,-2.9082,-2.2365,
9.593132,-0.0459,0.9269,0.5062,0.3597,-0.6707,4.3536,-2.3686,-2.9082,-2.2365,
9.594439,-0.0459,0.9269,0.5062,0.3597,-0.6707,4.3536,-2.3809,-2.4261,-2.3489,
9.611598,-0.0459,0.9269,0.5062,0.3597,-0.6707,4.3536,-1.7731,-1.1111,-1.8935,
9.632219,-0.5392,1.1231,0.8690,0.3597,-0.6707,4.3536,-1.7731,-1.1111,-1.8935,
9.634523,-0.5392,1.1231,0.8690,-3.7262,1.4392,7.0272,-1.7731,-1.1111,-1.8935,
9.636297,-0.5392,1.1231,0.8690,-3.7262,1.4392,7.0272,-0.6908,0.5033,-0.9412,
9.651160,-0.5392,1.1231,0.8690,-3.7262,1.4392,7.0272,0.0650,1.8067,-0.3473,
9.672231,-0.2042,0.9220,0.3164,-3.7262,1.4392,7.0272,0.0650,1.8067,-0.3473,
9.674879,-0.2042,0.9220,0.3164,-0.1288,-0.4665,1.5608,0.0650,1.8067,-0.3473,
9.676660,-0.2042,0.9220,0.3164,-0.1288,-0.4665,1.5608,0.2434,2.1375,-0.3995,
9.690611,-0.2042,0.9220,0.3164,-0.1288,-0.4665,1.5608,0.1380,1.7678,-0.6674,
9.711306,-0.2861,0.6459,0.0132,-0.1288,-0.4665,1.5608,0.1380,1.7678,-0.6674,
9.714616,-0.2861,0.6459,0.0132,-0.6175,-3.1392,-1.1823,0.1380,1.7678,-0.6674,
9.717218,-0.2861,0.6459,0.0132,-0.6175,-3.1392,-1.1823,-0.1822,1.1015,-0.7920,
9.732107,-0.2861,0.6459,0.0132,-0.6175,-3.1392,-1.1823,-0.5513,0.4517,-0.7553,
9.750821,-0.3797,0.5475,-0.0032,-0.6175,-3.1392,-1.1823,-0.5513,0.4517,-0.7553,
9.753324,-0.3797,0.5475,-0.0032,-1.2024,-4.0118,-1.4087,-0.5513,0.4517,-0.7553,
9.755228,-0.3797,0.5475,-0.0032,-1.2024,-4.0118,-1.4087,-0.8069,0.0591,-0.6136,
9.771263,-0.3797,0.5475,-0.0032,-1.2024,-4.0118,-1.4087,-0.9145,0.0176,-0.4032,
9.792336,-0.4082,0.5961,-0.0205,-1.2024,-4.0118,-1.4087,-0.9145,0.0176,-0.4032,
9.794743,-0.4082,0.5961,-0.0205,-1.2910,-3.4295,-1.8949,-0.9145,0.0176,-0.4032,
9.796796,-0.4082,0.5961,-0.0205,-1.2910,-3.4295,-1.8949,-0.9374,0.2104,-0.1641,
9.811451,-0.4082,0.5961,-0.0205,-1.2910,-3.4295,-1.8949,-0.8096,0.4634,0.0522,
9.831463,-0.1913,0.7701,0.0552,-1.2910,-3.4295,-1.8949,-0.8096,0.4634,0.0522,
9.834100,-0.1913,0.7701,0.0552,0.8810,-1.6546,-1.4380,-0.8096,0.4634,0.0522,
9.835907,-0.1913,0.7701,0.0552,0.8810,-1.6546,-1.4380,-0.5252,0.4245,0.0415,
9.851059,-0.1913,0.7701,0.0552,0.8810,-1.6546,-1.4380,-0.1886,0.1017,0.0980,
9.870866,-0.1244,0.9252,0.0855,0.8810,-1.6546,-1.4380,-0.1886,0.1017,0.0980,
9.874055,-0.1244,0.9252,0.0855,1.5327,-0.1130,-1.2431,-0.1886,0.1017,0.0980,
9.876199,-0.1244,0.9252,0.0855,1.5327,-0.1130,-1.2431,0.1103,-0.2759,0.1790,
9.891109,-0.1244,0.9252,0.0855,1.5327,-0.1130,-1.2431,0.2668,-0.5129,0.2152,
9.911186,-0.2287,1.0144,0.0770,1.5327,-0.1130,-1.2431,0.2668,-0.5129,0.2152,
9.913516,-0.2287,1.0144,0.0770,0.4026,0.7208,-1.2889,0.2668,-0.5129,0.2152,
9.915127,-0.2287,1.0144,0.0770,0.4026,0.7208,-1.2889,0.2780,-0.4618,0.2919,
9.930811,-0.2287,1.0144,0.0770,0.4026,0.7208,-1.2889,0.1843,-0.1459,0.3451,
9.951778,-0.3352,1.0899,0.1524,0.4026,0.7208,-1.2889,0.1843,-0.1459,0.3451,
9.955054,-0.3352,1.0899,0.1524,-0.7805,1.4036,-0.4647,0.1843,-0.1459,0.3451,
9.957366,-0.3352,1.0899,0.1524,-0.7805,1.4036,-0.4647,0.0597,0.4629,0.3515,
9.970623,-0.3352,1.0899,0.1524,-0.7805,1.4036,-0.4647,0.1023,0.8091,0.3680,
9.990720,-0.3357,1.1800,0.2487,-0.7805,1.4036,-0.4647,0.1023,0.8091,0.3680,
9.993072,-0.3357,1.1800,0.2487,-0.8703,2.2455,0.5711,0.1023,0.8091,0.3680,
9.994808,-0.3357,1.1800,0.2487,-0.8703,2.2455,0.5711,0.3633,0.5742,0.4213,
10.011909,-0.3357,1.1800,0.2487,-0.8703,2.2455,0.5711,0.7249,0.0937,0.4171,
10.031736,-0.3357,1.3666,0.1588,-0.8703,2.2455,0.5711,0.7249,0.0937,0.4171,
10.033807,-0.3357,1.3666,0.1588,-1.0029,3.9974,-0.0747,0.7249,0.0937,0.4171,
10.035557,-0.3357,1.3666,0.1588,-1.0029,3.9974,-0.0747,1.0338,-0.3004,0.3995,
10.050503,-0.3357,1.3666,0.1588,-1.0029,3.9974,-0.0747,1.1574,-0.6631,0.3878,
10.070583,-0.3677,1.3916,0.0406,-1.0029,3.9974,-0.0747,1.1574,-0.6631,0.3878,
10.072986,-0.3677,1.3916,0.0406,-1.4922,4.1438,-0.8621,1.1574,-0.6631,0.3878,
10.074741,-0.3677,1.3916,0.0406,-1.4922,4.1438,-0.8621,0.9369,-0.8586,0.3483,
10.090903,-0.3677,1.3916,0.0406,-1.4922,4.1438,-0.8621,0.5513,-0.6471,0.3052,
10.111362,-0.1527,1.2741,0.2612,-1.4922,4.1438,-0.8621,0.5513,-0.6471,0.3052,
10.113660,-0.1527,1.2741,0.2612,0.4560,2.9316,1.5218,0.5513,-0.6471,0.3052,
10.115209,-0.1527,1.2741,0.2612,0.4560,2.9316,1.5218,0.4666,-0.5736,0.1337,
10.130966,-0.1527,1.2741,0.2612,0.4560,2.9316,1.5218,0.5683,-0.7840,-0.0730,
10.150732,-0.0340,0.9462,0.2905,0.4560,2.9316,1.5218,0.5683,-0.7840,-0.0730,
10.152830,-0.0340,0.9462,0.2905,1.5819,-0.3037,1.9548,0.5683,-0.7840,-0.0730,
10.154523,-0.0340,0.9462,0.2905,1.5819,-0.3037,1.9548,0.6333,-0.9406,-0.1768,
10.171011,-0.0340,0.9462,0.2905,1.5819,-0.3037,1.9548,0.5981,-0.9428,-0.1827,
10.191086,0.0945,0.8529,0.2262,1.5819,-0.3037,1.9548,0.5981,-0.9428,-0.1827,
10.193356,0.0945,0.8529,0.2262,2.8447,-1.2287,1.4534,0.5981,-0.9428,-0.1827,
10.195065,0.0945,0.8529,0.2262,2.8447,-1.2287,1.4534,0.5342,-0.8938,-0.1736,
10.210359,0.0945,0.8529,0.2262,2.8447,-1.2287,1.4534,0.4506,-0.7590,-0.1917,
10.231068,0.1031,0.9491,0.0696,2.8447,-1.2287,1.4534,0.4506,-0.7590,-0.1917,
10.233398,0.1031,0.9491,0.0696,0.8646,-0.3797,-0.8743,0.4506,-0.7590,-0.1917,
10.235183,0.1031,0.9491,0.0696,0.8646,-0.3797,-0.8743,0.2999,-0.4336,-0.2051,
10.250316,0.1031,0.9491,0.0696,0.8646,-0.3797,-0.8743,0.1236,-0.0202,-0.1603,
10.271684,-0.0191,0.9516,0.0020,0.8646,-0.3797,-0.8743,0.1236,-0.0202,-0.1603,
10.274580,-0.0191,0.9516,0.0020,-0.2731,-0.3720,-1.4378,0.1236,-0.0202,-0.1603,
10.276305,-0.0191,0.9516,0.0020,-0.2731,-0.3720,-1.4378,-0.0117,0.4197,-0.0442,
10.290439,-0.0191,0.9516,0.0020,-0.2731,-0.3720,-1.4378,0.0197,0.9065,0.0597,
10.310925,-0.1253,0.9091,0.0428,-0.2731,-0.3720,-1.4378,0.0197,0.9065,0.0597,
10.314378,-0.1253,0.9091,0.0428,-1.2673,-0.7910,-1.0242,0.0197,0.9065,0.0597,
10.316300,-0.1253,0.9091,0.0428,-1.2673,-0.7910,-1.0242,0.2455,1.3433,0.0581,
10.329853,-0.1253,0.9091,0.0428,-1.2673,-0.7910,-1.0242,1.2213,2.6903,-0.2940,
10.351622,-0.3865,0.8582,0.0242,-1.2673,-0.7910,-1.0242,1.2213,2.6903,-0.2940,
10.354151,-0.3865,0.8582,0.0242,-3.6511,-1.3273,-0.9125,1.2213,2.6903,-0.2940,
10.356197,-0.3865,0.8582,0.0242,-3.6511,-1.3273,-0.9125,2.2078,3.4381,-0.5172,
10.370254,-0.3865,0.8582,0.0242,-3.6511,-1.3273,-0.9125,2.5620,2.8331,-0.3451,
10.390460,-0.2289,0.6296,-0.1485,-3.6511,-1.3273,-0.9125,2.5620,2.8331,-0.3451,
10.393045,-0.2289,0.6296,-0.1485,-1.8498,-3.6272,-1.6395,2.5620,2.8331,-0.3451,
10.395022,-0.2289,0.6296,-0.1485,-1.8498,-3.6272,-1.6395,2.2855,1.4967,0.1507,
10.410907,-0.2289,0.6296,-0.1485,-1.8498,-3.6272,-1.6395,1.8280,0.4171,0.6093,
10.431739,-0.2094,0.7464,-0.2020,-1.8498,-3.6272,-1.6395,1.8280,0.4171,0.6093,
10.434166,-0.2094,0.7464,-0.2020,-1.8120,-2.4689,-1.3453,1.8280,0.4171,0.6093,
10.436211,-0.2094,0.7464,-0.2020,-1.8120,-2.4689,-1.3453,1.4855,0.2487,0.8416,
10.450071,-0.2094,0.7464,-0.2020,-1.8120,-2.4689,-1.3453,1.1910,0.6440,0.8884,
10.470320,-0.1236,0.7070,-0.3604,-1.8120,-2.4689,-1.3453,1.1910,0.6440,0.8884,
10.473268,-0.1236,0.7070,-0.3604,-1.3262,-2.8087,-2.3744,1.1910,0.6440,0.8884,
10.474983,-0.1236,0.7070,-0.3604,-1.3262,-2.8087,-2.3744,0.7665,1.0056,0.8783,
10.490641,-0.1236,0.7070,-0.3604,-1.3262,-2.8087,-2.3744,0.1742,1.1409,0.9390,
10.511251,0.0643,0.6660,-0.5331,-1.3262,-2.8087,-2.3744,0.1742,1.1409,0.9390,
10.513757,0.0643,0.6660,-0.5331,0.1076,-3.1760,-3.8982,0.1742,1.1409,0.9390,
10.515809,0.0643,0.6660,-0.5331,0.1076,-3.1760,-3.8982,-0.3574,1.1633,1.0168,
10.531354,0.0643,0.6660,-0.5331,0.1076,-3.1760,-3.8982,-0.7286,1.0109,1.1553,
10.550375,0.0413,0.7815,-0.3230,0.1076,-3.1760,-3.8982,-0.7286,1.0109,1.1553,
10.553296,0.0413,0.7815,-0.3230,-0.5912,-2.0366,-2.0818,-0.7286,1.0109,1.1553,
10.555359,0.0413,0.7815,-0.3230,-0.5912,-2.0366,-2.0818,-0.8314,0.6589,1.1904,
10.570323,0.0413,0.7815,-0.3230,-0.5912,-2.0366,-2.0818,-0.7143,0.4559,1.0583,
10.591363,0.2306,0.9188,-0.3325,-0.5912,-2.0366,-2.0818,-0.7143,0.4559,1.0583,
10.593625,0.2306,0.9188,-0.3325,0.8086,-0.6644,-2.5011,-0.7143,0.4559,1.0583,
10.595531,0.2306,0.9188,-0.3325,0.8086,-0.6644,-2.5011,-0.3963,0.5459,0.7819,
10.611711,0.2306,0.9188,-0.3325,0.8086,-0.6644,-2.5011,-0.0453,0.4953,0.1284,
10.629747,0.1793,1.0681,-0.5399,0.8086,-0.6644,-2.5011,-0.0453,0.4953,0.1284,
10.632086,0.1793,1.0681,-0.5399,0.1228,0.8242,-4.5801,-0.0453,0.4953,0.1284,
10.633797,0.1793,1.0681,-0.5399,0.1228,0.8242,-4.5801,0.0437,-0.2147,-0.5795,
10.649852,0.1793,1.0681,-0.5399,0.1228,0.8242,-4.5801,-0.0730,-0.7180,-0.3707,
10.669922,-0.0393,1.4724,-0.4835,0.1228,0.8242,-4.5801,-0.0730,-0.7180,-0.3707,
10.673290,-0.0393,1.4724,-0.4835,-1.8231,4.7569,-4.0047,-0.0730,-0.7180,-0.3707,
10.675300,-0.0393,1.4724,-0.4835,-1.8231,4.7569,-4.0047,-0.2104,-0.3814,-0.0527,
10.690096,-0.0393,1.4724,-0.4835,-1.8231,4.7569,-4.0047,-0.7398,-0.8085,-0.0937,
10.710256,0.1395,1.1541,-0.3225,-1.8231,4.7569,-4.0047,-0.7398,-0.8085,-0.0937,
10.712539,0.1395,1.1541,-0.3225,-0.0264,1.6206,-2.5770,-0.7398,-0.8085,-0.0937,
10.714362,0.1395,1.1541,-0.3225,-0.0264,1.6206,-2.5770,-1.6224,-1.9596,0.0133,
10.729283,0.1395,1.1541,-0.3225,-0.0264,1.6206,-2.5770,-1.6400,-1.1851,0.0533,
10.749929,0.3103,1.1390,-0.1329,-0.0264,1.6206,-2.5770,-1.6400,-1.1851,0.0533,
10.753128,0.3103,1.1390,-0.1329,1.6563,1.4534,-1.2643,-1.6400,-1.1851,0.0533,
10.754719,0.3103,1.1390,-0.1329,1.6563,1.4534,-1.2643,-1.7880,-1.3449,-0.4634,
10.769992,0.3103,1.1390,-0.1329,1.6563,1.4534,-1.2643,-1.9675,-1.9233,-0.7904,
10.790021,0.3757,0.9618,0.0010,1.6563,1.4534,-1.2643,-1.9675,-1.9233,-0.7904,
10.793019,0.3757,0.9618,0.0010,2.5212,-0.2927,-0.5978,-1.9675,-1.9233,-0.7904,
10.795025,0.3757,0.9618,0.0010,2.5212,-0.2927,-0.5978,-2.1268,-2.3276,-1.2661,
10.812833,0.3757,0.9618,0.0010,2.5212,-0.2927,-0.5978,-2.2562,-2.3979,-1.7657,
10.829999,0.0880,0.9604,0.3242,2.5212,-0.2927,-0.5978,-2.2562,-2.3979,-1.7657,
10.832411,0.0880,0.9604,0.3242,0.1688,-0.2772,1.8295,-2.2562,-2.3979,-1.7657,
10.834183,0.0880,0.9604,0.3242,0.1688,-0.2772,1.8295,-2.2115,-2.1241,-2.0341,
10.850195,0.0880,0.9604,0.3242,0.1688,-0.2772,1.8295,-1.8743,-1.3193,-1.7923,
10.869744,-0.5297,1.1473,0.7876,0.1688,-0.2772,1.8295,-1.8743,-1.3193,-1.7923,
10.872117,-0.5297,1.1473,0.7876,-5.2641,1.6655,5.6134,-1.8743,-1.3193,-1.7923,
10.873572,-0.5297,1.1473,0.7876,-5.2641,1.6655,5.6134,-0.9689,0.0352,-0.8682,
10.888950,-0.5297,1.1473,0.7876,-5.2641,1.6655,5.6134,-0.0602,1.6735,-0.0554,
10.909759,-0.2262,1.0002,0.4380,-5.2641,1.6655,5.6134,-0.0602,1.6735,-0.0554,
10.911612,-0.2262,1.0002,0.4380,-2.0359,0.2698,1.9954,-0.0602,1.6735,-0.0554,
10.913083,-0.2262,1.0002,0.4380,-2.0359,0.2698,1.9954,0.4245,2.4656,0.0511,
10.929617,-0.2262,1.0002,0.4380,-2.0359,0.2698,1.9954,0.4155,2.4618,-0.1545,
10.950117,-0.2575,0.6760,0.0645,-2.0359,0.2698,1.9954,0.4155,2.4618,-0.1545,
10.952548,-0.2575,0.6760,0.0645,-2.0760,-2.9399,-1.4863,0.4155,2.4618,-0.1545,
10.954492,-0.2575,0.6760,0.0645,-2.0760,-2.9399,-1.4863,0.0469,1.9090,-0.4027,
10.969137,-0.2575,0.6760,0.0645,-2.0760,-2.9399,-1.4863,-0.3494,1.1776,-0.6290,
10.990758,-0.3533,0.6003,-0.0562,-2.0760,-2.9399,-1.4863,-0.3494,1.1776,-0.6290,
10.993800,-0.3533,0.6003,-0.0562,-2.6877,-3.6564,-2.6904,-0.3494,1.1776,-0.6290,
10.995693,-0.3533,0.6003,-0.0562,-2.6877,-3.6564,-2.6904,-0.7521,0.5561,-0.7084,
11.009363,-0.3533,0.6003,-0.0562,-2.6877,-3.6564,-2.6904,-1.1036,0.2035,-0.6557,
11.028894,-0.4165,0.5766,-0.0530,-2.6877,-3.6564,-2.6904,-1.1036,0.2035,-0.6557,
11.031867,-0.4165,0.5766,-0.0530,-3.0151,-3.7780,-2.9973,-1.1036,0.2035,-0.6557,
11.034215,-0.4165,0.5766,-0.0530,-3.0151,-3.7780,-2.9973,-1.3268,0.1720,-0.4298,
11.049948,-0.4165,0.5766,-0.0530,-3.0151,-3.7780,-2.9973,-1.2741,0.4128,-0.1198,
11.069359,-0.1766,0.6606,0.0696,-3.0151,-3.7780,-2.9973,-1.2741,0.4128,-0.1198,
11.073507,-0.1766,0.6606,0.0696,-0.5289,-2.8010,-2.2673,-1.2741,0.4128,-0.1198,
11.075638,-0.1766,0.6606,0.0696,-0.5289,-2.8010,-2.2673,-0.9241,0.5774,-0.0362,
11.088825,-0.1766,0.6606,0.0696,-0.5289,-2.8010,-2.2673,-0.4336,0.5385,-0.0282,
11.109362,-0.1234,0.8238,0.1292,-0.5289,-2.8010,-2.2673,-0.4336,0.5385,-0.0282,
11.111655,-0.1234,0.8238,0.1292,0.0736,-1.1170,-1.9059,-0.4336,0.5385,-0.0282,
11.113590,-0.1234,0.8238,0.1292,0.0736,-1.1170,-1.9059,0.0208,0.1156,0.0980,
11.129556,-0.1234,0.8238,0.1292,0.0736,-1.1170,-1.9059,0.3052,-0.3718,0.2589,
11.149179,-0.1390,0.9291,0.0599,0.0736,-1.1170,-1.9059,0.3052,-0.3718,0.2589,
11.151546,-0.1390,0.9291,0.0599,-0.1612,-0.1145,-2.5321,0.3052,-0.3718,0.2589,
11.153551,-0.1390,0.9291,0.0599,-0.1612,-0.1145,-2.5321,0.3712,-0.5859,0.3430,
11.169156,-0.1390,0.9291,0.0599,-0.1612,-0.1145,-2.5321,0.2935,-0.4320,0.4112,
11.189345,-0.2949,1.0087,0.0501,-0.1612,-0.1145,-2.5321,0.2935,-0.4320,0.4112,
11.191774,-0.2949,1.0087,0.0501,-1.8747,0.6026,-2.5033,0.2935,-0.4320,0.4112,
11.193571,-0.2949,1.0087,0.0501,-1.8747,0.6026,-2.5033,0.0863,0.1278,0.3824,
11.211326,-0.2949,1.0087,0.0501,-1.8747,0.6026,-2.5033,-0.1055,0.8346,0.3489,
11.229350,-0.4341,1.1211,0.1637,-1.8747,0.6026,-2.5033,-0.1055,0.8346,0.3489,
11.233891,-0.4341,1.1211,0.1637,-3.2823,1.6844,-1.3432,-0.1055,0.8346,0.3489,
11.236241,-0.4341,1.1211,0.1637,-3.2823,1.6844,-1.3432,-0.1182,1.0248,0.4234,
11.249032,-0.4341,1.1211,0.1637,-3.2823,1.6844,-1.3432,0.0309,0.7872,0.5310,
11.268377,-0.3789,1.2340,0.0943,-3.2823,1.6844,-1.3432,0.0309,0.7872,0.5310,
11.270741,-0.3789,1.2340,0.0943,-2.8120,2.7777,-2.0050,0.0309,0.7872,0.5310,
11.272532,-0.3789,1.2340,0.0943,-2.8120,2.7777,-2.0050,0.2631,0.5651,0.5577,
11.288879,-0.3789,1.2340,0.0943,-2.8120,2.7777,-2.0050,0.5305,0.4165,0.5310,
11.308933,-0.3931,1.4055,0.0537,-2.8120,2.7777,-2.0050,0.5305,0.4165,0.5310,
11.311069,-0.3931,1.4055,0.0537,-3.0978,4.3953,-2.2380,0.5305,0.4165,0.5310,
11.312953,-0.3931,1.4055,0.0537,-3.0978,4.3953,-2.2380,0.7324,0.1710,0.4906,
11.329004,-0.3931,1.4055,0.0537,-3.0978,4.3953,-2.2380,0.6434,-0.2898,0.4517,
11.348756,-0.3709,1.3969,0.0777,-3.0978,4.3953,-2.2380,0.6434,-0.2898,0.4517,
11.351077,-0.3709,1.3969,0.0777,-3.0629,4.2265,-1.7456,0.6434,-0.2898,0.4517,
11.352966,-0.3709,1.3969,0.0777,-3.0629,4.2265,-1.7456,0.3057,-0.8645,0.4250,
11.369134,-0.3709,1.3969,0.0777,-3.0629,4.2265,-1.7456,0.2072,-1.3806,0.4027,
11.388861,-0.1053,1.2474,0.3108,-3.0629,4.2265,-1.7456,0.2072,-1.3806,0.4027,
11.391224,-0.1053,1.2474,0.3108,-0.7274,2.7286,0.6164,0.2072,-1.3806,0.4027,
11.392837,-0.1053,1.2474,0.3108,-0.7274,2.7286,0.6164,0.3814,-1.6208,0.2099,
11.410919,-0.1053,1.2474,0.3108,-0.7274,2.7286,0.6164,0.5689,-1.7492,0.0826,
11.429603,0.0638,0.8961,0.3677,-0.7274,2.7286,0.6164,0.5689,-1.7492,0.0826,
11.431956,0.0638,0.8961,0.3677,0.7156,-0.7600,1.3420,0.5689,-1.7492,0.0826,
11.433657,0.0638,0.8961,0.3677,0.7156,-0.7600,1.3420,0.6626,-1.8157,0.1028,
11.448393,0.0638,0.8961,0.3677,0.7156,-0.7600,1.3420,0.6168,-1.7875,0.2136,
11.468391,0.2924,0.9376,0.3516,0.7156,-0.7600,1.3420,0.6168,-1.7875,0.2136,
11.470595,0.2924,0.9376,0.3516,2.7392,-0.4064,1.4242,0.6168,-1.7875,0.2136,
11.472233,0.2924,0.9376,0.3516,2.7392,-0.4064,1.4242,0.4629,-1.5297,0.2935,
11.488469,0.2924,0.9376,0.3516,2.7392,-0.4064,1.4242,0.2764,-0.9385,0.2423,
11.508998,0.3677,1.0043,0.2404,2.7392,-0.4064,1.4242,0.2764,-0.9385,0.2423,
11.510920,0.3677,1.0043,0.2404,3.2643,0.2227,0.4815,0.2764,-0.9385,0.2423,
11.512777,0.3677,1.0043,0.2404,3.2643,0.2227,0.4815,0.1087,-0.1119,0.1097,
11.528805,0.3677,1.0043,0.2404,3.2643,0.2227,0.4815,-0.0011,0.5060,0.0160,
11.548485,0.1080,0.9736,0.1226,3.2643,0.2227,0.4815,-0.0011,0.5060,0.0160,
11.550631,0.1080,0.9736,0.1226,0.6803,-0.0803,-0.6582,-0.0011,0.5060,0.0160,
11.552483,0.1080,0.9736,0.1226,0.6803,-0.0803,-0.6582,0.0080,0.8559,0.0996,
11.568041,0.1080,0.9736,0.1226,0.6803,-0.0803,-0.6582,0.2818,1.4120,0.2429,
11.588365,-0.2287,1.2198,0.1356,0.6803,-0.0803,-0.6582,0.2818,1.4120,0.2429,
11.590627,-0.2287,1.2198,0.1356,-2.6009,2.3249,-0.4921,0.2818,1.4120,0.2429,
11.592509,-0.2287,1.2198,0.1356,-2.6009,2.3249,-0.4921,1.3848,3.3034,-0.0799,
11.611316,-0.2287,1.2198,0.1356,-2.6009,2.3249,-0.4921,2.5763,4.4374,-0.5561,
11.628512,-0.3721,0.7874,-0.0794,-2.6009,2.3249,-0.4921,2.5763,4.4374,-0.5561,
11.631559,-0.3721,0.7874,-0.0794,-3.6008,-2.0312,-1.8504,2.5763,4.4374,-0.5561,
11.633849,-0.3721,0.7874,-0.0794,-3.6008,-2.0312,-1.8504,2.8235,3.6773,-0.1305,
11.648683,-0.3721,0.7874,-0.0794,-3.6008,-2.0312,-1.8504,2.5790,2.2424,0.5321,
11.668908,-0.1197,0.7224,-0.2111,-3.6008,-2.0312,-1.8504,2.5790,2.2424,0.5321,
11.671348,-0.1197,0.7224,-0.2111,-1.1362,-2.7269,-2.0749,2.5790,2.2424,0.5321,
11.673334,-0.1197,0.7224,-0.2111,-1.1362,-2.7269,-2.0749,2.1385,0.7713,1.0615,
11.688919,-0.1197,0.7224,-0.2111,-1.1362,-2.7269,-2.0749,1.9606,0.2423,1.2512,
11.708355,-0.0235,0.7393,-0.4107,-1.1362,-2.7269,-2.0749,1.9606,0.2423,1.2512,
11.711063,-0.0235,0.7393,-0.4107,-0.6512,-2.5206,-3.2318,1.9606,0.2423,1.2512,
11.713368,-0.0235,0.7393,-0.4107,-0.6512,-2.5206,-3.2318,1.6107,0.0256,1.0994,
11.727984,-0.0235,0.7393,-0.4107,-0.6512,-2.5206,-3.2318,0.8522,-0.2290,0.9795,
11.748228,-0.0259,0.6117,-0.5370,-0.6512,-2.5206,-3.2318,0.8522,-0.2290,0.9795,
11.751570,-0.0259,0.6117,-0.5370,-1.0740,-3.6937,-3.9877,0.8522,-0.2290,0.9795,
11.753730,-0.0259,0.6117,-0.5370,-1.0740,-3.6937,-3.9877,0.0346,-0.1651,0.9342,
11.768558,-0.0259,0.6117,-0.5370,-1.0740,-3.6937,-3.9877,-0.5183,0.3276,1.0408,
11.789082,-0.1090,0.5956,-0.2448,-1.0740,-3.6937,-3.9877,-0.5183,0.3276,1.0408,
11.792413,-0.1090,0.5956,-0.2448,-2.2734,-3.8237,-1.2217,-0.5183,0.3276,1.0408,
11.794239,-0.1090,0.5956,-0.2448,-2.2734,-3.8237,-1.2217,-0.8149,0.7910,1.2852,
11.808553,-0.1090,0.5956,-0.2448,-2.2734,-3.8237,-1.2217,-0.9081,0.8597,1.4797,
11.828747,0.1500,0.6020,-0.1410,-2.2734,-3.8237,-1.2217,-0.9081,0.8597,1.4797,
11.832065,0.1500,0.6020,-0.1410,-0.3005,-3.7132,-0.5849,-0.9081,0.8597,1.4797,
11.834157,0.1500,0.6020,-0.1410,-0.3005,-3.7132,-0.5849,-0.9241,0.5912,1.5143,
11.848210,0.1500,0.6020,-0.1410,-0.3005,-3.7132,-0.5849,-0.8027,0.3414,1.2831,
11.868576,0.5929,0.7786,-0.1964,-0.3005,-3.7132,-0.5849,-0.8027,0.3414,1.2831,
11.871108,0.5929,0.7786,-0.1964,3.4938,-1.8890,-1.4961,-0.8027,0.3414,1.2831,
11.872954,0.5929,0.7786,-0.1964,3.4938,-1.8890,-1.4961,-0.4661,0.3894,0.8799,
11.887764,0.5929,0.7786,-0.1964,3.4938,-1.8890,-1.4961,-0.0644,0.4272,0.2892,
11.907723,0.3919,0.9484,-0.4757,3.4938,-1.8890,-1.4961,-0.0644,0.4272,0.2892,
11.910859,0.3919,0.9484,-0.4757,1.2886,-0.1694,-4.3491,-0.0644,0.4272,0.2892,
11.912694,0.3919,0.9484,-0.4757,1.2886,-0.1694,-4.3491,0.1198,0.1859,-0.3617,
11.928139,0.3919,0.9484,-0.4757,1.2886,-0.1694,-4.3491,0.0772,-0.0740,-0.6333,
11.948104,0.0110,1.2289,-0.4569,1.2886,-0.1694,-4.3491,0.0772,-0.0740,-0.6333,
11.950482,0.0110,1.2289,-0.4569,-2.2522,2.5315,-4.1099,0.0772,-0.0740,-0.6333,
11.952315,0.0110,1.2289,-0.4569,-2.2522,2.5315,-4.1099,0.0437,-0.2834,-0.7345,
11.968353,0.0110,1.2289,-0.4569,-2.2522,2.5315,-4.1099,0.3228,-0.2349,-0.3174,
11.988111,0.2565,1.6420,-0.4378,-2.2522,2.5315,-4.1099,0.3228,-0.2349,-0.3174,
11.990934,0.2565,1.6420,-0.4378,0.3585,6.5357,-3.8301,0.3228,-0.2349,-0.3174,
11.992705,0.2565,1.6420,-0.4378,0.3585,6.5357,-3.8301,0.1348,-0.6812,-0.3057,
12.010187,0.2565,1.6420,-0.4378,0.3585,6.5357,-3.8301,-0.5907,-1.4205,-0.4746,
12.027575,0.3266,0.8702,-0.2255,0.3585,6.5357,-3.8301,-0.5907,-1.4205,-0.4746,
12.029714,0.3266,0.8702,-0.2255,1.2152,-1.0643,-1.7501,-0.5907,-1.4205,-0.4746,
12.031574,0.3266,0.8702,-0.2255,1.2152,-1.0643,-1.7501,-1.1601,-1.2064,-0.1268,
12.048421,0.3266,0.8702,-0.2255,1.2152,-1.0643,-1.7501,-1.1569,-0.2786,-0.4043,
12.067952,0.2524,1.1050,-0.1356,1.2152,-1.0643,-1.7501,-1.1569,-0.2786,-0.4043,
12.071922,0.2524,1.1050,-0.1356,0.5993,1.2033,-1.2555,-1.1569,-0.2786,-0.4043,
12.073420,0.2524,1.1050,-0.1356,0.5993,1.2033,-1.2555,-1.3039,-0.4964,-0.7835,
12.087945,0.2524,1.1050,-0.1356,0.5993,1.2033,-1.2555,-1.3747,-1.1659,-0.7462,
12.107940,0.2819,1.0877,-0.0032,0.5993,1.2033,-1.2555,-1.3747,-1.1659,-0.7462,
12.110256,0.2819,1.0877,-0.0032,1.1770,0.9891,-0.4178,-1.3747,-1.1659,-0.7462,
12.111500,0.2819,1.0877,-0.0032,1.1770,0.9891,-0.4178,-1.5255,-1.9771,-0.6802,
12.128174,0.2819,1.0877,-0.0032,1.1770,0.9891,-0.4178,-1.6597,-2.1886,-0.8991,
12.147660,0.2841,0.8751,0.0469,1.1770,0.9891,-0.4178,-1.6597,-2.1886,-0.8991,
12.149942,0.2841,0.8751,0.0469,1.4194,-1.0983,-0.3854,-1.6597,-2.1886,-0.8991,
12.151896,0.2841,0.8751,0.0469,1.4194,-1.0983,-0.3854,-1.9095,-2.1028,-1.2773,
12.167520,0.2841,0.8751,0.0469,1.4194,-1.0983,-0.3854,-2.2024,-1.9500,-1.5484,
12.188277,-0.0164,0.8898,0.3117,1.4194,-1.0983,-0.3854,-2.2024,-1.9500,-1.5484,
12.190648,-0.0164,0.8898,0.3117,-1.0918,-0.9219,1.5247,-2.2024,-1.9500,-1.5484,
12.192545,-0.0164,0.8898,0.3117,-1.0918,-0.9219,1.5247,-2.2940,-1.8168,-1.5686,
12.210364,-0.0164,0.8898,0.3117,-1.0918,-0.9219,1.5247,-1.9324,-1.3891,-1.3433,
12.228214,-0.0955,0.9626,0.5289,-1.0918,-0.9219,1.5247,-1.9324,-1.3891,-1.3433,
12.230494,-0.0955,0.9626,0.5289,-1.4294,-0.0840,2.8703,-1.9324,-1.3891,-1.3433,
12.232320,-0.0955,0.9626,0.5289,-1.4294,-0.0840,2.8703,-1.3316,-0.7558,-1.3518,
12.247448,-0.0955,0.9626,0.5289,-1.4294,-0.0840,2.8703,-0.7441,-0.3675,-1.4813,
12.267557,-0.3941,0.9694,0.3860,-1.4294,-0.0840,2.8703,-0.7441,-0.3675,-1.4813,
12.271038,-0.3941,0.9694,0.3860,-3.8345,0.0763,1.0700,-0.7441,-0.3675,-1.4813,
12.273043,-0.3941,0.9694,0.3860,-3.8345,0.0763,1.0700,-0.3350,-0.0740,-1.3257,
12.288043,-0.3941,0.9694,0.3860,-3.8345,0.0763,1.0700,-0.2386,0.3233,-1.0280,
12.307759,-0.3997,0.7407,0.1722,-3.8345,0.0763,1.0700,-0.2386,0.3233,-1.0280,
12.310053,-0.3997,0.7407,0.1722,-3.3986,-2.1195,-1.1300,-0.2386,0.3233,-1.0280,
12.312085,-0.3997,0.7407,0.1722,-3.3986,-2.1195,-1.1300,-0.3212,0.6892,-0.7771,
12.327605,-0.3997,0.7407,0.1722,-3.3986,-2.1195,-1.1300,-0.4101,0.8559,-0.6061,
12.347628,-0.3831,0.6205,0.0836,-3.3986,-2.1195,-1.1300,-0.4101,0.8559,-0.6061,
12.350218,-0.3831,0.6205,0.0836,-2.8886,-3.2365,-2.1138,-0.4101,0.8559,-0.6061,
12.352248,-0.3831,0.6205,0.0836,-2.8886,-3.2365,-2.1138,-0.4613,0.8075,-0.4842,
12.367447,-0.3831,0.6205,0.0836,-2.8886,-3.2365,-2.1138,-0.4996,0.6844,-0.3691,
12.387423,-0.3696,0.6784,0.0638,-2.8886,-3.2365,-2.1138,-0.4996,0.6844,-0.3691,
12.389851,-0.3696,0.6784,0.0638,-2.5093,-2.5945,-2.4563,-0.4996,0.6844,-0.3691,
12.391788,-0.3696,0.6784,0.0638,-2.5093,-2.5945,-2.4563,-0.4181,0.5619,-0.2285,
12.407074,-0.3696,0.6784,0.0638,-2.5093,-2.5945,-2.4563,-0.1635,0.4288,-0.1284,
12.427642,-0.1964,0.8084,0.0669,-2.5093,-2.5945,-2.4563,-0.1635,0.4288,-0.1284,
12.429939,-0.1964,0.8084,0.0669,-0.6841,-1.2761,-2.5090,-0.1635,0.4288,-0.1284,
12.431946,-0.1964,0.8084,0.0669,-0.6841,-1.2761,-2.5090,0.1071,0.0613,-0.0234,
12.447088,-0.1964,0.8084,0.0669,-0.6841,-1.2761,-2.5090,0.2402,-0.1710,0.0549,
12.467071,-0.2135,0.8590,0.0335,-0.6841,-1.2761,-2.5090,0.2402,-0.1710,0.0549,
12.469580,-0.2135,0.8590,0.0335,-0.8642,-0.8030,-2.7759,0.2402,-0.1710,0.0549,
12.471623,-0.2135,0.8590,0.0335,-0.8642,-0.8030,-2.7759,0.1758,-0.1907,0.1236,
12.487118,-0.2135,0.8590,0.0335,-0.8642,-0.8030,-2.7759,0.0431,0.0043,0.1614,
12.508530,-0.2783,0.9152,0.1539,-0.8642,-0.8030,-2.7759,0.0431,0.0043,0.1614,
12.511169,-0.2783,0.9152,0.1539,-1.5628,-0.2727,-1.5597,0.0431,0.0043,0.1614,
12.513626,-0.2783,0.9152,0.1539,-1.5628,-0.2727,-1.5597,-0.0368,0.2573,0.1827,
12.526768,-0.2783,0.9152,0.1539,-1.5628,-0.2727,-1.5597,-0.0383,0.3148,0.2200,
12.547049,-0.2939,0.9868,0.1757,-1.5628,-0.2727,-1.5597,-0.0383,0.3148,0.2200,
12.549574,-0.2939,0.9868,0.1757,-1.7140,0.4169,-1.3095,-0.0383,0.3148,0.2200,
12.551358,-0.2939,0.9868,0.1757,-1.7140,0.4169,-1.3095,0.0080,0.2333,0.2716,
12.567295,-0.2939,0.9868,0.1757,-1.7140,0.4169,-1.3095,0.0799,0.2626,0.3633,
12.587649,-0.3389,1.1871,0.0816,-1.7140,0.4169,-1.3095,0.0799,0.2626,0.3633,
12.590184,-0.3389,1.1871,0.0816,-2.2278,2.3572,-2.1882,0.0799,0.2626,0.3633,
12.592055,-0.3389,1.1871,0.0816,-2.2278,2.3572,-2.1882,0.1609,0.3984,0.4549,
12.608507,-0.3389,1.1871,0.0816,-2.2278,2.3572,-2.1882,0.2754,0.5278,0.5246,
12.627397,-0.3459,1.4258,0.0398,-2.2278,2.3572,-2.1882,0.2754,0.5278,0.5246,
12.629634,-0.3459,1.4258,0.0398,-2.4247,4.6506,-2.4976,0.2754,0.5278,0.5246,
12.631413,-0.3459,1.4258,0.0398,-2.4247,4.6506,-2.4976,0.4378,0.5779,0.5800,
12.646916,-0.3459,1.4258,0.0398,-2.4247,4.6506,-2.4976,0.6248,0.3286,0.5470,
12.666531,-0.3838,1.4746,0.1212,-2.4247,4.6506,-2.4976,0.6248,0.3286,0.5470,
12.669314,-0.3838,1.4746,0.1212,-2.9557,5.0505,-1.4853,0.6248,0.3286,0.5470,
12.671102,-0.3838,1.4746,0.1212,-2.9557,5.0505,-1.4853,0.7744,-0.3739,0.4724,
12.687386,-0.3838,1.4746,0.1212,-2.9557,5.0505,-1.4853,0.7111,-1.0711,0.5039,
12.707668,-0.2599,1.3359,0.2714,-2.9557,5.0505,-1.4853,0.7111,-1.0711,0.5039,
12.709837,-0.2599,1.3359,0.2714,-1.9985,3.6018,0.2484,0.7111,-1.0711,0.5039,
12.711534,-0.2599,1.3359,0.2714,-1.9985,3.6018,0.2484,0.6051,-1.6320,0.5337,
12.727641,-0.2599,1.3359,0.2714,-1.9985,3.6018,0.2484,0.6338,-1.9691,0.4645,
12.746705,0.0161,1.0600,0.4671,-1.9985,3.6018,0.2484,0.6338,-1.9691,0.4645,
12.749670,0.0161,1.0600,0.4671,0.3514,0.8342,2.3758,0.6338,-1.9691,0.4645,
12.751672,0.0161,1.0600,0.4671,0.3514,0.8342,2.3758,0.7409,-2.2664,0.2892,
12.767009,0.0161,1.0600,0.4671,0.3514,0.8342,2.3758,0.7643,-2.5087,0.2072,
12.787198,0.1984,0.8575,0.3518,0.3514,0.8342,2.3758,0.7643,-2.5087,0.2072,
12.789636,0.1984,0.8575,0.3518,1.8461,-1.2132,1.5300,0.7643,-2.5087,0.2072,
12.791399,0.1984,0.8575,0.3518,1.8461,-1.2132,1.5300,0.5635,-2.2818,0.2258,
12.809999,0.1984,0.8575,0.3518,1.8461,-1.2132,1.5300,0.2541,-1.4099,0.2413,
12.827476,0.2194,0.9831,0.2013,1.8461,-1.2132,1.5300,0.2541,-1.4099,0.2413,
12.830888,0.2194,0.9831,0.2013,1.8205,-0.0083,0.2169,0.2541,-1.4099,0.2413,
12.832893,0.2194,0.9831,0.2013,1.8205,-0.0083,0.2169,0.0154,-0.2083,0.0879,
12.846514,0.2194,0.9831,0.2013,1.8205,-0.0083,0.2169,-0.1182,0.7276,0.0218,
12.867003,-0.0151,0.9552,0.1761,1.8205,-0.0083,0.2169,-0.1182,0.7276,0.0218,
12.869853,-0.0151,0.9552,0.1761,-0.4833,-0.2743,-0.0663,-0.1182,0.7276,0.0218,
12.871778,-0.0151,0.9552,0.1761,-0.4833,-0.2743,-0.0663,-0.0383,1.3028,0.1060,
12.886576,-0.0151,0.9552,0.1761,-0.4833,-0.2743,-0.0663,0.4868,2.0650,0.0703,
12.906304,-0.3376,1.0659,0.1981,-0.4833,-0.2743,-0.0663,0.4868,2.0650,0.0703,
12.909617,-0.3376,1.0659,0.1981,-3.5331,0.7959,0.2102,0.4868,2.0650,0.0703,
12.911712,-0.3376,1.0659,0.1981,-3.5331,0.7959,0.2102,1.6858,3.4855,-0.5188,
12.926710,-0.3376,1.0659,0.1981,-3.5331,0.7959,0.2102,2.6775,3.8509,-0.7638,
12.946071,-0.3464,0.6332,-0.0821,-3.5331,0.7959,0.2102,2.6775,3.8509,-0.7638,
12.948751,-0.3464,0.6332,-0.0821,-3.1726,-3.5583,-1.6900,2.6775,3.8509,-0.7638,
12.950811,-0.3464,0.6332,-0.0821,-3.1726,-3.5583,-1.6900,2.8134,3.0781,-0.1933,
12.966972,-0.3464,0.6332,-0.0821,-3.1726,-3.5583,-1.6900,2.3718,1.6964,0.6141,
12.986938,-0.1136,0.7681,-0.1732,-3.1726,-3.5583,-1.6900,2.3718,1.6964,0.6141,
12.989581,-0.1136,0.7681,-0.1732,-0.9334,-2.2764,-1.5450,2.3718,1.6964,0.6141,
12.991554,-0.1136,0.7681,-0.1732,-0.9334,-2.2764,-1.5450,1.9787,0.7627,1.1350,
13.007609,-0.1136,0.7681,-0.1732,-0.9334,-2.2764,-1.5450,1.8770,0.7132,1.2693,
13.026454,0.0628,0.7124,-0.3840,-0.9334,-2.2764,-1.5450,1.8770,0.7132,1.2693,
13.028914,0.0628,0.7124,-0.3840,0.3097,-2.7786,-2.8590,1.8770,0.7132,1.2693,
13.030734,0.0628,0.7124,-0.3840,0.3097,-2.7786,-2.8590,1.5622,0.6338,1.1537,
13.046887,0.0628,0.7124,-0.3840,0.3097,-2.7786,-2.8590,0.8687,0.2370,1.0136,
13.066010,0.0335,0.6130,-0.4752,0.3097,-2.7786,-2.8590,0.8687,0.2370,1.0136,
13.067076,0.0335,0.6130,-0.4752,-0.4178,-3.6750,-3.2884,0.8687,0.2370,1.0136,
13.067781,0.0335,0.6130,-0.4752,-0.4178,-3.6750,-3.2884,0.1555,0.0149,0.8879,
13.086074,0.0335,0.6130,-0.4752,-0.4178,-3.6750,-3.2884,-0.3143,0.2780,0.8155,
13.106691,-0.1087,0.6872,-0.2023,-0.4178,-3.6750,-3.2884,-0.3143,0.2780,0.8155,
13.108587,-0.1087,0.6872,-0.2023,-2.1478,-2.9204,-0.6505,-0.3143,0.2780,0.8155,
13.109910,-0.1087,0.6872,-0.2023,-2.1478,-2.9204,-0.6505,-0.5342,0.6296,0.8549,
13.127042,-0.1087,0.6872,-0.2023,-2.1478,-2.9204,-0.6505,-0.5641,0.6232,1.1798,
13.146485,0.0330,0.7065,-0.1571,-2.1478,-2.9204,-0.6505,-0.5641,0.6232,1.1798,
13.150061,0.0330,0.7065,-0.1571,-1.1814,-2.7052,-0.4511,-0.5641,0.6232,1.1798,
13.151977,0.0330,0.7065,-0.1571,-1.1814,-2.7052,-0.4511,-0.5550,0.3925,1.3566,
13.166451,0.0330,0.7065,-0.1571,-1.1814,-2.7052,-0.4511,-0.5204,0.2663,1.3577,
13.186704,0.4043,0.8258,-0.2707,-1.1814,-2.7052,-0.4511,-0.5204,0.2663,1.3577,
13.190897,0.4043,0.8258,-0.2707,1.9247,-1.4616,-1.7935,-0.5204,0.2663,1.3577,
13.193048,0.4043,0.8258,-0.2707,1.9247,-1.4616,-1.7935,-0.4165,0.3558,1.1409,
13.208952,0.4043,0.8258,-0.2707,1.9247,-1.4616,-1.7935,-0.2040,0.5800,0.6557,
13.226626,0.4977,1.0403,-0.3933,1.9247,-1.4616,-1.7935,-0.2040,0.5800,0.6557,
13.229201,0.4977,1.0403,-0.3933,2.4615,0.7212,-3.0856,-0.2040,0.5800,0.6557,
13.230861,0.4977,1.0403,-0.3933,2.4615,0.7212,-3.0856,0.0756,0.3947,-0.1119,
13.245846,0.4977,1.0403,-0.3933,2.4615,0.7212,-3.0856,0.3159,-0.0320,-0.5220,
13.266187,-0.0462,1.3666,-0.5316,2.4615,0.7212,-3.0856,0.3159,-0.0320,-0.5220,
13.270006,-0.0462,1.3666,-0.5316,-2.7536,3.8961,-4.3841,0.3159,-0.0320,-0.5220,
13.271534,-0.0462,1.3666,-0.5316,-2.7536,3.8961,-4.3841,0.2732,-0.4005,-0.4378,
13.286237,-0.0462,1.3666,-0.5316,-2.7536,3.8961,-4.3841,0.0905,-0.3808,-0.3228,
13.306078,0.2118,1.3943,-0.3877,-2.7536,3.8961,-4.3841,0.0905,-0.3808,-0.3228,
13.308491,0.2118,1.3943,-0.3877,-0.0670,4.1393,-2.8702,0.0905,-0.3808,-0.3228,
13.310250,0.2118,1.3943,-0.3877,-0.0670,4.1393,-2.8702,-0.2120,-0.4756,-0.2663,
13.325985,0.2118,1.3943,-0.3877,-0.0670,4.1393,-2.8702,-0.8139,-1.3545,-0.1704,
13.345853,0.3044,1.1360,-0.2455,-0.0670,4.1393,-2.8702,-0.8139,-1.3545,-0.1704,
13.348085,0.3044,1.1360,-0.2455,0.9555,1.5725,-1.5966,-0.8139,-1.3545,-0.1704,
13.349728,0.3044,1.1360,-0.2455,0.9555,1.5725,-1.5966,-1.1462,-0.7159,0.0368,
13.365462,0.3044,1.1360,-0.2455,0.9555,1.5725,-1.5966,-1.1132,0.1518,-0.3712,
13.386008,0.3359,0.9645,-0.1087,0.9555,1.5725,-1.5966,-1.1132,0.1518,-0.3712,
13.388428,0.3359,0.9645,-0.1087,1.3371,-0.1492,-0.6651,-1.1132,0.1518,-0.3712,
13.390288,0.3359,0.9645,-0.1087,1.3371,-0.1492,-0.6651,-1.1824,-0.4139,-0.8245,
13.409042,0.3359,0.9645,-0.1087,1.3371,-0.1492,-0.6651,-1.3209,-1.2006,-1.0903,
13.425792,0.3237,0.9528,0.0024,1.3371,-0.1492,-0.6651,-1.3209,-1.2006,-1.0903,
13.428090,0.3237,0.9528,0.0024,1.5815,-0.3394,0.0080,-1.3209,-1.2006,-1.0903,
13.429729,0.3237,0.9528,0.0024,1.5815,-0.3394,0.0080,-1.4211,-1.7939,-1.3785,
13.445882,0.3237,0.9528,0.0024,1.5815,-0.3394,0.0080,-1.4876,-2.0650,-1.7492,
13.465501,0.1950,0.9161,0.0755,1.5815,-0.3394,0.0080,-1.4876,-2.0650,-1.7492,
13.469184,0.1950,0.9161,0.0755,0.8567,-0.7613,0.2909,-1.4876,-2.0650,-1.7492,
13.471169,0.1950,0.9161,0.0755,0.8567,-0.7613,0.2909,-1.6213,-2.0432,-2.0618,
13.485948,0.1950,0.9161,0.0755,0.8567,-0.7613,0.2909,-1.7827,-1.9526,-2.1460,
13.506870,-0.2599,0.9995,0.2433,0.8567,-0.7613,0.2909,-1.7827,-1.9526,-2.1460,
13.510160,-0.2599,0.9995,0.2433,-2.8417,0.0488,1.3351,-1.7827,-1.9526,-2.1460,
13.512505,-0.2599,0.9995,0.2433,-2.8417,0.0488,1.3351,-1.8200,-1.8232,-1.6986,
13.527379,-0.2599,0.9995,0.2433,-2.8417,0.0488,1.3351,-1.5372,-0.9683,-1.1345,
13.546455,-0.5192,1.0747,0.4600,-2.8417,0.0488,1.3351,-1.5372,-0.9683,-1.1345,
13.549371,-0.5192,1.0747,0.4600,-4.8890,0.8764,2.8059,-1.5372,-0.9683,-1.1345,
13.551296,-0.5192,1.0747,0.4600,-4.8890,0.8764,2.8059,-1.0855,0.2354,-0.9273,
13.565308,-0.5192,1.0747,0.4600,-4.8890,0.8764,2.8059,-0.7185,1.1041,-0.6045,
13.586598,-0.4219,0.8553,0.3068,-4.8890,0.8764,2.8059,-0.7185,1.1041,-0.6045,
13.589310,-0.4219,0.8553,0.3068,-3.5285,-1.1881,0.9542,-0.7185,1.1041,-0.6045,
13.591405,-0.4219,0.8553,0.3068,-3.5285,-1.1881,0.9542,-0.4645,1.2666,-0.3894,
13.609259,-0.4219,0.8553,0.3068,-3.5285,-1.1881,0.9542,-0.3260,1.0946,-0.3867,
13.625947,-0.3349,0.6437,0.1051,-3.5285,-1.1881,0.9542,-0.3260,1.0946,-0.3867,
13.628435,-0.3349,0.6437,0.1051,-2.4286,-3.2168,-1.1398,-0.3260,1.0946,-0.3867,
13.630421,-0.3349,0.6437,0.1051,-2.4286,-3.2168,-1.1398,-0.3483,0.8064,-0.4538,
13.646073,-0.3349,0.6437,0.1051,-2.4286,-3.2168,-1.1398,-0.4895,0.5582,-0.4932,
13.665677,-0.3757,0.6589,0.0498,-2.4286,-3.2168,-1.1398,-0.4895,0.5582,-0.4932,
13.668487,-0.3757,0.6589,0.0498,-2.5881,-3.0125,-1.8135,-0.4895,0.5582,-0.4932,
13.670299,-0.3757,0.6589,0.0498,-2.5881,-3.0125,-1.8135,-0.6605,0.4586,-0.4144,
13.685539,-0.3757,0.6589,0.0498,-2.5881,-3.0125,-1.8135,-0.7505,0.4229,-0.2493,
13.705468,-0.1867,0.7464,0.1317,-2.5881,-3.0125,-1.8135,-0.7505,0.4229,-0.2493,
13.708607,-0.1867,0.7464,0.1317,-0.5674,-2.0715,-1.2562,-0.7505,0.4229,-0.2493,
13.710625,-0.1867,0.7464,0.1317,-0.5674,-2.0715,-1.2562,-0.6509,0.1875,-0.1763,
13.724913,-0.1867,0.7464,0.1317,-0.5674,-2.0715,-1.2562,-0.4000,-0.0298,-0.1385,
13.745801,-0.0848,0.8267,0.1268,-0.5674,-2.0715,-1.2562,-0.4000,-0.0298,-0.1385,
13.749403,-0.0848,0.8267,0.1268,0.4979,-1.2202,-1.4964,-0.4000,-0.0298,-0.1385,
13.751472,-0.0848,0.8267,0.1268,0.4979,-1.2202,-1.4964,-0.1332,-0.2221,-0.0863,
13.765183,-0.0848,0.8267,0.1268,0.4979,-1.2202,-1.4964,0.0346,-0.3249,0.0107,
13.785120,-0.1278,0.8732,0.0730,0.4979,-1.2202,-1.4964,0.0346,-0.3249,0.0107,
13.787427,-0.1278,0.8732,0.0730,0.0604,-0.7579,-2.0559,0.0346,-0.3249,0.0107,
13.789145,-0.1278,0.8732,0.0730,0.0604,-0.7579,-2.0559,0.0357,-0.0746,0.1001,
13.805065,-0.1278,0.8732,0.0730,0.0604,-0.7579,-2.0559,-0.1012,0.4570,0.1870,
13.825406,-0.3017,0.9191,0.1459,0.0604,-0.7579,-2.0559,-0.1012,0.4570,0.1870,
13.827762,-0.3017,0.9191,0.1459,-1.6765,-0.3115,-1.3449,-0.1012,0.4570,0.1870,
13.829732,-0.3017,0.9191,0.1459,-1.6765,-0.3115,-1.3449,-0.2748,0.8495,0.2322,
13.845539,-0.3017,0.9191,0.1459,-1.6765,-0.3115,-1.3449,-0.3483,0.9305,0.2716,
13.865054,-0.4180,1.0341,0.2165,-1.6765,-0.3115,-1.3449,-0.3483,0.9305,0.2716,
13.867587,-0.4180,1.0341,0.2165,-2.7404,0.8339,-0.6764,-0.3483,0.9305,0.2716,
13.869507,-0.4180,1.0341,0.2165,-2.7404,0.8339,-0.6764,-0.2535,0.7212,0.3585,
13.885116,-0.4180,1.0341,0.2165,-2.7404,0.8339,-0.6764,-0.0485,0.4953,0.4437,
13.905658,-0.4285,1.2020,0.1483,-2.7404,0.8339,-0.6764,-0.0485,0.4953,0.4437,
13.908131,-0.4285,1.2020,0.1483,-2.9239,2.4745,-1.3683,-0.0485,0.4953,0.4437,
13.909913,-0.4285,1.2020,0.1483,-2.9239,2.4745,-1.3683,0.1987,0.4133,0.5076,
13.925250,-0.4285,1.2020,0.1483,-2.9239,2.4745,-1.3683,0.4730,0.3494,0.5412,
13.944896,-0.3325,1.4255,0.1385,-2.9239,2.4745,-1.3683,0.4730,0.3494,0.5412,
13.947071,-0.3325,1.4255,0.1385,-2.1362,4.6033,-1.3205,0.4730,0.3494,0.5412,
13.948922,-0.3325,1.4255,0.1385,-2.1362,4.6033,-1.3205,0.7952,0.0474,0.5236,
13.964965,-0.3325,1.4255,0.1385,-2.1362,4.6033,-1.3205,1.0104,-0.5108,0.5055,
13.985327,-0.3823,1.4043,0.0667,-2.1362,4.6033,-1.3205,1.0104,-0.5108,0.5055,
13.989408,-0.3823,1.4043,0.0667,-2.8406,4.2834,-1.6934,1.0104,-0.5108,0.5055,
13.991375,-0.3823,1.4043,0.0667,-2.8406,4.2834,-1.6934,0.8799,-1.0621,0.5039,
14.006711,-0.3823,1.4043,0.0667,-2.8406,4.2834,-1.6934,0.4229,-1.4125,0.4842,
14.025934,-0.1397,1.2289,0.2726,-2.8406,4.2834,-1.6934,0.4229,-1.4125,0.4842,
14.028151,-0.1397,1.2289,0.2726,-0.7602,2.4912,0.5353,0.4229,-1.4125,0.4842,
14.029812,-0.1397,1.2289,0.2726,-0.7602,2.4912,0.5353,0.1880,-1.5968,0.4756,
14.045388,-0.1397,1.2289,0.2726,-0.7602,2.4912,0.5353,0.3270,-1.7502,0.3345,
14.065456,0.0838,0.9469,0.3645,-0.7602,2.4912,0.5353,0.3270,-1.7502,0.3345,
14.068493,0.0838,0.9469,0.3645,1.1347,-0.3010,1.5036,0.3270,-1.7502,0.3345,
14.070254,0.0838,0.9469,0.3645,1.1347,-0.3010,1.5036,0.5060,-1.8125,0.1971,
14.084466,0.0838,0.9469,0.3645,1.1347,-0.3010,1.5036,0.5555,-1.7508,0.1246,
14.105018,0.2162,0.9154,0.3015,1.1347,-0.3010,1.5036,0.5555,-1.7508,0.1246,
14.107249,0.2162,0.9154,0.3015,2.2261,-0.6518,1.0677,0.5555,-1.7508,0.1246,
14.109053,0.2162,0.9154,0.3015,2.2261,-0.6518,1.0677,0.4692,-1.4695,0.1449,
14.124277,0.2162,0.9154,0.3015,2.2261,-0.6518,1.0677,0.3862,-1.0306,0.1395,
14.145713,0.2915,1.0170,0.2184,2.2261,-0.6518,1.0677,0.3862,-1.0306,0.1395,
14.147958,0.2915,1.0170,0.2184,2.8022,0.3147,0.4086,0.3862,-1.0306,0.1395,
14.149581,0.2915,1.0170,0.2184,2.8022,0.3147,0.4086,0.3542,-0.4858,0.0266,
14.165178,0.2915,1.0170,0.2184,2.8022,0.3147,0.4086,0.3292,0.0671,-0.0160,
14.184649,0.0650,0.9511,0.0838,2.8022,0.3147,0.4086,0.3292,0.0671,-0.0160,
14.186573,0.0650,0.9511,0.0838,0.5341,-0.3534,-0.7831,0.3292,0.0671,-0.0160,
14.188432,0.0650,0.9511,0.0838,0.5341,-0.3534,-0.7831,0.3345,0.5076,0.1071,
14.203994,0.0650,0.9511,0.0838,0.5341,-0.3534,-0.7831,0.5555,1.0743,0.2008,
14.224215,-0.0958,0.9176,0.0625,0.5341,-0.3534,-0.7831,0.5555,1.0743,0.2008,
14.226815,-0.0958,0.9176,0.0625,-1.0542,-0.7079,-0.8210,0.5555,1.0743,0.2008,
14.228790,-0.0958,0.9176,0.0625,-1.0542,-0.7079,-0.8210,1.0578,1.9468,0.0927,
14.245136,-0.0958,0.9176,0.0625,-1.0542,-0.7079,-0.8210,1.9638,3.1031,-0.4224,
14.264950,-0.3608,0.7840,-0.0694,-1.0542,-0.7079,-0.8210,1.9638,3.1031,-0.4224,
14.267281,-0.3608,0.7840,-0.0694,-3.4713,-2.0865,-1.5307,1.9638,3.1031,-0.4224,
14.269352,-0.3608,0.7840,-0.0694,-3.4713,-2.0865,-1.5307,2.3415,2.8160,-0.3601,
14.284968,-0.3608,0.7840,-0.0694,-3.4713,-2.0865,-1.5307,2.2024,1.6416,0.1545,
14.304787,-0.1749,0.6919,-0.1830,-3.4713,-2.0865,-1.5307,2.2024,1.6416,0.1545,
14.307254,-0.1749,0.6919,-0.1830,-1.5689,-3.0251,-1.7442,2.2024,1.6416,0.1545,
14.309335,-0.1749,0.6919,-0.1830,-1.5689,-3.0251,-1.7442,1.9936,0.5646,0.5422,
14.324031,-0.1749,0.6919,-0.1830,-1.5689,-3.0251,-1.7442,1.9297,0.0905,0.7153,
14.344331,-0.1038,0.7894,-0.2375,-1.5689,-3.0251,-1.7442,1.9297,0.0905,0.7153,
14.347803,-0.1038,0.7894,-0.2375,-1.1220,-2.0363,-1.5098,1.9297,0.0905,0.7153,
14.350220,-0.1038,0.7894,-0.2375,-1.1220,-2.0363,-1.5098,1.8562,0.0501,0.8421,
14.364235,-0.1038,0.7894,-0.2375,-1.1220,-2.0363,-1.5098,1.4370,-0.0458,0.9390,
14.385124,-0.0828,0.7945,-0.4170,-1.1220,-2.0363,-1.5098,1.4370,-0.0458,0.9390,
14.387724,-0.0828,0.7945,-0.4170,-1.2620,-1.9013,-2.6291,1.4370,-0.0458,0.9390,
14.389727,-0.0828,0.7945,-0.4170,-1.2620,-1.9013,-2.6291,0.7654,-0.0527,0.9976,
14.404898,-0.0828,0.7945,-0.4170,-1.2620,-1.9013,-2.6291,0.1683,0.2956,0.9827,
14.423811,-0.0970,0.6819,-0.4483,-1.2620,-1.9013,-2.6291,0.1683,0.2956,0.9827,
14.426591,-0.0970,0.6819,-0.4483,-1.7908,-2.9507,-2.7592,0.1683,0.2956,0.9827,
14.428438,-0.0970,0.6819,-0.4483,-1.7908,-2.9507,-2.7592,-0.3542,0.4991,1.1159,
14.444325,-0.0970,0.6819,-0.4483,-1.7908,-2.9507,-2.7592,-0.7515,0.4788,1.3923,
14.464074,-0.0706,0.6359,-0.2343,-1.7908,-2.9507,-2.7592,-0.7515,0.4788,1.3923,
14.466805,-0.0706,0.6359,-0.2343,-2.0439,-3.3794,-0.8952,-0.7515,0.4788,1.3923,
14.468830,-0.0706,0.6359,-0.2343,-2.0439,-3.3794,-0.8952,-0.8986,0.4085,1.6693,
14.484119,-0.0706,0.6359,-0.2343,-2.0439,-3.3794,-0.8952,-0.8874,0.2477,1.7252,
14.504651,0.3792,0.7437,-0.2609,-2.0439,-3.3794,-0.8952,-0.8874,0.2477,1.7252,
14.507724,0.3792,0.7437,-0.2609,1.6980,-2.2526,-1.5195,-0.8874,0.2477,1.7252,
14.510128,0.3792,0.7437,-0.2609,1.6980,-2.2526,-1.5195,-0.7755,0.0826,1.5739,
14.525824,0.3792,0.7437,-0.2609,1.6980,-2.2526,-1.5195,-0.6599,-0.0336,1.0360,
14.544372,0.7793,0.8121,-0.2768,1.6980,-2.2526,-1.5195,-0.6599,-0.0336,1.0360,
14.546820,0.7793,0.8121,-0.2768,5.1216,-1.4894,-1.9500,-0.6599,-0.0336,1.0360,
14.548657,0.7793,0.8121,-0.2768,5.1216,-1.4894,-1.9500,-0.4570,-0.1598,0.1364,
14.564005,0.7793,0.8121,-0.2768,5.1216,-1.4894,-1.9500,-0.2530,-0.3883,-0.2855,
14.584449,0.1349,0.9179,-0.3816,5.1216,-1.4894,-1.9500,-0.2530,-0.3883,-0.2855,
14.588910,0.1349,0.9179,-0.3816,-1.1652,-0.4663,-3.0541,-0.2530,-0.3883,-0.2855,
14.591264,0.1349,0.9179,-0.3816,-1.1652,-0.4663,-3.0541,-0.1880,-0.5715,-0.3180,
14.604481,0.1349,0.9179,-0.3816,-1.1652,-0.4663,-3.0541,-0.1609,-0.6040,-0.3292,
14.623800,0.0579,1.4241,-0.4420,-1.1652,-0.4663,-3.0541,-0.1609,-0.6040,-0.3292,
14.627071,0.0579,1.4241,-0.4420,-1.7810,4.4585,-3.6548,-0.1609,-0.6040,-0.3292,
14.629698,0.0579,1.4241,-0.4420,-1.7810,4.4585,-3.6548,0.0091,-0.5124,-0.3750,
14.643725,0.0579,1.4241,-0.4420,-1.7810,4.4585,-3.6548,0.1688,-0.6466,-0.1342,
14.664157,0.2294,1.3271,-0.4420,-1.7810,4.4585,-3.6548,0.1688,-0.6466,-0.1342,
14.666458,0.2294,1.3271,-0.4420,0.0130,3.4873,-3.5683,0.1688,-0.6466,-0.1342,
14.668226,0.2294,1.3271,-0.4420,0.0130,3.4873,-3.5683,0.0000,-1.1819,-0.2844,
14.684052,0.2294,1.3271,-0.4420,0.0130,3.4873,-3.5683,-0.5582,-1.8243,-0.4474,
14.704348,0.3447,1.0102,-0.3310,0.0130,3.4873,-3.5683,-0.5582,-1.8243,-0.4474,
14.706642,0.3447,1.0102,-0.3310,1.3302,0.3418,-2.4590,-0.5582,-1.8243,-0.4474,
14.708374,0.3447,1.0102,-0.3310,1.3302,0.3418,-2.4590,-1.1111,-2.1023,0.1044,
14.723369,0.3447,1.0102,-0.3310,1.3302,0.3418,-2.4590,-1.1697,-1.1670,0.2328,
14.744329,0.5201,1.1656,-0.2238,1.3302,0.3418,-2.4590,-1.1697,-1.1670,0.2328,
14.746582,0.5201,1.1656,-0.2238,3.0284,1.8490,-1.7102,-1.1697,-1.1670,0.2328,
14.748348,0.5201,1.1656,-0.2238,3.0284,1.8490,-1.7102,-1.3481,-1.2661,-0.4282,
14.763945,0.5201,1.1656,-0.2238,3.0284,1.8490,-1.7102,-1.6735,-2.3228,-0.5960,
14.784033,0.3806,0.9802,0.0024,3.0284,1.8490,-1.7102,-1.6735,-2.3228,-0.5960,
14.786312,0.3806,0.9802,0.0024,1.8748,-0.0239,0.0674,-1.6735,-2.3228,-0.5960,
14.788009,0.3806,0.9802,0.0024,1.8748,-0.0239,0.0674,-1.9857,-3.2789,-0.7057,
14.803770,0.3806,0.9802,0.0024,1.8748,-0.0239,0.0674,-2.1167,-3.7449,-0.9167,
14.823976,0.4104,0.9675,0.1283,1.8748,-0.0239,0.0674,-2.1167,-3.7449,-0.9167,
14.826085,0.4104,0.9675,0.1283,2.4446,-0.1847,0.7513,-2.1167,-3.7449,-0.9167,
14.827761,0.4104,0.9675,0.1283,2.4446,-0.1847,0.7513,-2.2637,-3.6863,-1.2820,
14.843344,0.4104,0.9675,0.1283,2.4446,-0.1847,0.7513,-2.3915,-3.2736,-1.7066,
14.863929,0.1043,0.9631,0.6503,2.4446,-0.1847,0.7513,-2.3915,-3.2736,-1.7066,
14.866886,0.1043,0.9631,0.6503,-0.0967,-0.2285,5.1580,-2.3915,-3.2736,-1.7066,
14.868706,0.1043,0.9631,0.6503,-0.0967,-0.2285,5.1580,-1.9681,-2.3745,-1.8978,
14.884081,0.1043,0.9631,0.6503,-0.0967,-0.2285,5.1580,-1.0322,-1.3252,-1.6826,
14.903732,-0.0919,1.0029,0.7481,-0.0967,-0.2285,5.1580,-1.0322,-1.3252,-1.6826,
14.906179,-0.0919,1.0029,0.7481,-1.4381,0.1904,5.6010,-1.0322,-1.3252,-1.6826,
14.907968,-0.0919,1.0029,0.7481,-1.4381,0.1904,5.6010,0.0021,-0.7409,-1.4216,
14.923963,-0.0919,1.0029,0.7481,-1.4381,0.1904,5.6010,0.6344,-0.6242,-1.3044,
14.944098,-0.1994,0.8306,0.2509,-1.4381,0.1904,5.6010,0.6344,-0.6242,-1.3044,
14.946193,-0.1994,0.8306,0.2509,-2.0017,-1.5207,0.7758,0.6344,-0.6242,-1.3044,
14.948069,-0.1994,0.8306,0.2509,-2.0017,-1.5207,0.7758,0.6290,-0.6695,-1.3385,
14.963369,-0.1994,0.8306,0.2509,-2.0017,-1.5207,0.7758,0.2903,-0.5491,-1.2282,
14.983355,-0.4129,0.7808,0.0845,-2.0017,-1.5207,0.7758,0.2903,-0.5491,-1.2282,
14.985714,-0.4129,0.7808,0.0845,-3.6249,-2.0273,-0.6903,0.2903,-0.5491,-1.2282,
14.987602,-0.4129,0.7808,0.0845,-3.6249,-2.0273,-0.6903,-0.0671,-0.1928,-1.0535,
15.003275,-0.4129,0.7808,0.0845,-3.6249,-2.0273,-0.6903,-0.4485,0.1273,-0.7942,
15.023274,-0.4933,0.6601,0.0528,-3.6249,-2.0273,-0.6903,-0.4485,0.1273,-0.7942,
15.026030,-0.4933,0.6601,0.0528,-4.0578,-3.1719,-1.1012,-0.4485,0.1273,-0.7942,
15.028111,-0.4933,0.6601,0.0528,-4.0578,-3.1719,-1.1012,-0.7382,0.4879,-0.5433,
15.043948,-0.4933,0.6601,0.0528,-4.0578,-3.1719,-1.1012,-0.9135,0.7217,-0.3329,
15.063900,-0.4129,0.6232,0.1114,-4.0578,-3.1719,-1.1012,-0.9135,0.7217,-0.3329,
15.066246,-0.4129,0.6232,0.1114,-3.0591,-3.4598,-0.8217,-0.9135,0.7217,-0.3329,
15.068285,-0.4129,0.6232,0.1114,-3.0591,-3.4598,-0.8217,-0.9481,0.6258,-0.2407,
15.083210,-0.4129,0.6232,0.1114,-3.0591,-3.4598,-0.8217,-0.7766,0.1816,-0.3377,
15.103373,-0.2453,0.7710,0.1502,-3.0591,-3.4598,-0.8217,-0.7766,0.1816,-0.3377,
15.106034,-0.2453,0.7710,0.1502,-1.2740,-1.9278,-0.7522,-0.7766,0.1816,-0.3377,
15.108004,-0.2453,0.7710,0.1502,-1.2740,-1.9278,-0.7522,-0.3878,-0.5630,-0.4511,
15.123690,-0.2453,0.7710,0.1502,-1.2740,-1.9278,-0.7522,0.0549,-1.2267,-0.3089,
15.142939,-0.1275,0.8199,0.0264,-1.2740,-1.9278,-0.7522,0.0549,-1.2267,-0.3089,
15.145550,-0.1275,0.8199,0.0264,-0.0587,-1.4162,-2.0712,0.0549,-1.2267,-0.3089,
15.147509,-0.1275,0.8199,0.0264,-0.0587,-1.4162,-2.0712,0.4213,-1.4679,-0.1273,
15.163108,-0.1275,0.8199,0.0264,-0.0587,-1.4162,-2.0712,0.6179,-1.2932,0.0447,
15.183547,-0.1322,0.8570,-0.0858,-0.0587,-1.4162,-2.0712,0.6179,-1.2932,0.0447,
15.186118,-0.1322,0.8570,-0.0858,-0.2141,-1.0973,-3.0367,0.6179,-1.2932,0.0447,
15.187757,-0.1322,0.8570,-0.0858,-0.2141,-1.0973,-3.0367,0.5449,-0.8655,0.1502,
15.203300,-0.1322,0.8570,-0.0858,-0.2141,-1.0973,-3.0367,0.2690,-0.4256,0.2280,
15.222832,-0.2551,0.8959,0.0958,-0.2141,-1.0973,-3.0367,0.2690,-0.4256,0.2280,
15.225315,-0.2551,0.8959,0.0958,-1.5453,-0.7590,-1.1296,0.2690,-0.4256,0.2280,
15.227177,-0.2551,0.8959,0.0958,-1.5453,-0.7590,-1.1296,0.0426,-0.2328,0.2764,
15.242993,-0.2551,0.8959,0.0958,-1.5453,-0.7590,-1.1296,-0.0602,-0.1875,0.2706,
15.263309,-0.2922,0.9152,0.2309,-1.5453,-0.7590,-1.1296,-0.0602,-0.1875,0.2706,
15.265855,-0.2922,0.9152,0.2309,-2.0167,-0.5787,0.1887,-0.0602,-0.1875,0.2706,
15.267757,-0.2922,0.9152,0.2309,-2.0167,-0.5787,0.1887,-0.0703,-0.2461,0.2684,
15.282599,-0.2922,0.9152,0.2309,-2.0167,-0.5787,0.1887,-0.0618,-0.4911,0.2684,
15.303205,-0.3110,0.9340,0.1410,-2.0167,-0.5787,0.1887,-0.0618,-0.4911,0.2684,
15.305504,-0.3110,0.9340,0.1410,-2.2902,-0.3969,-0.7150,-0.0618,-0.4911,0.2684,
15.307386,-0.3110,0.9340,0.1410,-2.2902,-0.3969,-0.7150,-0.0804,-0.6519,0.2791,
15.323757,-0.3110,0.9340,0.1410,-2.2902,-0.3969,-0.7150,-0.1252,-0.5657,0.2908,
15.342749,-0.3315,1.0298,-0.0107,-2.2902,-0.3969,-0.7150,-0.1252,-0.5657,0.2908,
15.345199,-0.3315,1.0298,-0.0107,-2.5723,0.5377,-2.2114,-0.1252,-0.5657,0.2908,
15.346916,-0.3315,1.0298,-0.0107,-2.5723,0.5377,-2.2114,-0.1891,-0.4059,0.3148,
15.362364,-0.3315,1.0298,-0.0107,-2.5723,0.5377,-2.2114,-0.2344,-0.2178,0.3185,
15.382230,-0.3396,1.1798,-0.0042,-2.5723,0.5377,-2.2114,-0.2344,-0.2178,0.3185,
15.384564,-0.3396,1.1798,-0.0042,-2.7977,2.0182,-2.2344,-0.2344,-0.2178,0.3185,
15.386375,-0.3396,1.1798,-0.0042,-2.7977,2.0182,-2.2344,-0.1928,-0.1161,0.2882,
15.403163,-0.3396,1.1798,-0.0042,-2.7977,2.0182,-2.2344,-0.0256,-0.3036,0.2637,
15.422419,-0.3606,1.3581,0.1065,-2.7977,2.0182,-2.2344,-0.0256,-0.3036,0.2637,
15.425185,-0.3606,1.3581,0.1065,-3.1275,3.7704,-1.1952,-0.0256,-0.3036,0.2637,
15.426853,-0.3606,1.3581,0.1065,-3.1275,3.7704,-1.1952,0.2445,-0.7414,0.2802,
15.443450,-0.3606,1.3581,0.1065,-3.1275,3.7704,-1.1952,0.5481,-1.2373,0.3377,
