
time,gFx,gFy,gFz,ax,ay,az,wx,wy,wz,
0.011058,0.1009,0.2976,1.0605,0.0000,0.0000,0.0000,0.0000,0.0000,0.0000,
0.029346,0.1009,0.2976,1.0605,0.0000,0.0000,0.0000,-0.3020,-0.2189,-0.6061,
0.052925,0.0794,0.3577,1.0119,0.0000,0.0000,0.0000,-0.3020,-0.2189,-0.6061,
0.054356,0.0794,0.3577,1.0119,0.0000,0.0000,0.0000,-0.3020,-0.2189,-0.6061,
0.069780,0.0794,0.3577,1.0119,0.0000,0.0000,0.0000,-0.3020,-0.2189,-0.6061,
0.089784,0.0279,0.4268,0.8644,0.0000,0.0000,0.0000,-0.3020,-0.2189,-0.6061,
0.091618,0.0279,0.4268,0.8644,-0.0103,-0.1574,-0.3187,-0.3020,-0.2189,-0.6061,
0.093585,0.0279,0.4268,0.8644,-0.0103,-0.1574,-0.3187,-0.3020,-0.2189,-0.6061,
0.110270,0.0279,0.4268,0.8644,-0.0103,-0.1574,-0.3187,1.6032,1.1782,-0.5433,
0.129966,-0.0691,0.5587,0.8045,-0.0103,-0.1574,-0.3187,1.6032,1.1782,-0.5433,
0.132354,-0.0691,0.5587,0.8045,-0.5377,0.5782,-0.6110,1.6032,1.1782,-0.5433,
0.134116,-0.0691,0.5587,0.8045,-0.5377,0.5782,-0.6110,1.4450,1.0440,-0.7169,
0.150408,-0.0691,0.5587,0.8045,-0.5377,0.5782,-0.6110,1.4040,0.8810,-0.7350,
0.169901,-0.2470,0.5675,0.7637,-0.5377,0.5782,-0.6110,1.4040,0.8810,-0.7350,
0.172319,-0.2470,0.5675,0.7637,-1.2636,0.2876,-0.7020,1.4040,0.8810,-0.7350,
0.174066,-0.2470,0.5675,0.7637,-1.2636,0.2876,-0.7020,1.4061,0.8011,-0.6333,
0.189489,-0.2470,0.5675,0.7637,-1.2636,0.2876,-0.7020,1.5047,1.0546,-0.5545,
0.210270,-0.2133,0.5800,0.7571,-1.2636,0.2876,-0.7020,1.5047,1.0546,-0.5545,
0.213761,-0.2133,0.5800,0.7571,-0.5048,0.1623,-0.5283,1.5047,1.0546,-0.5545,
0.215624,-0.2133,0.5800,0.7571,-0.5048,0.1623,-0.5283,1.7694,1.6618,-0.4863,
0.230108,-0.2133,0.5800,0.7571,-0.5048,0.1623,-0.5283,2.1396,2.0251,-0.4916,
0.249757,-0.3555,0.6291,0.6230,-0.5048,0.1623,-0.5283,2.1396,2.0251,-0.4916,
0.251973,-0.3555,0.6291,0.6230,-0.9935,0.1835,-1.2563,2.1396,2.0251,-0.4916,
0.253516,-0.3555,0.6291,0.6230,-0.9935,0.1835,-1.2563,2.3201,1.7678,-0.5774,
0.269120,-0.3555,0.6291,0.6230,-0.9935,0.1835,-1.2563,2.2211,1.4264,-0.6695,
0.289441,-0.3491,0.6977,0.3899,-0.9935,0.1835,-1.2563,2.2211,1.4264,-0.6695,
0.291466,-0.3491,0.6977,0.3899,-0.2887,-0.0291,-2.4400,2.2211,1.4264,-0.6695,
0.293262,-0.3491,0.6977,0.3899,-0.2887,-0.0291,-2.4400,2.0458,1.4983,-0.6658,
0.309557,-0.3491,0.6977,0.3899,-0.2887,-0.0291,-2.4400,1.9952,1.8285,-0.6179,
0.329873,-0.6973,0.6604,-0.0247,-0.2887,-0.0291,-2.4400,1.9952,1.8285,-0.6179,
0.332050,-0.6973,0.6604,-0.0247,-1.5118,-0.9150,-3.8879,1.9952,1.8285,-0.6179,
0.334071,-0.6973,0.6604,-0.0247,-1.5118,-0.9150,-3.8879,1.3875,1.2948,-0.2546,
0.350085,-0.6973,0.6604,-0.0247,-1.5118,-0.9150,-3.8879,0.8794,1.0594,-0.2887,
0.371586,-0.3520,0.7515,0.4845,-1.5118,-0.9150,-3.8879,0.8794,1.0594,-0.2887,
0.375117,-0.3520,0.7515,0.4845,2.1090,-0.1150,1.6943,0.8794,1.0594,-0.2887,
0.376749,-0.3520,0.7515,0.4845,2.1090,-0.1150,1.6943,1.3822,0.8677,-0.7313,
0.389340,-0.3520,0.7515,0.4845,2.1090,-0.1150,1.6943,1.4946,1.2804,-0.6951,
0.409862,-0.6577,0.7845,0.4190,2.1090,-0.1150,1.6943,1.4946,1.2804,-0.6951,
0.411732,-0.6577,0.7845,0.4190,-0.5772,0.2166,1.6732,1.4946,1.2804,-0.6951,
0.413560,-0.6577,0.7845,0.4190,-0.5772,0.2166,1.6732,1.6682,1.6240,-0.6301,
0.429353,-0.6577,0.7845,0.4190,-0.5772,0.2166,1.6732,1.8109,1.6277,-0.3979,
0.449728,-0.6022,0.8648,0.1019,-0.5772,0.2166,1.6732,1.8109,1.6277,-0.3979,
0.451677,-0.6022,0.8648,0.1019,0.2225,0.9785,-0.5700,1.8109,1.6277,-0.3979,
0.453462,-0.6022,0.8648,0.1019,0.2225,0.9785,-0.5700,1.5649,1.0258,-0.3419,
0.469461,-0.6022,0.8648,0.1019,0.2225,0.9785,-0.5700,1.2959,0.5316,-0.3723,
0.489928,-0.5057,0.7906,0.2033,0.2225,0.9785,-0.5700,1.2959,0.5316,-0.3723,
0.491746,-0.5057,0.7906,0.2033,1.2869,0.2508,0.9947,1.2959,0.5316,-0.3723,
0.493355,-0.5057,0.7906,0.2033,1.2869,0.2508,0.9947,1.2085,0.5119,-0.4703,
0.509569,-0.5057,0.7906,0.2033,1.2869,0.2508,0.9947,1.2799,0.8485,-0.5033,
0.529356,-0.5438,0.7774,0.3132,1.2869,0.2508,0.9947,1.2799,0.8485,-0.5033,
0.532526,-0.5438,0.7774,0.3132,1.0480,0.1877,2.5376,1.2799,0.8485,-0.5033,
0.534041,-0.5438,0.7774,0.3132,1.0480,0.1877,2.5376,1.5750,1.1057,-0.5071,
0.549067,-0.5438,0.7774,0.3132,1.0480,0.1877,2.5376,1.7428,1.0189,-0.2791,
0.568895,-0.5670,0.8275,0.0249,1.0480,0.1877,2.5376,1.7428,1.0189,-0.2791,
0.570710,-0.5670,0.8275,0.0249,0.9130,0.7415,0.4093,1.7428,1.0189,-0.2791,
0.572164,-0.5670,0.8275,0.0249,0.9130,0.7415,0.4093,1.4844,0.6541,-0.2109,
0.589622,-0.5670,0.8275,0.0249,0.9130,0.7415,0.4093,1.0589,0.3659,-0.1614,
0.609756,-0.5089,0.9205,0.0545,0.9130,0.7415,0.4093,1.0589,0.3659,-0.1614,
0.611584,-0.5089,0.9205,0.0545,1.4892,1.6826,1.1422,1.0589,0.3659,-0.1614,
0.613131,-0.5089,0.9205,0.0545,1.4892,1.6826,1.1422,0.9784,0.4863,0.0543,
0.629783,-0.5089,0.9205,0.0545,1.4892,1.6826,1.1422,1.6245,1.1761,0.2562,
0.649752,-0.4654,1.1917,-0.0840,1.4892,1.6826,1.1422,1.6245,1.1761,0.2562,
0.651525,-0.4654,1.1917,-0.0840,1.8393,4.3469,0.3797,1.6245,1.1761,0.2562,
0.653020,-0.4654,1.1917,-0.0840,1.8393,4.3469,0.3797,1.9079,0.3686,0.8112,
0.669554,-0.4654,1.1917,-0.0840,1.8393,4.3469,0.3797,1.1750,-0.2264,1.7726,
0.688809,-0.2590,0.9604,0.0428,1.8393,4.3469,0.3797,1.1750,-0.2264,1.7726,
0.691059,-0.2590,0.9604,0.0428,3.4537,1.8269,2.0753,1.1750,-0.2264,1.7726,
0.692411,-0.2590,0.9604,0.0428,3.4537,1.8269,2.0753,0.6743,0.0133,1.9729,
0.708707,-0.2590,0.9604,0.0428,3.4537,1.8269,2.0753,0.4645,0.0096,2.0219,
0.729194,-0.5069,0.8942,0.1295,3.4537,1.8269,2.0753,0.4645,0.0096,2.0219,
0.731343,-0.5069,0.8942,0.1295,0.3839,0.7430,3.0610,0.4645,0.0096,2.0219,
0.732615,-0.5069,0.8942,0.1295,0.3839,0.7430,3.0610,0.3206,-0.5076,2.1380,
0.749683,-0.5069,0.8942,0.1295,0.3839,0.7430,3.0610,0.0016,-0.8911,2.0618,
0.769058,-0.5905,0.7698,0.0669,0.3839,0.7430,3.0610,0.0016,-0.8911,2.0618,
0.770971,-0.5905,0.7698,0.0669,-1.0625,-0.8957,2.2753,0.0016,-0.8911,2.0618,
0.772772,-0.5905,0.7698,0.0669,-1.0625,-0.8957,2.2753,-0.3622,-1.3785,1.7625,
0.789058,-0.5905,0.7698,0.0669,-1.0625,-0.8957,2.2753,-0.6322,-1.6549,1.3955,
0.809508,-0.6332,0.7867,0.0100,-1.0625,-0.8957,2.2753,-0.6322,-1.6549,1.3955,
0.812330,-0.6332,0.7867,0.0100,-1.8892,-1.0251,1.2148,-0.6322,-1.6549,1.3955,
0.814668,-0.6332,0.7867,0.0100,-1.8892,-1.0251,1.2148,-0.9097,-1.7358,0.8559,
0.828862,-0.6332,0.7867,0.0100,-1.8892,-1.0251,1.2148,-1.1505,-1.6437,0.3611,
0.850911,-0.8174,0.8199,-0.1051,-1.8892,-1.0251,1.2148,-1.1505,-1.6437,0.3611,
0.852997,-0.8174,0.8199,-0.1051,-3.8241,-0.8208,-0.5645,-1.1505,-1.6437,0.3611,
0.855043,-0.8174,0.8199,-0.1051,-3.8241,-0.8208,-0.5645,-1.4131,-1.7209,0.1230,
0.869857,-0.8174,0.8199,-0.1051,-3.8241,-0.8208,-0.5645,-1.8333,-1.6964,-0.1076,
0.888637,-0.8128,0.7224,-0.1099,-3.8241,-0.8208,-0.5645,-1.8333,-1.6964,-0.1076,
0.891652,-0.8128,0.7224,-0.1099,-3.7547,-1.7685,-1.4650,-1.8333,-1.6964,-0.1076,
0.893895,-0.8128,0.7224,-0.1099,-3.7547,-1.7685,-1.4650,-2.1060,-1.5068,-0.5145,
0.909794,-0.8128,0.7224,-0.1099,-3.7547,-1.7685,-1.4650,-1.9793,-1.0397,-1.1207,
0.929584,-0.9240,0.9416,-0.0393,-3.7547,-1.7685,-1.4650,-1.9793,-1.0397,-1.1207,
0.931968,-0.9240,0.9416,-0.0393,-4.6008,0.5909,-1.7066,-1.9793,-1.0397,-1.1207,
0.933569,-0.9240,0.9416,-0.0393,-4.6008,0.5909,-1.7066,-1.6400,-0.6754,-1.6032,
0.949123,-0.9240,0.9416,-0.0393,-4.6008,0.5909,-1.7066,-1.2522,-0.7936,-2.0123,
0.968140,-0.8797,0.8944,-0.0523,-4.6008,0.5909,-1.7066,-1.2522,-0.7936,-2.0123,
0.969801,-0.8797,0.8944,-0.0523,-3.6083,0.5649,-2.4601,-1.2522,-0.7936,-2.0123,
0.971655,-0.8797,0.8944,-0.0523,-3.6083,0.5649,-2.4601,-0.7436,-0.9587,-2.3196,
0.988660,-0.8797,0.8944,-0.0523,-3.6083,0.5649,-2.4601,-0.4314,-0.8533,-2.1209,
1.008440,-0.3440,0.8116,-0.0594,-3.6083,0.5649,-2.4601,-0.4314,-0.8533,-2.1209,
1.011092,-0.3440,0.8116,-0.0594,2.2757,0.2680,-2.8660,-0.4314,-0.8533,-2.1209,
1.012929,-0.3440,0.8116,-0.0594,2.2757,0.2680,-2.8660,-0.2605,-0.0735,-2.0171,
1.028396,-0.3440,0.8116,-0.0594,2.2757,0.2680,-2.8660,-0.0559,0.7212,-1.9372,
1.049499,-0.4307,0.9511,0.2086,2.2757,0.2680,-2.8660,-0.0559,0.7212,-1.9372,
1.051520,-0.4307,0.9511,0.2086,2.0211,2.0888,-0.1706,-0.0559,0.7212,-1.9372,
1.053174,-0.4307,0.9511,0.2086,2.0211,2.0888,-0.1706,0.4256,0.2104,-1.7630,
1.068344,-0.4307,0.9511,0.2086,2.0211,2.0888,-0.1706,1.3161,-0.0234,-1.4408,
1.088367,-0.3073,1.0515,0.0061,2.0211,2.0888,-0.1706,1.3161,-0.0234,-1.4408,
1.091227,-0.3073,1.0515,0.0061,3.6648,3.3862,-1.8709,1.3161,-0.0234,-1.4408,
1.093119,-0.3073,1.0515,0.0061,3.6648,3.3862,-1.8709,1.3923,0.0815,-1.0195,
1.109298,-0.3073,1.0515,0.0061,3.6648,3.3862,-1.8709,1.2053,0.3222,-0.6386,
1.129104,-0.5006,0.8470,0.0286,3.6648,3.3862,-1.8709,1.2053,0.3222,-0.6386,
1.132266,-0.5006,0.8470,0.0286,1.9657,1.4658,-1.2159,1.2053,0.3222,-0.6386,
1.133848,-0.5006,0.8470,0.0286,1.9657,1.4658,-1.2159,0.9939,0.6450,-0.4485,
1.148374,-0.5006,0.8470,0.0286,1.9657,1.4658,-1.2159,0.8740,0.5039,-0.4224,
1.168533,-0.6262,0.4693,0.2621,1.9657,1.4658,-1.2159,0.8740,0.5039,-0.4224,
1.171362,-0.6262,0.4693,0.2621,0.8797,-2.1662,1.4850,0.8740,0.5039,-0.4224,
1.173065,-0.6262,0.4693,0.2621,0.8797,-2.1662,1.4850,1.1084,0.1976,-0.4597,
1.188876,-0.6262,0.4693,0.2621,0.8797,-2.1662,1.4850,1.1681,0.0714,-0.3803,
1.208858,-0.7112,0.6555,0.3340,0.8797,-2.1662,1.4850,1.1681,0.0714,-0.3803,
1.210851,-0.7112,0.6555,0.3340,0.1506,-0.2757,2.5027,1.1681,0.0714,-0.3803,
1.212479,-0.7112,0.6555,0.3340,0.1506,-0.2757,2.5027,1.2288,-0.1316,-0.3915,
1.228093,-0.7112,0.6555,0.3340,0.1506,-0.2757,2.5027,1.1388,-0.0836,-0.3244,
1.249783,-0.6731,1.0195,0.0677,0.1506,-0.2757,2.5027,1.1388,-0.0836,-0.3244,
1.251749,-0.6731,1.0195,0.0677,0.5976,3.3449,0.1622,1.1388,-0.0836,-0.3244,
1.253401,-0.6731,1.0195,0.0677,0.5976,3.3449,0.1622,0.5822,-0.1150,-0.3617,
1.268209,-0.6731,1.0195,0.0677,0.5976,3.3449,0.1622,0.3169,-0.4341,-0.3297,
1.288907,-0.6230,0.7317,0.0235,0.5976,3.3449,0.1622,0.3169,-0.4341,-0.3297,
1.293023,-0.6230,0.7317,0.0235,1.1377,0.5765,-0.2488,0.3169,-0.4341,-0.3297,
1.294908,-0.6230,0.7317,0.0235,1.1377,0.5765,-0.2488,0.1790,-0.4959,-0.3675,
1.308918,-0.6230,0.7317,0.0235,1.1377,0.5765,-0.2488,0.2860,-0.4756,-0.3393,
1.328571,-0.6696,0.3982,0.1918,1.1377,0.5765,-0.2488,0.2860,-0.4756,-0.3393,
1.330525,-0.6696,0.3982,0.1918,0.7617,-2.5944,1.3173,0.2860,-0.4756,-0.3393,
1.332221,-0.6696,0.3982,0.1918,0.7617,-2.5944,1.3173,0.5646,-0.7324,-0.1971,
1.348671,-0.6696,0.3982,0.1918,0.7617,-2.5944,1.3173,0.8016,-1.0179,-0.2269,
1.368044,-0.7383,0.3335,0.1888,0.7617,-2.5944,1.3173,0.8016,-1.0179,-0.2269,
1.370065,-0.7383,0.3335,0.1888,0.1227,-3.1831,1.2086,0.8016,-1.0179,-0.2269,
1.371872,-0.7383,0.3335,0.1888,0.1227,-3.1831,1.2086,1.0173,-1.1862,-0.2493,
1.388553,-0.7383,0.3335,0.1888,0.1227,-3.1831,1.2086,0.9262,-1.5617,-0.1087,
1.409391,-0.6799,0.3110,0.1356,0.1227,-3.1831,1.2086,0.9262,-1.5617,-0.1087,
1.411357,-0.6799,0.3110,0.1356,0.7021,-3.3779,0.5321,0.9262,-1.5617,-0.1087,
1.413068,-0.6799,0.3110,0.1356,0.7021,-3.3779,0.5321,0.8799,-1.8610,-0.3153,
1.427812,-0.6799,0.3110,0.1356,0.7021,-3.3779,0.5321,1.1798,-1.4291,-0.3127,
1.447541,-0.7295,0.3452,0.1048,0.7021,-3.3779,0.5321,1.1798,-1.4291,-0.3127,
1.448265,-0.7295,0.3452,0.1048,0.2355,-2.9890,0.0089,1.1798,-1.4291,-0.3127,
1.448745,-0.7295,0.3452,0.1048,0.2355,-2.9890,0.0089,1.4301,-1.5026,0.1827,
1.467342,-0.7295,0.3452,0.1048,0.2355,-2.9890,0.0089,1.6581,-1.5761,0.8155,
1.488323,-0.6667,0.5331,-0.0552,0.2355,-2.9890,0.0089,1.6581,-1.5761,0.8155,
1.490289,-0.6667,0.5331,-0.0552,0.6570,-1.3577,-1.6104,1.6581,-1.5761,0.8155,
1.492010,-0.6667,0.5331,-0.0552,0.6570,-1.3577,-1.6104,1.8951,-1.1500,1.7497,
1.508639,-0.6667,0.5331,-0.0552,0.6570,-1.3577,-1.6104,1.9920,-0.9342,2.4810,
1.527930,-0.3112,1.0808,-0.0711,0.6570,-1.3577,-1.6104,1.9920,-0.9342,2.4810,
1.531233,-0.3112,1.0808,-0.0711,3.5158,3.3545,-1.5191,1.9920,-0.9342,2.4810,
1.532937,-0.3112,1.0808,-0.0711,3.5158,3.3545,-1.5191,2.2184,-1.0253,2.5625,
1.548274,-0.3112,1.0808,-0.0711,3.5158,3.3545,-1.5191,3.3279,0.1337,2.1124,
1.567947,-0.3259,1.1282,-0.2519,3.5158,3.3545,-1.5191,3.3279,0.1337,2.1124,
1.570459,-0.3259,1.1282,-0.2519,2.5973,3.1425,-2.5171,3.3279,0.1337,2.1124,
1.572056,-0.3259,1.1282,-0.2519,2.5973,3.1425,-2.5171,3.2554,0.4352,2.1960,
1.588220,-0.3259,1.1282,-0.2519,2.5973,3.1425,-2.5171,2.7356,0.2578,2.3020,
1.607592,-0.2174,1.1692,-0.3464,2.5973,3.1425,-2.5171,2.7356,0.2578,2.3020,
1.610456,-0.2174,1.1692,-0.3464,2.9157,3.1103,-2.3917,2.7356,0.2578,2.3020,
1.612503,-0.2174,1.1692,-0.3464,2.9157,3.1103,-2.3917,2.1396,0.7739,2.3670,
1.628140,-0.2174,1.1692,-0.3464,2.9157,3.1103,-2.3917,0.9124,1.1478,2.7526,
1.647972,-0.4876,1.4424,-0.4341,2.9157,3.1103,-2.3917,0.9124,1.1478,2.7526,
1.650393,-0.4876,1.4424,-0.4341,-0.6605,5.3985,-2.5584,0.9124,1.1478,2.7526,
1.652040,-0.4876,1.4424,-0.4341,-0.6605,5.3985,-2.5584,-0.0543,0.0027,3.2986,
1.667372,-0.4876,1.4424,-0.4341,-0.6605,5.3985,-2.5584,0.0309,-1.1404,2.9412,
1.688051,-0.2670,1.5213,0.0899,-0.6605,5.3985,-2.5584,0.0309,-1.1404,2.9412,
1.691029,-0.2670,1.5213,0.0899,0.4213,5.7259,2.4984,0.0309,-1.1404,2.9412,
1.692685,-0.2670,1.5213,0.0899,0.4213,5.7259,2.4984,0.8075,-1.8557,2.0352,
1.707557,-0.2670,1.5213,0.0899,0.4213,5.7259,2.4984,1.4541,-2.5763,0.7265,
1.727840,-0.3088,1.0696,-0.4566,0.4213,5.7259,2.4984,1.4541,-2.5763,0.7265,
1.730182,-0.3088,1.0696,-0.4566,-0.3485,1.2191,-2.6852,1.4541,-2.5763,0.7265,
1.731878,-0.3088,1.0696,-0.4566,-0.3485,1.2191,-2.6852,1.5169,-1.7572,0.3553,
1.747624,-0.3088,1.0696,-0.4566,-0.3485,1.2191,-2.6852,0.6466,-0.5848,0.2802,
1.767835,0.0435,0.8277,-0.4847,-0.3485,1.2191,-2.6852,0.6466,-0.5848,0.2802,
1.771061,0.0435,0.8277,-0.4847,3.0764,-1.1019,-2.6866,0.6466,-0.5848,0.2802,
1.773517,0.0435,0.8277,-0.4847,3.0764,-1.1019,-2.6866,-0.2530,0.2407,0.4139,
1.787546,0.0435,0.8277,-0.4847,3.0764,-1.1019,-2.6866,-0.5300,0.3883,0.6242,
1.807468,0.2382,0.7701,-0.1051,3.0764,-1.1019,-2.6866,-0.5300,0.3883,0.6242,
1.809913,0.2382,0.7701,-0.1051,4.7093,-1.7626,0.9377,-0.5300,0.3883,0.6242,
1.811921,0.2382,0.7701,-0.1051,4.7093,-1.7626,0.9377,-0.3462,0.5390,0.2615,
1.827980,0.2382,0.7701,-0.1051,4.7093,-1.7626,0.9377,0.3201,1.4631,0.5129,
1.847209,-0.0872,0.6753,-0.1957,4.7093,-1.7626,0.9377,0.3201,1.4631,0.5129,
1.849966,-0.0872,0.6753,-0.1957,1.2968,-2.7274,0.1349,0.3201,1.4631,0.5129,
1.851574,-0.0872,0.6753,-0.1957,1.2968,-2.7274,0.1349,0.5609,1.6629,1.1281,
1.867323,-0.0872,0.6753,-0.1957,1.2968,-2.7274,0.1349,0.3446,0.9364,1.7534,
1.887650,0.0181,0.7766,-0.3870,1.2968,-2.7274,0.1349,0.3446,0.9364,1.7534,
1.890680,0.0181,0.7766,-0.3870,1.6756,-1.7984,-1.4720,0.3446,0.9364,1.7534,
1.892787,0.0181,0.7766,-0.3870,1.6756,-1.7984,-1.4720,0.2418,0.5992,2.0831,
1.907877,0.0181,0.7766,-0.3870,1.6756,-1.7984,-1.4720,0.1443,0.5635,2.0831,
1.928478,0.1073,1.0508,-0.3630,1.6756,-1.7984,-1.4720,0.1443,0.5635,2.0831,
1.930706,0.1073,1.0508,-0.3630,1.6805,0.8207,-1.1155,0.1443,0.5635,2.0831,
1.932364,0.1073,1.0508,-0.3630,1.6805,0.8207,-1.1155,0.2099,0.2855,1.8674,
1.947920,0.1073,1.0508,-0.3630,1.6805,0.8207,-1.1155,0.2498,0.1529,1.6911,
1.967088,0.0865,1.1788,-0.3535,1.6805,0.8207,-1.1155,0.2498,0.1529,1.6911,
1.969037,0.0865,1.1788,-0.3535,0.7777,2.0793,-0.9280,0.2498,0.1529,1.6911,
1.970772,0.0865,1.1788,-0.3535,0.7777,2.0793,-0.9280,0.1603,0.1886,1.6059,
1.987603,0.0865,1.1788,-0.3535,0.7777,2.0793,-0.9280,0.1385,0.0304,1.4259,
2.007270,0.2282,1.1595,-0.2489,0.7777,2.0793,-0.9280,0.1385,0.0304,1.4259,
2.010263,0.2282,1.1595,-0.2489,1.5825,1.9275,0.1520,0.1385,0.0304,1.4259,
2.011952,0.2282,1.1595,-0.2489,1.5825,1.9275,0.1520,0.2328,-0.0469,0.8725,
2.027744,0.2282,1.1595,-0.2489,1.5825,1.9275,0.1520,0.1955,-0.0511,0.2083,
2.047312,0.2040,0.9980,-0.4920,1.5825,1.9275,0.1520,0.1955,-0.0511,0.2083,
2.050278,0.2040,0.9980,-0.4920,1.1472,0.3837,-2.1481,0.1955,-0.0511,0.2083,
2.052244,0.2040,0.9980,-0.4920,1.1472,0.3837,-2.1481,-0.2589,-0.1150,-0.1177,
2.067160,0.2040,0.9980,-0.4920,1.1472,0.3837,-2.1481,-0.4075,-0.2253,-0.2439,
2.087686,0.2011,1.0261,-0.2927,1.1472,0.3837,-2.1481,-0.4075,-0.2253,-0.2439,
2.092208,0.2011,1.0261,-0.2927,1.2042,0.6185,-0.3143,-0.4075,-0.2253,-0.2439,
2.094146,0.2011,1.0261,-0.2927,1.2042,0.6185,-0.3143,-0.3691,-0.1422,-0.4405,
2.107369,0.2011,1.0261,-0.2927,1.2042,0.6185,-0.3143,-0.3143,-0.0144,-0.6935,
2.127632,0.1994,0.8512,-0.3819,1.2042,0.6185,-0.3143,-0.3143,-0.0144,-0.6935,
2.129545,0.1994,0.8512,-0.3819,1.3798,-1.1366,-1.2908,-0.3143,-0.0144,-0.6935,
2.131359,0.1994,0.8512,-0.3819,1.3798,-1.1366,-1.2908,-0.4437,-0.0245,-0.9422,
2.147817,0.1994,0.8512,-0.3819,1.3798,-1.1366,-1.2908,-0.4133,0.0000,-1.0775,
2.167143,-0.1153,0.6384,-0.4283,1.3798,-1.1366,-1.2908,-0.4133,0.0000,-1.0775,
2.169160,-0.1153,0.6384,-0.4283,-1.3208,-3.2761,-1.9008,-0.4133,0.0000,-1.0775,
2.171187,-0.1153,0.6384,-0.4283,-1.3208,-3.2761,-1.9008,-0.2056,0.4597,-0.3457,
2.187972,-0.1153,0.6384,-0.4283,-1.3208,-3.2761,-1.9008,-0.3308,0.4224,-0.0863,
2.206880,0.0814,0.7600,-0.3713,-1.3208,-3.2761,-1.9008,-0.3308,0.4224,-0.0863,
2.210294,0.0814,0.7600,-0.3713,0.6492,-2.1092,-1.4480,-0.3308,0.4224,-0.0863,
2.212430,0.0814,0.7600,-0.3713,0.6492,-2.1092,-1.4480,-0.4277,0.1395,-0.1443,
2.227286,0.0814,0.7600,-0.3713,0.6492,-2.1092,-1.4480,-0.4511,0.1268,-0.2642,
2.247301,0.0515,0.8262,-0.3650,0.6492,-2.1092,-1.4480,-0.4511,0.1268,-0.2642,
2.249474,0.0515,0.8262,-0.3650,0.4241,-1.4983,-1.5546,-0.4511,0.1268,-0.2642,
2.251203,0.0515,0.8262,-0.3650,0.4241,-1.4983,-1.5546,-0.4746,0.2067,-0.3792,
2.266988,0.0515,0.8262,-0.3650,0.4241,-1.4983,-1.5546,-0.4506,0.2333,-0.4075,
2.286656,-0.0401,0.9611,-0.3467,0.4241,-1.4983,-1.5546,-0.4506,0.2333,-0.4075,
2.288981,-0.0401,0.9611,-0.3467,-0.3439,-0.2058,-1.5170,-0.4506,0.2333,-0.4075,
2.291523,-0.0401,0.9611,-0.3467,-0.3439,-0.2058,-1.5170,-0.2759,0.2466,-0.4032,
2.307335,-0.0401,0.9611,-0.3467,-0.3439,-0.2058,-1.5170,-0.0895,0.2967,-0.3744,
2.326735,-0.0723,0.9946,-0.3828,-0.3439,-0.2058,-1.5170,-0.0895,0.2967,-0.3744,
2.329555,-0.0723,0.9946,-0.3828,-0.5290,0.1246,-1.8674,-0.0895,0.2967,-0.3744,
2.331341,-0.0723,0.9946,-0.3828,-0.5290,0.1246,-1.8674,0.1449,0.3100,-0.3521,
2.347062,-0.0723,0.9946,-0.3828,-0.5290,0.1246,-1.8674,0.3451,0.2301,-0.4043,
2.367208,-0.1075,0.9499,-0.4671,-0.5290,0.1246,-1.8674,0.3451,0.2301,-0.4043,
2.369371,-0.1075,0.9499,-0.4671,-0.7413,-0.2778,-2.5352,0.3451,0.2301,-0.4043,
2.371498,-0.1075,0.9499,-0.4671,-0.7413,-0.2778,-2.5352,0.5412,0.2019,-0.4655,
2.386729,-0.1075,0.9499,-0.4671,-0.7413,-0.2778,-2.5352,0.5704,0.0453,-0.4991,
2.407116,-0.0845,0.8873,-0.4244,-0.7413,-0.2778,-2.5352,0.5704,0.0453,-0.4991,
2.410076,-0.0845,0.8873,-0.4244,-0.3351,-0.8185,-1.8336,0.5704,0.0453,-0.4991,
2.412679,-0.0845,0.8873,-0.4244,-0.3351,-0.8185,-1.8336,0.5124,-0.0937,-0.5342,
2.426817,-0.0845,0.8873,-0.4244,-0.3351,-0.8185,-1.8336,0.1662,-0.2610,-0.4751,
2.446726,0.0723,0.9738,-0.3362,-0.3351,-0.8185,-1.8336,0.1662,-0.2610,-0.4751,
2.449595,0.0723,0.9738,-0.3362,1.3894,0.0833,-0.8015,0.1662,-0.2610,-0.4751,
2.451550,0.0723,0.9738,-0.3362,1.3894,0.0833,-0.8015,-0.4682,-0.4517,-0.2748,
2.467389,0.0723,0.9738,-0.3362,1.3894,0.0833,-0.8015,-0.7824,-0.1209,0.0570,
2.487166,0.1483,1.4031,-0.0843,1.3894,0.0833,-0.8015,-0.7824,-0.1209,0.0570,
2.489033,0.1483,1.4031,-0.0843,2.2028,4.2338,1.4217,-0.7824,-0.1209,0.0570,
2.490730,0.1483,1.4031,-0.0843,2.2028,4.2338,1.4217,-0.4416,0.5731,0.3776,
2.507046,0.1483,1.4031,-0.0843,2.2028,4.2338,1.4217,0.0096,0.2120,0.2306,
2.526872,0.1649,1.1661,-0.0828,2.2028,4.2338,1.4217,0.0096,0.2120,0.2306,
2.531244,0.1649,1.1661,-0.0828,2.2153,1.8842,1.3646,0.0096,0.2120,0.2306,
2.532918,0.1649,1.1661,-0.0828,2.2153,1.8842,1.3646,-0.0639,-0.5997,-0.0202,
2.546669,0.1649,1.1661,-0.0828,2.2153,1.8842,1.3646,-0.6716,-0.8213,-0.2951,
2.566840,-0.0203,1.0117,-0.0941,2.2153,1.8842,1.3646,-0.6716,-0.8213,-0.2951,
2.568597,-0.0203,1.0117,-0.0941,0.5210,0.3445,1.0955,-0.6716,-0.8213,-0.2951,
2.570222,-0.0203,1.0117,-0.0941,0.5210,0.3445,1.0955,-1.1537,-0.3686,-0.5507,
2.586819,-0.0203,1.0117,-0.0941,0.5210,0.3445,1.0955,-1.1659,0.2482,-0.6610,
2.606837,-0.1244,1.0855,0.0210,0.5210,0.3445,1.0955,-1.1659,0.2482,-0.6610,
2.608590,-0.1244,1.0855,0.0210,-0.2636,1.0041,1.7736,-1.1659,0.2482,-0.6610,
2.610320,-0.1244,1.0855,0.0210,-0.2636,1.0041,1.7736,-0.8341,0.8016,-0.5278,
2.626319,-0.1244,1.0855,0.0210,-0.2636,1.0041,1.7736,-0.4341,0.8266,-0.4799,
2.646730,-0.0340,1.0131,-0.0711,-0.2636,1.0041,1.7736,-0.4341,0.8266,-0.4799,
2.650741,-0.0340,1.0131,-0.0711,0.7556,0.2760,0.6489,-0.4341,0.8266,-0.4799,
2.652778,-0.0340,1.0131,-0.0711,0.7556,0.2760,0.6489,-0.3041,0.2615,-0.6487,
2.667288,-0.0340,1.0131,-0.0711,0.7556,0.2760,0.6489,-0.3446,-0.1619,-0.8165,
2.686592,-0.1634,0.8556,-0.1727,0.7556,0.2760,0.6489,-0.3446,-0.1619,-0.8165,
2.688320,-0.1634,0.8556,-0.1727,-0.2499,-1.2516,-0.4724,-0.3446,-0.1619,-0.8165,
2.690228,-0.1634,0.8556,-0.1727,-0.2499,-1.2516,-0.4724,-0.4202,-0.0234,-1.0179,
2.706599,-0.1634,0.8556,-0.1727,-0.2499,-1.2516,-0.4724,-0.5390,0.1939,-1.0200,
2.726687,-0.2834,0.7820,-0.0894,-0.2499,-1.2516,-0.4724,-0.5390,0.1939,-1.0200,
2.728878,-0.2834,0.7820,-0.0894,-1.0376,-1.9309,0.1656,-0.5390,0.1939,-1.0200,
2.730685,-0.2834,0.7820,-0.0894,-1.0376,-1.9309,0.1656,-0.6903,0.3212,-1.0019,
2.746182,-0.2834,0.7820,-0.0894,-1.0376,-1.9309,0.1656,-0.7814,0.3063,-0.7254,
2.768048,-0.2612,0.8597,0.0029,-1.0376,-1.9309,0.1656,-0.7814,0.3063,-0.7254,
2.772054,-0.2612,0.8597,0.0029,-0.5007,-1.1308,0.8130,-0.7814,0.3063,-0.7254,
2.774235,-0.2612,0.8597,0.0029,-0.5007,-1.1308,0.8130,-0.6940,0.2397,-0.4373,
2.785906,-0.2612,0.8597,0.0029,-0.5007,-1.1308,0.8130,-0.4522,0.2141,-0.2013,
2.806399,-0.1231,0.9670,-0.0318,-0.5007,-1.1308,0.8130,-0.4522,0.2141,-0.2013,
2.808953,-0.1231,0.9670,-0.0318,0.9631,-0.0695,0.2726,-0.4522,0.2141,-0.2013,
2.810820,-0.1231,0.9670,-0.0318,0.9631,-0.0695,0.2726,-0.2136,0.0937,-0.1236,
2.826224,-0.1231,0.9670,-0.0318,0.9631,-0.0695,0.2726,-0.1683,-0.0501,-0.1140,
2.846141,-0.2167,0.9240,-0.1656,0.9631,-0.0695,0.2726,-0.1683,-0.0501,-0.1140,
2.848214,-0.2167,0.9240,-0.1656,0.0870,-0.4851,-1.1017,-0.1683,-0.0501,-0.1140,
2.849786,-0.2167,0.9240,-0.1656,0.0870,-0.4851,-1.1017,-0.3238,-0.1529,-0.2162,
2.866582,-0.2167,0.9240,-0.1656,0.0870,-0.4851,-1.1017,-0.4416,-0.1598,-0.1204,
2.886619,-0.2245,0.9027,-0.1341,0.0870,-0.4851,-1.1017,-0.4416,-0.1598,-0.1204,
2.888671,-0.2245,0.9027,-0.1341,0.0752,-0.6850,-0.9391,-0.4416,-0.1598,-0.1204,
2.890522,-0.2245,0.9027,-0.1341,0.0752,-0.6850,-0.9391,-0.4314,-0.1790,-0.0804,
2.906318,-0.2245,0.9027,-0.1341,0.0752,-0.6850,-0.9391,-0.4671,-0.4479,0.0186,
2.926267,-0.2025,1.0136,-0.0799,0.0752,-0.6850,-0.9391,-0.4671,-0.4479,0.0186,
2.928676,-0.2025,1.0136,-0.0799,0.2978,0.3984,-0.5807,-0.4671,-0.4479,0.0186,
2.930242,-0.2025,1.0136,-0.0799,0.2978,0.3984,-0.5807,-0.3659,-0.4197,0.1779,
2.946267,-0.2025,1.0136,-0.0799,0.2978,0.3984,-0.5807,-0.3665,-0.6514,0.1641,
2.966723,-0.1720,1.0322,-0.0506,0.2978,0.3984,-0.5807,-0.3665,-0.6514,0.1641,
2.970023,-0.1720,1.0322,-0.0506,0.5209,0.5604,-0.4540,-0.3665,-0.6514,0.1641,
2.971962,-0.1720,1.0322,-0.0506,0.5209,0.5604,-0.4540,-0.4479,-0.9587,0.1678,
2.986477,-0.1720,1.0322,-0.0506,0.5209,0.5604,-0.4540,-0.4661,-1.0365,0.2162,
3.006167,-0.2265,1.1798,0.0154,0.5209,0.5604,-0.4540,-0.4661,-1.0365,0.2162,
3.008978,-0.2265,1.1798,0.0154,-0.0910,1.9912,-0.0664,-0.4661,-1.0365,0.2162,
3.011461,-0.2265,1.1798,0.0154,-0.0910,1.9912,-0.0664,-0.3856,-0.9476,0.3052,
3.026238,-0.2265,1.1798,0.0154,-0.0910,1.9912,-0.0664,-0.2722,-0.9039,0.3537,
3.046320,-0.2340,1.2987,0.0107,-0.0910,1.9912,-0.0664,-0.2722,-0.9039,0.3537,
3.048326,-0.2340,1.2987,0.0107,-0.3033,3.1342,-0.3141,-0.2722,-0.9039,0.3537,
3.050185,-0.2340,1.2987,0.0107,-0.3033,3.1342,-0.3141,-0.1811,-0.9465,0.3925,
3.065962,-0.2340,1.2987,0.0107,-0.3033,3.1342,-0.3141,-0.1001,-0.9870,0.4224,
3.085914,-0.3257,1.4839,-0.1043,-0.3033,3.1342,-0.3141,-0.1001,-0.9870,0.4224,
3.088695,-0.3257,1.4839,-0.1043,-1.3763,4.9207,-1.5692,-0.1001,-0.9870,0.4224,
3.090548,-0.3257,1.4839,-0.1043,-1.3763,4.9207,-1.5692,-0.1571,-0.8352,0.2551,
3.106339,-0.3257,1.4839,-0.1043,-1.3763,4.9207,-1.5692,-0.4181,-0.3585,0.0330,
3.125696,-0.5900,1.5125,0.0291,-1.3763,4.9207,-1.5692,-0.4181,-0.3585,0.0330,
3.128465,-0.5900,1.5125,0.0291,-4.0366,5.1978,-0.4149,-0.4181,-0.3585,0.0330,
3.130186,-0.5900,1.5125,0.0291,-4.0366,5.1978,-0.4149,-0.7910,0.0650,0.0804,
3.145599,-0.5900,1.5125,0.0291,-4.0366,5.1978,-0.4149,-0.7068,0.0096,0.4874,
3.166199,-0.2287,1.2313,0.3479,-4.0366,5.1978,-0.4149,-0.7068,0.0096,0.4874,
3.168273,-0.2287,1.2313,0.3479,-0.6034,2.4481,2.4244,-0.7068,0.0096,0.4874,
3.170076,-0.2287,1.2313,0.3479,-0.6034,2.4481,2.4244,-0.2834,-0.4740,0.6056,
3.186229,-0.2287,1.2313,0.3479,-0.6034,2.4481,2.4244,0.1401,-1.1297,0.4288,
3.206139,0.0354,0.8431,0.3938,-0.6034,2.4481,2.4244,0.1401,-1.1297,0.4288,
3.208388,0.0354,0.8431,0.3938,1.7522,-1.3850,2.7991,0.1401,-1.1297,0.4288,
3.210098,0.0354,0.8431,0.3938,1.7522,-1.3850,2.7991,0.4416,-1.4232,0.2258,
3.226231,0.0354,0.8431,0.3938,1.7522,-1.3850,2.7991,0.4538,-1.2394,0.2008,
3.245538,0.2055,0.9667,0.4432,1.7522,-1.3850,2.7991,0.4538,-1.2394,0.2008,
3.247885,0.2055,0.9667,0.4432,3.2823,-0.2030,3.3844,0.4538,-1.2394,0.2008,
3.249403,0.2055,0.9667,0.4432,3.2823,-0.2030,3.3844,0.1870,-0.7356,0.3100,
3.266634,0.2055,0.9667,0.4432,3.2823,-0.2030,3.3844,0.0900,-0.1635,0.5039,
3.286400,0.4180,1.0664,0.4881,3.2823,-0.2030,3.3844,0.0900,-0.1635,0.5039,
3.288233,0.4180,1.0664,0.4881,5.1908,0.7495,3.8567,0.0900,-0.1635,0.5039,
3.289910,0.4180,1.0664,0.4881,5.1908,0.7495,3.8567,0.2764,0.3297,0.5491,
3.305994,0.4180,1.0664,0.4881,5.1908,0.7495,3.8567,0.6605,0.8085,0.4762,
3.325876,0.2682,1.1412,0.2846,5.1908,0.7495,3.8567,0.6605,0.8085,0.4762,
3.328580,0.2682,1.1412,0.2846,3.5429,1.4461,2.0665,0.6605,0.8085,0.4762,
3.330509,0.2682,1.1412,0.2846,3.5429,1.4461,2.0665,1.2288,1.4296,0.2722,
3.345665,0.2682,1.1412,0.2846,3.5429,1.4461,2.0665,1.9414,1.9825,-0.0293,
3.365779,-0.0772,0.9296,0.1617,3.5429,1.4461,2.0665,1.9414,1.9825,-0.0293,
3.368624,-0.0772,0.9296,0.1617,0.1160,-0.6575,1.5099,1.9414,1.9825,-0.0293,
3.370938,-0.0772,0.9296,0.1617,0.1160,-0.6575,1.5099,2.5327,2.0964,-0.1124,
3.386485,-0.0772,0.9296,0.1617,0.1160,-0.6575,1.5099,2.7452,1.5809,0.0101,
3.405512,-0.1874,0.7642,0.0523,0.1160,-0.6575,1.5099,2.7452,1.5809,0.0101,
3.408124,-0.1874,0.7642,0.0523,-0.9799,-2.2298,1.5024,2.7452,1.5809,0.0101,
3.409953,-0.1874,0.7642,0.0523,-0.9799,-2.2298,1.5024,2.7319,1.0072,0.2482,
3.425825,-0.1874,0.7642,0.0523,-0.9799,-2.2298,1.5024,2.7292,0.7590,0.5076,
3.445341,-0.1190,0.7911,-0.1512,-0.9799,-2.2298,1.5024,2.7292,0.7590,0.5076,
3.448811,-0.1190,0.7911,-0.1512,-0.5077,-1.8107,0.5878,2.7292,0.7590,0.5076,
3.450616,-0.1190,0.7911,-0.1512,-0.5077,-1.8107,0.5878,2.5694,0.8229,0.7553,
3.465812,-0.1190,0.7911,-0.1512,-0.5077,-1.8107,0.5878,2.1673,0.7915,0.9598,
3.485691,0.0958,0.6848,-0.4676,-0.5077,-1.8107,0.5878,2.1673,0.7915,0.9598,
3.487892,0.0958,0.6848,-0.4676,1.1910,-2.6285,-1.6022,2.1673,0.7915,0.9598,
3.489732,0.0958,0.6848,-0.4676,1.1910,-2.6285,-1.6022,1.4046,0.7414,1.0557,
3.505479,0.0958,0.6848,-0.4676,1.1910,-2.6285,-1.6022,0.6056,0.8852,0.9779,
3.525550,0.2375,0.5600,-0.4324,1.1910,-2.6285,-1.6022,0.6056,0.8852,0.9779,
3.529100,0.2375,0.5600,-0.4324,2.0988,-3.7254,-0.8850,0.6056,0.8852,0.9779,
3.530982,0.2375,0.5600,-0.4324,2.0988,-3.7254,-0.8850,-0.0352,0.8639,0.8011,
3.545491,0.2375,0.5600,-0.4324,2.0988,-3.7254,-0.8850,-0.3686,0.9193,0.6519,
3.565394,0.2277,0.6958,-0.2494,2.0988,-3.7254,-0.8850,-0.3686,0.9193,0.6519,
3.568865,0.2277,0.6958,-0.2494,1.6173,-2.4088,0.8185,-0.3686,0.9193,0.6519,
3.570920,0.2277,0.6958,-0.2494,1.6173,-2.4088,0.8185,-0.4661,0.9193,0.5417,
3.586114,0.2277,0.6958,-0.2494,1.6173,-2.4088,0.8185,-0.4714,0.7744,0.4208,
3.605311,0.2482,0.7405,-0.1825,1.6173,-2.4088,0.8185,-0.4714,0.7744,0.4208,
3.609179,0.2482,0.7405,-0.1825,1.5335,-2.0154,1.2757,-0.4714,0.7744,0.4208,
3.611281,0.2482,0.7405,-0.1825,1.5335,-2.0154,1.2757,-0.4378,0.6226,0.3521,
3.625524,0.2482,0.7405,-0.1825,1.5335,-2.0154,1.2757,-0.3601,0.6791,0.3089,
3.644895,0.3054,0.6565,-0.2348,1.5335,-2.0154,1.2757,-0.3601,0.6791,0.3089,
3.647300,0.3054,0.6565,-0.2348,1.8938,-2.8733,0.5892,-0.3601,0.6791,0.3089,
3.648704,0.3054,0.6565,-0.2348,1.8938,-2.8733,0.5892,-0.2668,0.6722,0.1427,
3.665593,0.3054,0.6565,-0.2348,1.8938,-2.8733,0.5892,-0.1241,0.4671,-0.0368,
3.684796,0.1761,0.7002,-0.4063,1.8938,-2.8733,0.5892,-0.1241,0.4671,-0.0368,
3.687349,0.1761,0.7002,-0.4063,0.5430,-2.4645,-1.1904,-0.1241,0.4671,-0.0368,
3.689749,0.1761,0.7002,-0.4063,0.5430,-2.4645,-1.1904,-0.1012,0.1992,-0.1539,
3.706376,0.1761,0.7002,-0.4063,0.5430,-2.4645,-1.1904,-0.2439,0.1529,-0.1742,
3.724996,0.1444,0.8480,-0.3823,0.5430,-2.4645,-1.1904,-0.2439,0.1529,-0.1742,
3.728159,0.1444,0.8480,-0.3823,0.2735,-1.0426,-1.0284,-0.2439,0.1529,-0.1742,
3.730016,0.1444,0.8480,-0.3823,0.2735,-1.0426,-1.0284,-0.3414,0.0884,-0.1838,
3.745074,0.1444,0.8480,-0.3823,0.2735,-1.0426,-1.0284,-0.3377,0.0543,-0.1997,
3.765329,0.1068,1.3078,-0.4036,0.2735,-1.0426,-1.0284,-0.3377,0.0543,-0.1997,
3.767708,0.1068,1.3078,-0.4036,-0.0346,3.4217,-1.3578,-0.3377,0.0543,-0.1997,
3.769535,0.1068,1.3078,-0.4036,-0.0346,3.4217,-1.3578,-0.1529,0.1427,-0.1198,
3.785817,0.1068,1.3078,-0.4036,-0.0346,3.4217,-1.3578,0.0943,0.1113,0.0501,
3.805029,0.3076,1.6630,-0.5541,-0.0346,3.4217,-1.3578,0.0943,0.1113,0.0501,
3.808176,0.3076,1.6630,-0.5541,1.9335,6.8984,-2.8491,0.0943,0.1113,0.0501,
3.810313,0.3076,1.6630,-0.5541,1.9335,6.8984,-2.8491,0.2312,-0.1300,-0.1438,
3.824645,0.3076,1.6630,-0.5541,1.9335,6.8984,-2.8491,-0.4511,-0.3569,-0.2908,
3.845096,0.2272,0.8240,-0.2856,1.9335,6.8984,-2.8491,-0.4511,-0.3569,-0.2908,
3.848839,0.2272,0.8240,-0.2856,1.2526,-1.3436,-0.2494,-0.4511,-0.3569,-0.2908,
3.850719,0.2272,0.8240,-0.2856,1.2526,-1.3436,-0.2494,-0.9470,-0.2061,-0.0117,
3.864607,0.2272,0.8240,-0.2856,1.2526,-1.3436,-0.2494,-0.9587,0.0874,0.4996,
3.886241,0.3327,0.8771,-0.2067,1.2526,-1.3436,-0.2494,-0.9587,0.0874,0.4996,
3.890085,0.3327,0.8771,-0.2067,2.1864,-0.9015,0.1721,-0.9587,0.0874,0.4996,
3.892522,0.3327,0.8771,-0.2067,2.1864,-0.9015,0.1721,-1.0583,0.2099,0.5651,
3.904612,0.3327,0.8771,-0.2067,2.1864,-0.9015,0.1721,-1.1276,-0.2338,0.3707,
3.925136,0.4581,1.1981,-0.0994,2.1864,-0.9015,0.1721,-1.1276,-0.2338,0.3707,
3.928258,0.4581,1.1981,-0.0994,3.2366,2.1796,0.8081,-1.1276,-0.2338,0.3707,
3.930078,0.4581,1.1981,-0.0994,3.2366,2.1796,0.8081,-0.8597,-0.7111,0.2099,
3.944561,0.4581,1.1981,-0.0994,3.2366,2.1796,0.8081,-0.9870,-1.0967,-0.0783,
3.964745,0.2978,0.9912,-0.0596,3.2366,2.1796,0.8081,-0.9870,-1.0967,-0.0783,
3.967287,0.2978,0.9912,-0.0596,1.6992,0.0950,0.8898,-0.9870,-1.0967,-0.0783,
3.968754,0.2978,0.9912,-0.0596,1.6992,0.0950,0.8898,-1.2645,-0.9859,-0.3755,
3.984378,0.2978,0.9912,-0.0596,1.6992,0.0950,0.8898,-1.5835,-0.9060,-0.7851,
4.005133,0.2128,1.0395,0.0484,1.6992,0.0950,0.8898,-1.5835,-0.9060,-0.7851,
4.007239,0.2128,1.0395,0.0484,1.1240,0.4755,1.4370,-1.5835,-0.9060,-0.7851,
4.008687,0.2128,1.0395,0.0484,1.1240,0.4755,1.4370,-1.9372,-0.4922,-1.2458,
4.024505,0.2128,1.0395,0.0484,1.1240,0.4755,1.4370,-2.3297,0.1103,-1.7545,
4.044576,-0.0359,1.0412,0.3892,1.1240,0.4755,1.4370,-2.3297,0.1103,-1.7545,
4.046998,-0.0359,1.0412,0.3892,-0.7374,0.4057,3.9298,-2.3297,0.1103,-1.7545,
4.048573,-0.0359,1.0412,0.3892,-0.7374,0.4057,3.9298,-2.5806,0.4432,-2.0086,
4.065195,-0.0359,1.0412,0.3892,-0.7374,0.4057,3.9298,-2.1279,0.8261,-1.8908,
4.085088,-0.2262,1.0302,0.8841,-0.7374,0.4057,3.9298,-2.1279,0.8261,-1.8908,
4.087326,-0.2262,1.0302,0.8841,-1.8289,0.3304,7.8612,-2.1279,0.8261,-1.8908,
4.088973,-0.2262,1.0302,0.8841,-1.8289,0.3304,7.8612,-1.0743,1.3843,-1.6229,
4.104978,-0.2262,1.0302,0.8841,-1.8289,0.3304,7.8612,0.0107,1.5404,-1.6432,
4.124564,-0.0774,0.8885,0.3437,-1.8289,0.3304,7.8612,0.0107,1.5404,-1.6432,
4.126893,-0.0774,0.8885,0.3437,0.3096,-0.9881,2.3591,0.0107,1.5404,-1.6432,
4.128736,-0.0774,0.8885,0.3437,0.3096,-0.9881,2.3591,0.3941,0.9806,-1.8765,
4.144684,-0.0774,0.8885,0.3437,0.3096,-0.9881,2.3591,0.0996,0.0996,-2.0522,
4.164521,-0.2416,0.7144,0.0203,0.3096,-0.9881,2.3591,0.0996,0.0996,-2.0522,
4.166870,-0.2416,0.7144,0.0203,-0.5222,-2.5897,-0.6899,0.0996,0.0996,-2.0522,
4.168930,-0.2416,0.7144,0.0203,-0.5222,-2.5897,-0.6899,-0.3004,-0.3910,-1.8434,
4.184788,-0.2416,0.7144,0.0203,-0.5222,-2.5897,-0.6899,-0.4932,-0.2045,-1.2229,
4.204947,-0.3564,0.6183,-0.1087,-0.5222,-2.5897,-0.6899,-0.4932,-0.2045,-1.2229,
4.207634,-0.3564,0.6183,-0.1087,-1.0756,-3.3845,-2.1298,-0.4932,-0.2045,-1.2229,
4.209818,-0.3564,0.6183,-0.1087,-1.0756,-3.3845,-2.1298,-0.5806,0.4703,-0.5092,
4.224561,-0.3564,0.6183,-0.1087,-1.0756,-3.3845,-2.1298,-0.6589,1.0040,-0.0431,
4.244224,-0.0762,0.5323,-0.0811,-1.0756,-3.3845,-2.1298,-0.6589,1.0040,-0.0431,
4.246818,-0.0762,0.5323,-0.0811,1.8088,-4.1714,-2.0181,-0.6589,1.0040,-0.0431,
4.248755,-0.0762,0.5323,-0.0811,1.8088,-4.1714,-2.0181,-0.6828,0.8256,0.0655,
4.264330,-0.0762,0.5323,-0.0811,1.8088,-4.1714,-2.0181,-0.6370,0.3435,0.0975,
4.285076,-0.1652,0.6589,0.0188,1.8088,-4.1714,-2.0181,-0.6370,0.3435,0.0975,
4.287541,-0.1652,0.6589,0.0188,0.9370,-2.9050,-1.2262,-0.6370,0.3435,0.0975,
4.289518,-0.1652,0.6589,0.0188,0.9370,-2.9050,-1.2262,-0.5928,-0.1491,0.1582,
4.304135,-0.1652,0.6589,0.0188,0.9370,-2.9050,-1.2262,-0.7063,-0.3414,0.1907,
4.324500,-0.2915,0.8624,0.1393,0.9370,-2.9050,-1.2262,-0.7063,-0.3414,0.1907,
4.328134,-0.2915,0.8624,0.1393,-0.3813,-0.8882,-0.3131,-0.7063,-0.3414,0.1907,
4.330483,-0.2915,0.8624,0.1393,-0.3813,-0.8882,-0.3131,-0.8868,-0.1326,0.2067,
4.343949,-0.2915,0.8624,0.1393,-0.3813,-0.8882,-0.3131,-0.9012,0.4900,0.1864,
4.364749,-0.4246,1.1106,0.3325,-0.3813,-0.8882,-0.3131,-0.9012,0.4900,0.1864,
4.367347,-0.4246,1.1106,0.3325,-1.7257,1.5952,1.2692,-0.9012,0.4900,0.1864,
4.369061,-0.4246,1.1106,0.3325,-1.7257,1.5952,1.2692,-0.6487,0.9049,0.1891,
4.385057,-0.4246,1.1106,0.3325,-1.7257,1.5952,1.2692,-0.1481,0.7819,0.2221,
4.403858,-0.4952,1.3764,0.3186,-1.7257,1.5952,1.2692,-0.1481,0.7819,0.2221,
4.406129,-0.4952,1.3764,0.3186,-2.4250,4.2125,1.0670,-0.1481,0.7819,0.2221,
4.407289,-0.4952,1.3764,0.3186,-2.4250,4.2125,1.0670,0.3840,0.4096,0.2573,
4.423901,-0.4952,1.3764,0.3186,-2.4250,4.2125,1.0670,0.8192,0.0762,0.3494,
4.444047,-0.4270,1.4678,0.1637,-2.4250,4.2125,1.0670,0.8192,0.0762,0.3494,
4.446764,-0.4270,1.4678,0.1637,-1.8505,5.0328,-0.2039,0.8192,0.0762,0.3494,
4.448403,-0.4270,1.4678,0.1637,-1.8505,5.0328,-0.2039,1.1057,-0.0804,0.3302,
4.464229,-0.4270,1.4678,0.1637,-1.8505,5.0328,-0.2039,1.2368,-0.3206,0.3095,
4.483532,-0.4613,1.4285,0.1366,-1.8505,5.0328,-0.2039,1.2368,-0.3206,0.3095,
4.485064,-0.4613,1.4285,0.1366,-2.3181,4.5437,-0.0476,1.2368,-0.3206,0.3095,
4.486174,-0.4613,1.4285,0.1366,-2.3181,4.5437,-0.0476,1.1302,-0.5587,0.3324,
4.504238,-0.4613,1.4285,0.1366,-2.3181,4.5437,-0.0476,0.7004,-0.5198,0.4075,
4.523221,-0.1610,1.2264,0.3467,-2.3181,4.5437,-0.0476,0.7004,-0.5198,0.4075,
4.524521,-0.1610,1.2264,0.3467,0.4577,2.4873,2.3127,0.7004,-0.5198,0.4075,
4.525147,-0.1610,1.2264,0.3467,0.4577,2.4873,2.3127,0.4410,-0.6024,0.4416,
4.544163,-0.1610,1.2264,0.3467,0.4577,2.4873,2.3127,0.4820,-0.9300,0.3238,
4.564633,0.0655,0.8714,0.4554,0.4577,2.4873,2.3127,0.4820,-0.9300,0.3238,
4.566830,0.0655,0.8714,0.4554,2.5000,-1.0401,3.4950,0.4820,-0.9300,0.3238,
4.568700,0.0655,0.8714,0.4554,2.5000,-1.0401,3.4950,0.6589,-1.2022,0.2216,
4.584854,0.0655,0.8714,0.4554,2.5000,-1.0401,3.4950,0.7766,-1.1084,0.2019,
4.604264,0.1554,0.8475,0.3186,2.5000,-1.0401,3.4950,0.7766,-1.1084,0.2019,
4.607388,0.1554,0.8475,0.3186,3.2332,-1.3163,2.3056,0.7766,-1.1084,0.2019,
4.609444,0.1554,0.8475,0.3186,3.2332,-1.3163,2.3056,0.7989,-0.4101,0.2583,
4.624249,0.1554,0.8475,0.3186,3.2332,-1.3163,2.3056,0.8000,0.4357,0.2200,
4.644091,0.0296,1.1434,0.1695,3.2332,-1.3163,2.3056,0.8000,0.4357,0.2200,
4.647424,0.0296,1.1434,0.1695,1.9012,1.5452,1.1466,0.8000,0.4357,0.2200,
4.648907,0.0296,1.1434,0.1695,1.9012,1.5452,1.1466,0.7942,0.9033,0.0581,
4.664464,0.0296,1.1434,0.1695,1.9012,1.5452,1.1466,1.1452,1.6576,-0.0868,
4.684507,-0.3943,1.2100,0.1407,1.9012,1.5452,1.1466,1.1452,1.6576,-0.0868,
4.688114,-0.3943,1.2100,0.1407,-2.2331,2.1886,1.3211,1.1452,1.6576,-0.0868,
4.690110,-0.3943,1.2100,0.1407,-2.2331,2.1886,1.3211,2.1215,2.8144,-0.5055,
4.703925,-0.3943,1.2100,0.1407,-2.2331,2.1886,1.3211,2.6871,2.5449,-0.4490,
4.724008,-0.3252,0.7901,-0.0252,-2.2331,2.1886,1.3211,2.6871,2.5449,-0.4490,
4.726745,-0.3252,0.7901,-0.0252,-1.4014,-1.8502,0.7314,2.6871,2.5449,-0.4490,
4.728492,-0.3252,0.7901,-0.0252,-1.4014,-1.8502,0.7314,2.4320,1.4642,0.1023,
4.743626,-0.3252,0.7901,-0.0252,-1.4014,-1.8502,0.7314,1.8733,0.5997,0.5987,
4.763979,-0.1261,0.5946,-0.0748,-1.4014,-1.8502,0.7314,1.8733,0.5997,0.5987,
4.767432,-0.1261,0.5946,-0.0748,0.3603,-3.6660,1.1374,1.8733,0.5997,0.5987,
4.769317,-0.1261,0.5946,-0.0748,0.3603,-3.6660,1.1374,1.5798,0.7116,0.8128,
4.787025,-0.1261,0.5946,-0.0748,0.3603,-3.6660,1.1374,1.4109,1.1723,0.8927,
4.803986,-0.0594,0.6276,-0.2932,0.3603,-3.6660,1.1374,1.4109,1.1723,0.8927,
4.806875,-0.0594,0.6276,-0.2932,0.6084,-3.2605,-0.3864,1.4109,1.1723,0.8927,
4.808652,-0.0594,0.6276,-0.2932,0.6084,-3.2605,-0.3864,1.0136,1.4679,0.9215,
4.823692,-0.0594,0.6276,-0.2932,0.6084,-3.2605,-0.3864,0.5220,1.6325,0.8831,
4.843633,0.0147,0.5025,-0.3872,0.6084,-3.2605,-0.3864,0.5220,1.6325,0.8831,
4.846041,0.0147,0.5025,-0.3872,0.8291,-4.4388,-0.9624,0.5220,1.6325,0.8831,
4.847574,0.0147,0.5025,-0.3872,0.8291,-4.4388,-0.9624,0.0479,1.5899,0.8096,
4.864020,0.0147,0.5025,-0.3872,0.8291,-4.4388,-0.9624,-0.4032,1.4136,0.8586,
4.883656,0.0562,0.4698,-0.3076,0.8291,-4.4388,-0.9624,-0.4032,1.4136,0.8586,
4.885994,0.0562,0.4698,-0.3076,0.7536,-4.7943,-0.2214,-0.4032,1.4136,0.8586,
4.887301,0.0562,0.4698,-0.3076,0.7536,-4.7943,-0.2214,-0.5385,1.0988,1.0253,
4.903034,0.0562,0.4698,-0.3076,0.7536,-4.7943,-0.2214,-0.4016,0.8804,1.2362,
4.922787,0.3161,0.6960,-0.1898,0.7536,-4.7943,-0.2214,-0.4016,0.8804,1.2362,
4.923563,0.3161,0.6960,-0.1898,2.7683,-2.6249,0.7539,-0.4016,0.8804,1.2362,
4.924090,0.3161,0.6960,-0.1898,2.7683,-2.6249,0.7539,-0.3404,0.5300,1.0370,
4.943225,0.3161,0.6960,-0.1898,2.7683,-2.6249,0.7539,-0.2573,0.4394,0.5768,
4.963598,0.4378,0.8761,-0.2541,2.7683,-2.6249,0.7539,-0.2573,0.4394,0.5768,
4.965428,0.4378,0.8761,-0.2541,3.6065,-0.8746,0.0013,-0.2573,0.4394,0.5768,
4.966735,0.4378,0.8761,-0.2541,3.6065,-0.8746,0.0013,-0.0506,0.5880,0.0969,
4.983249,0.4378,0.8761,-0.2541,3.6065,-0.8746,0.0013,0.1310,0.7175,-0.1348,
5.003463,0.0420,1.0002,-0.5534,3.6065,-0.8746,0.0013,0.1310,0.7175,-0.1348,
5.005600,0.0420,1.0002,-0.5534,-0.3459,0.3525,-2.9117,0.1310,0.7175,-0.1348,
5.007309,0.0420,1.0002,-0.5534,-0.3459,0.3525,-2.9117,0.1395,0.6056,-0.4117,
5.023407,0.0420,1.0002,-0.5534,-0.3459,0.3525,-2.9117,-0.0975,0.2913,-0.7254,
5.042799,-0.2265,1.4959,-0.3716,-0.3459,0.3525,-2.9117,-0.0975,0.2913,-0.7254,
5.045032,-0.2265,1.4959,-0.3716,-2.8076,5.1970,-1.1351,-0.0975,0.2913,-0.7254,
5.046420,-0.2265,1.4959,-0.3716,-2.8076,5.1970,-1.1351,-0.2871,-0.1411,-0.3324,
5.063471,-0.2265,1.4959,-0.3716,-2.8076,5.1970,-1.1351,0.2232,0.2626,0.2365,
5.082597,0.2211,1.4575,-0.4515,-2.8076,5.1970,-1.1351,0.2232,0.2626,0.2365,
5.084541,0.2211,1.4575,-0.4515,1.5908,4.8168,-1.9315,0.2232,0.2626,0.2365,
5.085772,0.2211,1.4575,-0.4515,1.5908,4.8168,-1.9315,-0.4735,-0.8256,0.1076,
5.102751,0.2211,1.4575,-0.4515,1.5908,4.8168,-1.9315,-1.8594,-1.2634,0.1694,
5.123123,0.4967,0.9076,-0.0909,1.5908,4.8168,-1.9315,-1.8594,-1.2634,0.1694,
5.125095,0.4967,0.9076,-0.0909,4.3359,-0.6759,1.1820,-1.8594,-1.2634,0.1694,
5.126827,0.4967,0.9076,-0.0909,4.3359,-0.6759,1.1820,-1.6448,0.4389,0.4602,
5.143040,0.4967,0.9076,-0.0909,4.3359,-0.6759,1.1820,-1.4567,0.4192,-0.2738,
5.163239,0.2646,0.8871,-0.0821,4.3359,-0.6759,1.1820,-1.4567,0.4192,-0.2738,
5.165310,0.2646,0.8871,-0.0821,1.9707,-0.9825,0.6658,-1.4567,0.4192,-0.2738,
5.166921,0.2646,0.8871,-0.0821,1.9707,-0.9825,0.6658,-1.5574,-0.3712,-0.8490,
5.182546,0.2646,0.8871,-0.0821,1.9707,-0.9825,0.6658,-1.6959,-0.9790,-0.8229,
5.202676,0.1256,1.0659,0.0066,1.9707,-0.9825,0.6658,-1.6959,-0.9790,-0.8229,
5.204235,0.1256,1.0659,0.0066,0.9381,0.6806,0.9156,-1.6959,-0.9790,-0.8229,
5.205066,0.1256,1.0659,0.0066,0.9381,0.6806,0.9156,-1.8003,-1.2384,-0.5662,
5.223226,0.1256,1.0659,0.0066,0.9381,0.6806,0.9156,-2.0389,-1.4578,-0.6147,
5.242991,0.2169,1.0017,0.1346,0.9381,0.6806,0.9156,-2.0389,-1.4578,-0.6147,
5.244900,0.2169,1.0017,0.1346,2.0455,0.0105,1.4261,-2.0389,-1.4578,-0.6147,
5.246471,0.2169,1.0017,0.1346,2.0455,0.0105,1.4261,-2.3553,-1.5548,-0.7430,
5.262884,0.2169,1.0017,0.1346,2.0455,0.0105,1.4261,-2.4874,-1.3236,-0.8266,
5.282833,0.1630,0.9912,0.4671,2.0455,0.0105,1.4261,-2.4874,-1.3236,-0.8266,
5.284235,0.1630,0.9912,0.4671,1.7598,-0.0536,3.7109,-2.4874,-1.3236,-0.8266,
5.285506,0.1630,0.9912,0.4671,1.7598,-0.0536,3.7109,-2.2104,-0.5300,-0.9497,
5.302975,0.1630,0.9912,0.4671,1.7598,-0.0536,3.7109,-1.5244,0.5976,-1.2847,
5.323168,-0.0022,0.8956,0.5101,1.7598,-0.0536,3.7109,-1.5244,0.5976,-1.2847,
5.325183,-0.0022,0.8956,0.5101,0.5291,-0.8755,3.3580,-1.5244,0.5976,-1.2847,
5.326979,-0.0022,0.8956,0.5101,0.5291,-0.8755,3.3580,-0.8240,0.7558,-1.6975,
5.342645,-0.0022,0.8956,0.5101,0.5291,-0.8755,3.3580,-0.3707,0.1252,-2.1252,
5.363676,-0.0173,0.6034,0.1874,0.5291,-0.8755,3.3580,-0.3707,0.1252,-2.1252,
5.366526,-0.0173,0.6034,0.1874,1.1437,-3.6256,-0.0203,-0.3707,0.1252,-2.1252,
5.368822,-0.0173,0.6034,0.1874,1.1437,-3.6256,-0.0203,-0.2099,-0.4906,-2.5827,
5.385441,-0.0173,0.6034,0.1874,1.1437,-3.6256,-0.0203,-0.1651,-0.7217,-2.7052,
5.402674,-0.6029,0.7082,0.1642,1.1437,-3.6256,-0.0203,-0.1651,-0.7217,-2.7052,
5.404780,-0.6029,0.7082,0.1642,-3.6442,-2.3948,-0.3629,-0.1651,-0.7217,-2.7052,
5.406793,-0.6029,0.7082,0.1642,-3.6442,-2.3948,-0.3629,0.0911,-0.3659,-2.0964,
5.422351,-0.6029,0.7082,0.1642,-3.6442,-2.3948,-0.3629,0.2045,0.5246,-1.3140,
5.442437,-0.7026,0.5827,-0.0503,-3.6442,-2.3948,-0.3629,0.2045,0.5246,-1.3140,
5.445022,-0.7026,0.5827,-0.0503,-3.9848,-3.4616,-2.3993,0.2045,0.5246,-1.3140,
5.447215,-0.7026,0.5827,-0.0503,-3.9848,-3.4616,-2.3993,0.0160,1.1462,-0.4341,
5.462675,-0.7026,0.5827,-0.0503,-3.9848,-3.4616,-2.3993,-0.2796,0.7601,0.0863,
5.482386,-0.2812,0.5959,-0.0220,-3.9848,-3.4616,-2.3993,-0.2796,0.7601,0.0863,
5.484813,-0.2812,0.5959,-0.0220,0.2795,-3.3022,-2.0560,-0.2796,0.7601,0.0863,
5.486381,-0.2812,0.5959,-0.0220,0.2795,-3.3022,-2.0560,-0.5071,0.0330,0.0969,
5.503108,-0.2812,0.5959,-0.0220,0.2795,-3.3022,-2.0560,-0.6312,-0.3553,0.2093,
5.522927,-0.3325,0.8343,0.1454,0.2795,-3.3022,-2.0560,-0.6312,-0.3553,0.2093,
5.525469,-0.3325,0.8343,0.1454,-0.2921,-0.9396,-0.6428,-0.6312,-0.3553,0.2093,
5.527413,-0.3325,0.8343,0.1454,-0.2921,-0.9396,-0.6428,-0.6892,-0.2850,0.3132,
5.542326,-0.3325,0.8343,0.1454,-0.2921,-0.9396,-0.6428,-0.6599,0.0479,0.3292,
5.562869,-0.3691,1.0449,0.3049,-0.2921,-0.9396,-0.6428,-0.6599,0.0479,0.3292,
5.566043,-0.3691,1.0449,0.3049,-0.7596,1.1498,0.6705,-0.6599,0.0479,0.3292,
5.567660,-0.3691,1.0449,0.3049,-0.7596,1.1498,0.6705,-0.5076,0.3579,0.2919,
5.583872,-0.3691,1.0449,0.3049,-0.7596,1.1498,0.6705,-0.1981,0.2929,0.2621,
5.602067,-0.4197,1.1668,0.2634,-0.7596,1.1498,0.6705,-0.1981,0.2929,0.2621,
5.603774,-0.4197,1.1668,0.2634,-1.3213,2.3472,0.1743,-0.1981,0.2929,0.2621,
5.605068,-0.4197,1.1668,0.2634,-1.3213,2.3472,0.1743,0.1380,0.1177,0.2365,
5.622131,-0.4197,1.1668,0.2634,-1.3213,2.3472,0.1743,0.4740,-0.1747,0.2525,
5.641983,-0.3525,1.2978,0.2807,-1.3213,2.3472,0.1743,0.4740,-0.1747,0.2525,
5.643660,-0.3525,1.2978,0.2807,-0.7544,3.5749,0.4527,0.4740,-0.1747,0.2525,
5.644550,-0.3525,1.2978,0.2807,-0.7544,3.5749,0.4527,0.9049,-0.5752,0.3798,
5.662450,-0.3525,1.2978,0.2807,-0.7544,3.5749,0.4527,1.2852,-1.0685,0.4469,
5.681795,-0.3906,1.3764,0.2795,-0.7544,3.5749,0.4527,1.2852,-1.0685,0.4469,
5.683347,-0.3906,1.3764,0.2795,-1.3498,4.2095,0.7590,1.2852,-1.0685,0.4469,
5.684338,-0.3906,1.3764,0.2795,-1.3498,4.2095,0.7590,1.4472,-1.5276,0.4943,
5.701884,-0.3906,1.3764,0.2795,-1.3498,4.2095,0.7590,0.9140,-1.4717,0.4107,
5.721772,-0.2717,1.3706,0.3811,-1.3498,4.2095,0.7590,0.9140,-1.4717,0.4107,
5.723420,-0.2717,1.3706,0.3811,-0.4611,4.0237,2.0558,0.9140,-1.4717,0.4107,
5.724450,-0.2717,1.3706,0.3811,-0.4611,4.0237,2.0558,0.0991,-1.2943,0.5039,
5.741826,-0.2717,1.3706,0.3811,-0.4611,4.0237,2.0558,-0.1065,-1.7012,0.6157,
5.762284,0.1598,1.0368,0.5192,-0.4611,4.0237,2.0558,-0.1065,-1.7012,0.6157,
5.765998,0.1598,1.0368,0.5192,3.4525,0.7079,3.2849,-0.1065,-1.7012,0.6157,
5.767984,0.1598,1.0368,0.5192,3.4525,0.7079,3.2849,0.1166,-1.8552,0.5262,
5.786711,0.1598,1.0368,0.5192,3.4525,0.7079,3.2849,0.3989,-1.4908,0.3611,
5.802479,0.2687,0.8968,0.3647,3.4525,0.7079,3.2849,0.3989,-1.4908,0.3611,
5.804474,0.2687,0.8968,0.3647,4.2301,-0.7138,1.7532,0.3989,-1.4908,0.3611,
5.806300,0.2687,0.8968,0.3647,4.2301,-0.7138,1.7532,0.6099,-0.9486,0.2940,
5.823092,0.2687,0.8968,0.3647,4.2301,-0.7138,1.7532,0.7388,-0.5161,0.2344,
5.842668,0.1537,1.0400,0.1754,4.2301,-0.7138,1.7532,0.7388,-0.5161,0.2344,
5.846203,0.1537,1.0400,0.1754,2.9465,0.6266,0.1080,0.7388,-0.5161,0.2344,
5.847722,0.1537,1.0400,0.1754,2.9465,0.6266,0.1080,0.8549,-0.1992,0.1055,
5.861997,0.1537,1.0400,0.1754,2.9465,0.6266,0.1080,0.9715,0.0336,0.0730,
5.882333,-0.0186,1.0662,0.0125,2.9465,0.6266,0.1080,0.9715,0.0336,0.0730,
5.884518,-0.0186,1.0662,0.0125,1.1992,0.8228,-1.1475,0.9715,0.0336,0.0730,
5.886201,-0.0186,1.0662,0.0125,1.1992,0.8228,-1.1475,1.0791,0.1859,0.1236,
5.901716,-0.0186,1.0662,0.0125,1.1992,0.8228,-1.1475,1.2884,0.4597,0.1305,
5.921833,-0.1371,0.9252,0.0039,1.1992,0.8228,-1.1475,1.2884,0.4597,0.1305,
5.923923,-0.1371,0.9252,0.0039,-0.0364,-0.6192,-0.7643,1.2884,0.4597,0.1305,
5.925863,-0.1371,0.9252,0.0039,-0.0364,-0.6192,-0.7643,1.5899,0.5593,-0.0479,
5.942479,-0.1371,0.9252,0.0039,-0.0364,-0.6192,-0.7643,1.7896,0.3419,-0.0421,
5.962875,-0.2511,0.8419,-0.0024,-0.0364,-0.6192,-0.7643,1.7896,0.3419,-0.0421,
5.965462,-0.2511,0.8419,-0.0024,-1.1280,-1.4643,-0.1556,1.7896,0.3419,-0.0421,
5.967363,-0.2511,0.8419,-0.0024,-1.1280,-1.4643,-0.1556,1.8903,0.0149,0.1065,
5.982296,-0.2511,0.8419,-0.0024,-1.1280,-1.4643,-0.1556,1.8147,-0.4671,0.3084,
6.002876,-0.2883,0.7468,-0.0191,-1.1280,-1.4643,-0.1556,1.8147,-0.4671,0.3084,
6.005151,-0.2883,0.7468,-0.0191,-1.5687,-2.3897,0.3888,1.8147,-0.4671,0.3084,
6.007069,-0.2883,0.7468,-0.0191,-1.5687,-2.3897,0.3888,1.5968,-0.8240,0.5976,
6.021754,-0.2883,0.7468,-0.0191,-1.5687,-2.3897,0.3888,1.3444,-0.8426,0.9183,
6.042094,-0.2353,0.6491,-0.1185,-1.5687,-2.3897,0.3888,1.3444,-0.8426,0.9183,
6.045915,-0.2353,0.6491,-0.1185,-1.3144,-3.3320,-0.0537,1.3444,-0.8426,0.9183,
6.048050,-0.2353,0.6491,-0.1185,-1.3144,-3.3320,-0.0537,1.0690,-0.6711,1.1670,
6.061666,-0.2353,0.6491,-0.1185,-1.3144,-3.3320,-0.0537,0.8464,-0.1012,1.3358,
6.082163,-0.1752,0.5370,-0.2565,-1.3144,-3.3320,-0.0537,0.8464,-0.1012,1.3358,
6.084982,-0.1752,0.5370,-0.2565,-1.1908,-4.4199,-1.0490,0.8464,-0.1012,1.3358,
6.087212,-0.1752,0.5370,-0.2565,-1.1908,-4.4199,-1.0490,0.5923,0.4826,1.5127,
6.101804,-0.1752,0.5370,-0.2565,-1.1908,-4.4199,-1.0490,0.2605,0.9321,1.7561,
6.122699,0.1266,0.5402,-0.4468,-1.1908,-4.4199,-1.0490,0.2605,0.9321,1.7561,
6.124965,0.1266,0.5402,-0.4468,1.0897,-4.3748,-2.7451,0.2605,0.9321,1.7561,
6.126845,0.1266,0.5402,-0.4468,1.0897,-4.3748,-2.7451,-0.1656,0.8906,1.9116,
6.141730,0.1266,0.5402,-0.4468,1.0897,-4.3748,-2.7451,-0.5965,0.3393,1.7151,
6.162259,0.4906,0.7053,-0.2704,1.0897,-4.3748,-2.7451,-0.5965,0.3393,1.7151,
6.164437,0.4906,0.7053,-0.2704,3.9181,-2.7420,-1.1747,-0.5965,0.3393,1.7151,
6.166345,0.4906,0.7053,-0.2704,3.9181,-2.7420,-1.1747,-0.6839,-0.2722,1.2655,
6.181998,0.4906,0.7053,-0.2704,3.9181,-2.7420,-1.1747,-0.5422,-0.5673,0.6908,
6.202204,0.4974,1.0378,-0.2580,3.9181,-2.7420,-1.1747,-0.5422,-0.5673,0.6908,
6.204310,0.4974,1.0378,-0.2580,3.6194,0.5274,-1.2616,-0.5422,-0.5673,0.6908,
6.206128,0.4974,1.0378,-0.2580,3.6194,0.5274,-1.2616,-0.2573,-0.3292,-0.0170,
6.221666,0.4974,1.0378,-0.2580,3.6194,0.5274,-1.2616,-0.1071,-0.0996,-0.3329,
6.241528,0.0677,1.1407,-0.4840,3.6194,0.5274,-1.2616,-0.1071,-0.0996,-0.3329,
6.244761,0.0677,1.1407,-0.4840,-0.5330,1.5268,-3.4845,-0.1071,-0.0996,-0.3329,
6.247054,0.0677,1.1407,-0.4840,-0.5330,1.5268,-3.4845,-0.0879,0.0794,-0.4224,
6.261862,0.0677,1.1407,-0.4840,-0.5330,1.5268,-3.4845,-0.1806,-0.3404,-0.4373,
6.281167,0.0418,1.5772,-0.3247,-0.5330,1.5268,-3.4845,-0.1806,-0.3404,-0.4373,
6.283482,0.0418,1.5772,-0.3247,-0.6145,5.7795,-1.9698,-0.1806,-0.3404,-0.4373,
6.285300,0.0418,1.5772,-0.3247,-0.6145,5.7795,-1.9698,-0.2131,-0.7095,-0.2722,
6.301093,0.0418,1.5772,-0.3247,-0.6145,5.7795,-1.9698,-0.1843,-0.7191,-0.0831,
6.321044,0.3760,1.2567,-0.2853,-0.6145,5.7795,-1.9698,-0.1843,-0.7191,-0.0831,
6.323191,0.3760,1.2567,-0.2853,2.7633,2.6220,-1.6337,-0.1843,-0.7191,-0.0831,
6.324524,0.3760,1.2567,-0.2853,2.7633,2.6220,-1.6337,-0.8149,-1.5537,-0.1065,
6.341696,0.3760,1.2567,-0.2853,2.7633,2.6220,-1.6337,-1.5840,-2.2711,-0.0570,
6.361646,0.5314,0.8727,-0.0506,2.7633,2.6220,-1.6337,-1.5840,-2.2711,-0.0570,
6.363761,0.5314,0.8727,-0.0506,4.3925,-1.1908,0.2671,-1.5840,-2.2711,-0.0570,
6.365470,0.5314,0.8727,-0.0506,4.3925,-1.1908,0.2671,-1.7012,-1.7508,0.1625,
6.382698,0.5314,0.8727,-0.0506,4.3925,-1.1908,0.2671,-1.5782,-1.3449,-0.1236,
6.401642,0.4354,0.8565,0.0567,4.3925,-1.1908,0.2671,-1.5782,-1.3449,-0.1236,
6.403887,0.4354,0.8565,0.0567,3.4407,-1.3761,0.7372,-1.5782,-1.3449,-0.1236,
6.405509,0.4354,0.8565,0.0567,3.4407,-1.3761,0.7372,-1.6341,-1.6581,-0.4400,
6.421124,0.4354,0.8565,0.0567,3.4407,-1.3761,0.7372,-1.8125,-2.0592,-0.7393,
6.441492,0.3437,1.1160,0.1368,3.4407,-1.3761,0.7372,-1.8125,-2.0592,-0.7393,
6.444045,0.3437,1.1160,0.1368,2.7630,1.1586,0.9030,-1.8125,-2.0592,-0.7393,
6.445583,0.3437,1.1160,0.1368,2.7630,1.1586,0.9030,-2.0714,-2.3654,-0.8224,
6.461702,0.3437,1.1160,0.1368,2.7630,1.1586,0.9030,-2.3090,-2.3377,-1.1691,
6.481567,0.2199,1.0515,0.4742,2.7630,1.1586,0.9030,-2.3090,-2.3377,-1.1691,
6.484239,0.2199,1.0515,0.4742,1.8594,0.5822,3.3994,-2.3090,-2.3377,-1.1691,
6.485862,0.2199,1.0515,0.4742,1.8594,0.5822,3.3994,-2.3335,-2.3569,-1.5420,
6.501684,0.2199,1.0515,0.4742,1.8594,0.5822,3.3994,-1.9271,-1.9564,-1.7087,
6.521324,0.0066,0.9482,0.7999,1.8594,0.5822,3.3994,-1.9271,-1.9564,-1.7087,
6.523791,0.0066,0.9482,0.7999,0.2536,-0.2933,5.7750,-1.9271,-1.9564,-1.7087,
6.525615,0.0066,0.9482,0.7999,0.2536,-0.2933,5.7750,-1.0280,-1.1638,-1.6240,
6.541763,0.0066,0.9482,0.7999,0.2536,-0.2933,5.7750,-0.0005,-0.3095,-1.5132,
6.561689,0.0210,0.7837,0.4344,0.2536,-0.2933,5.7750,-0.0005,-0.3095,-1.5132,
6.563745,0.0210,0.7837,0.4344,0.8802,-1.8214,1.9272,-0.0005,-0.3095,-1.5132,
6.565414,0.0210,0.7837,0.4344,0.8802,-1.8214,1.9272,0.6179,0.0170,-1.6964,
6.581767,0.0210,0.7837,0.4344,0.8802,-1.8214,1.9272,0.6386,-0.1848,-2.2232,
6.601453,-0.0638,0.5702,0.1024,0.8802,-1.8214,1.9272,0.6386,-0.1848,-2.2232,
6.603606,-0.0638,0.5702,0.1024,0.7855,-3.8877,-1.0923,0.6386,-0.1848,-2.2232,
6.605494,-0.0638,0.5702,0.1024,0.7855,-3.8877,-1.0923,0.2668,-0.5561,-2.8613,
6.620887,-0.0638,0.5702,0.1024,0.7855,-3.8877,-1.0923,0.0181,-0.8107,-2.8570,
6.641442,-0.7478,0.7209,0.0503,0.7855,-3.8877,-1.0923,0.0181,-0.8107,-2.8570,
6.644161,-0.7478,0.7209,0.0503,-4.9035,-2.2028,-1.6024,0.0181,-0.8107,-2.8570,
6.646234,-0.7478,0.7209,0.0503,-4.9035,-2.2028,-1.6024,-0.0522,-0.4288,-2.1705,
6.660794,-0.7478,0.7209,0.0503,-4.9035,-2.2028,-1.6024,-0.3611,0.5332,-1.1089,
6.681562,-0.4913,0.5192,-0.0073,-4.9035,-2.2028,-1.6024,-0.3611,0.5332,-1.1089,
6.684423,-0.4913,0.5192,-0.0073,-1.7839,-3.9847,-2.2341,-0.3611,0.5332,-1.1089,
6.686696,-0.4913,0.5192,-0.0073,-1.7839,-3.9847,-2.2341,-0.7723,1.1228,-0.0985,
6.701550,-0.4913,0.5192,-0.0073,-1.7839,-3.9847,-2.2341,-0.8959,0.4240,0.0032,
6.721012,-0.2355,0.5922,0.1297,-1.7839,-3.9847,-2.2341,-0.8959,0.4240,0.0032,
6.723428,-0.2355,0.5922,0.1297,0.8088,-3.1880,-1.0969,-0.8959,0.4240,0.0032,
6.725340,-0.2355,0.5922,0.1297,0.8088,-3.1880,-1.0969,-0.6605,-0.2977,-0.0772,
6.740812,-0.2355,0.5922,0.1297,0.8088,-3.1880,-1.0969,-0.3521,-0.8410,0.0123,
6.761449,-0.2639,0.7600,0.1520,0.8088,-3.1880,-1.0969,-0.3521,-0.8410,0.0123,
6.763791,-0.2639,0.7600,0.1520,0.4852,-1.4889,-1.1308,-0.3521,-0.8410,0.0123,
6.765560,-0.2639,0.7600,0.1520,0.4852,-1.4889,-1.1308,-0.1433,-0.9699,0.1108,
6.781659,-0.2639,0.7600,0.1520,0.4852,-1.4889,-1.1308,-0.0671,-0.5055,0.1246,
6.801571,-0.3161,0.9049,0.1891,0.4852,-1.4889,-1.1308,-0.0671,-0.5055,0.1246,
6.803688,-0.3161,0.9049,0.1891,-0.1483,-0.0720,-0.8932,-0.0671,-0.5055,0.1246,
6.805681,-0.3161,0.9049,0.1891,-0.1483,-0.0720,-0.8932,-0.1252,0.0043,0.0991,
6.820836,-0.3161,0.9049,0.1891,-0.1483,-0.0720,-0.8932,-0.2109,0.1651,0.1561,
6.840865,-0.3090,0.9369,0.1967,-0.1483,-0.0720,-0.8932,-0.2109,0.1651,0.1561,
6.844630,-0.3090,0.9369,0.1967,-0.1125,0.2442,-0.8632,-0.2109,0.1651,0.1561,
6.846371,-0.3090,0.9369,0.1967,-0.1125,0.2442,-0.8632,-0.2077,0.0415,0.2477,
6.861069,-0.3090,0.9369,0.1967,-0.1125,0.2442,-0.8632,-0.1262,-0.0447,0.3206,
6.881638,-0.3626,1.0219,0.0833,-0.1125,0.2442,-0.8632,-0.1262,-0.0447,0.3206,
6.885382,-0.3626,1.0219,0.0833,-0.7209,1.0528,-1.9819,-0.1262,-0.0447,0.3206,
6.887776,-0.3626,1.0219,0.0833,-0.7209,1.0528,-1.9819,-0.0991,-0.1076,0.3473,
6.901429,-0.3626,1.0219,0.0833,-0.7209,1.0528,-1.9819,-0.1635,-0.1438,0.2871,
6.921039,-0.4815,1.1030,0.0821,-0.7209,1.0528,-1.9819,-0.1635,-0.1438,0.2871,
6.923505,-0.4815,1.1030,0.0821,-2.0073,1.8252,-2.0406,-0.1635,-0.1438,0.2871,
6.925341,-0.4815,1.1030,0.0821,-2.0073,1.8252,-2.0406,-0.1992,-0.1641,0.2120,
6.940877,-0.4815,1.1030,0.0821,-2.0073,1.8252,-2.0406,-0.0032,-0.2562,0.2178,
6.960854,-0.4649,1.3503,0.2167,-2.0073,1.8252,-2.0406,-0.0032,-0.2562,0.2178,
6.963245,-0.4649,1.3503,0.2167,-1.9458,4.2369,-0.7800,-0.0032,-0.2562,0.2178,
6.964981,-0.4649,1.3503,0.2167,-1.9458,4.2369,-0.7800,0.3143,-0.6408,0.3297,
6.981077,-0.4649,1.3503,0.2167,-1.9458,4.2369,-0.7800,0.6828,-1.0099,0.4501,
7.000977,-0.5213,1.6237,0.3061,-1.9458,4.2369,-0.7800,0.6828,-1.0099,0.4501,
7.003241,-0.5213,1.6237,0.3061,-2.7340,6.8203,0.1943,0.6828,-1.0099,0.4501,
7.004910,-0.5213,1.6237,0.3061,-2.7340,6.8203,0.1943,1.0258,-1.2139,0.4623,
7.021531,-0.5213,1.6237,0.3061,-2.7340,6.8203,0.1943,1.2810,-1.1883,0.5433,
7.040701,-0.4344,1.2406,0.0853,-2.7340,6.8203,0.1943,1.2810,-1.1883,0.5433,
7.043694,-0.4344,1.2406,0.0853,-2.1937,2.8995,-1.6539,1.2810,-1.1883,0.5433,
7.045449,-0.4344,1.2406,0.0853,-2.1937,2.8995,-1.6539,0.9912,-0.8650,0.4469,
7.060540,-0.4344,1.2406,0.0853,-2.1937,2.8995,-1.6539,0.2887,-0.5784,0.2823,
7.080708,-0.1739,1.0339,0.4361,-2.1937,2.8995,-1.6539,0.2887,-0.5784,0.2823,
7.083132,-0.1739,1.0339,0.4361,0.1544,0.7842,1.9655,0.2887,-0.5784,0.2823,
7.084702,-0.1739,1.0339,0.4361,0.1544,0.7842,1.9655,0.1156,-0.8735,0.2445,
7.101786,-0.1739,1.0339,0.4361,0.1544,0.7842,1.9655,0.3728,-1.6826,0.1800,
7.120862,0.1485,0.9044,0.5609,0.1544,0.7842,1.9655,0.3728,-1.6826,0.1800,
7.122901,0.1485,0.9044,0.5609,3.1173,-0.5224,3.1909,0.3728,-1.6826,0.1800,
7.124608,0.1485,0.9044,0.5609,3.1173,-0.5224,3.1909,0.7627,-2.3457,0.0660,
7.140570,0.1485,0.9044,0.5609,3.1173,-0.5224,3.1909,0.9577,-2.3356,-0.0107,
7.161157,0.3117,0.9611,0.3904,3.1173,-0.5224,3.1909,0.9577,-2.3356,-0.0107,
7.163240,0.3117,0.9611,0.3904,4.4952,-0.0450,1.6970,0.9577,-2.3356,-0.0107,
7.164948,0.3117,0.9611,0.3904,4.4952,-0.0450,1.6970,0.8538,-1.3827,-0.0607,
7.182272,0.3117,0.9611,0.3904,4.4952,-0.0450,1.6970,0.7025,-0.1747,-0.1859,
7.200483,0.2829,0.9508,0.2565,4.4952,-0.0450,1.6970,0.7025,-0.1747,-0.1859,
7.202746,0.2829,0.9508,0.2565,4.1590,-0.2031,0.6185,0.7025,-0.1747,-0.1859,
7.204381,0.2829,0.9508,0.2565,4.1590,-0.2031,0.6185,0.6828,0.4890,-0.3931,
7.221087,0.2829,0.9508,0.2565,4.1590,-0.2031,0.6185,0.7228,0.4011,-0.5065,
7.240774,0.0901,0.9821,0.0919,4.1590,-0.2031,0.6185,0.7228,0.4011,-0.5065,
7.243859,0.0901,0.9821,0.0919,2.3997,0.0723,-0.7195,0.7228,0.4011,-0.5065,
7.245713,0.0901,0.9821,0.0919,2.3997,0.0723,-0.7195,0.6770,-0.1561,-0.4021,
7.261376,0.0901,0.9821,0.0919,2.3997,0.0723,-0.7195,0.6045,-0.4607,-0.2674,
7.280745,0.0599,0.8856,0.0156,2.3997,0.0723,-0.7195,0.6045,-0.4607,-0.2674,
7.282952,0.0599,0.8856,0.0156,2.1577,-0.8998,-1.2430,0.6045,-0.4607,-0.2674,
7.284810,0.0599,0.8856,0.0156,2.1577,-0.8998,-1.2430,0.5587,-0.5832,-0.2077,
7.301403,0.0599,0.8856,0.0156,2.1577,-0.8998,-1.2430,0.6658,-0.3792,-0.1443,
7.320102,-0.1798,1.0696,0.1136,2.1577,-0.8998,-1.2430,0.6658,-0.3792,-0.1443,
7.322265,-0.1798,1.0696,0.1136,-0.2017,0.8741,-0.0815,0.6658,-0.3792,-0.1443,
7.324056,-0.1798,1.0696,0.1136,-0.2017,0.8741,-0.0815,1.2591,0.5832,-0.2860,
7.340323,-0.1798,1.0696,0.1136,-0.2017,0.8741,-0.0815,1.9169,1.3406,-0.9465,
7.360106,-0.4766,0.9953,0.0613,-0.2017,0.8741,-0.0815,1.9169,1.3406,-0.9465,
7.362548,-0.4766,0.9953,0.0613,-2.8343,0.1356,0.0683,1.9169,1.3406,-0.9465,
7.364165,-0.4766,0.9953,0.0613,-2.8343,0.1356,0.0683,2.0581,1.0429,-1.0573,
7.380685,-0.4766,0.9953,0.0613,-2.8343,0.1356,0.0683,1.7550,0.3286,-0.7531,
7.400158,-0.4143,0.7635,-0.0200,-2.8343,0.1356,0.0683,1.7550,0.3286,-0.7531,
7.403568,-0.4143,0.7635,-0.0200,-1.8535,-2.0702,0.0412,1.7550,0.3286,-0.7531,
7.406033,-0.4143,0.7635,-0.0200,-1.8535,-2.0702,0.0412,1.1979,-0.2663,-0.0336,
7.419492,-0.4143,0.7635,-0.0200,-1.8535,-2.0702,0.0412,0.7920,-0.1481,0.5364,
7.439980,-0.2812,0.5868,-0.0362,-1.8535,-2.0702,0.0412,0.7920,-0.1481,0.5364,
7.440842,-0.2812,0.5868,-0.0362,-0.6411,-3.8063,0.2446,0.7920,-0.1481,0.5364,
7.441534,-0.2812,0.5868,-0.0362,-0.6411,-3.8063,0.2446,0.6333,0.4176,0.7228,
7.460362,-0.2812,0.5868,-0.0362,-0.6411,-3.8063,0.2446,0.4314,0.8831,0.9476,
7.480322,-0.1884,0.4376,-0.0594,-0.6411,-3.8063,0.2446,0.4314,0.8831,0.9476,
7.482631,-0.1884,0.4376,-0.0594,-0.0705,-5.3188,0.2709,0.4314,0.8831,0.9476,
7.484436,-0.1884,0.4376,-0.0594,-0.0705,-5.3188,0.2709,0.3446,1.3305,1.2410,
7.501030,-0.1884,0.4376,-0.0594,-0.0705,-5.3188,0.2709,0.4213,1.5819,1.4530,
7.520245,-0.0850,0.5233,-0.0911,-0.0705,-5.3188,0.2709,0.4213,1.5819,1.4530,
7.522946,-0.0850,0.5233,-0.0911,0.3669,-4.5437,0.1938,0.4213,1.5819,1.4530,
7.524646,-0.0850,0.5233,-0.0911,0.3669,-4.5437,0.1938,0.5981,1.4567,1.5798,
7.540014,-0.0850,0.5233,-0.0911,0.3669,-4.5437,0.1938,0.7180,1.0248,1.4844,
7.560020,0.3782,0.7464,-0.7505,0.3669,-4.5437,0.1938,0.7180,1.0248,1.4844,
7.562437,0.3782,0.7464,-0.7505,4.2534,-2.3786,-5.9694,0.7180,1.0248,1.4844,
7.563879,0.3782,0.7464,-0.7505,4.2534,-2.3786,-5.9694,0.5747,0.3015,0.9476,
7.579577,0.3782,0.7464,-0.7505,4.2534,-2.3786,-5.9694,0.1843,-0.0314,0.1859,
7.599839,0.1209,0.8399,-0.6323,4.2534,-2.3786,-5.9694,0.1843,-0.0314,0.1859,
7.602943,0.1209,0.8399,-0.6323,1.5051,-1.4492,-4.6612,0.1843,-0.0314,0.1859,
7.604376,0.1209,0.8399,-0.6323,1.5051,-1.4492,-4.6612,-0.1630,-0.1507,-0.3057,
7.619642,0.1209,0.8399,-0.6323,1.5051,-1.4492,-4.6612,-0.2866,-0.0985,-0.4847,
7.640270,-0.1234,0.9557,-0.3254,1.5051,-1.4492,-4.6612,-0.2866,-0.0985,-0.4847,
7.644015,-0.1234,0.9557,-0.3254,-0.7318,-0.3183,-1.7211,-0.2866,-0.0985,-0.4847,
7.646340,-0.1234,0.9557,-0.3254,-0.7318,-0.3183,-1.7211,-0.2067,0.2951,-0.7047,
7.659515,-0.1234,0.9557,-0.3254,-0.7318,-0.3183,-1.7211,0.1577,0.8703,-0.9012,
7.680146,-0.5685,1.8790,-0.3181,-0.7318,-0.3183,-1.7211,0.1577,0.8703,-0.9012,
7.682656,-0.5685,1.8790,-0.3181,-4.8174,8.7478,-1.6439,0.1577,0.8703,-0.9012,
7.684417,-0.5685,1.8790,-0.3181,-4.8174,8.7478,-1.6439,0.6392,0.7212,-0.3531,
7.699620,-0.5685,1.8790,-0.3181,-4.8174,8.7478,-1.6439,0.7633,-0.2232,0.1204,
7.719321,0.0467,1.1265,-0.4026,-4.8174,8.7478,-1.6439,0.7633,-0.2232,0.1204,
7.721584,0.0467,1.1265,-0.4026,1.2414,1.4225,-2.1946,0.7633,-0.2232,0.1204,
7.722832,0.0467,1.1265,-0.4026,1.2414,1.4225,-2.1946,0.0666,-1.0812,0.6179,
7.739555,0.0467,1.1265,-0.4026,1.2414,1.4225,-2.1946,-0.8155,-1.7651,1.0392,
7.759995,0.3142,0.8272,-0.1258,1.2414,1.4225,-2.1946,-0.8155,-1.7651,1.0392,
7.763318,0.3142,0.8272,-0.1258,3.6331,-1.5568,0.3414,-0.8155,-1.7651,1.0392,
7.765003,0.3142,0.8272,-0.1258,3.6331,-1.5568,0.3414,-1.0109,-1.7417,1.1462,
7.779413,0.3142,0.8272,-0.1258,3.6331,-1.5568,0.3414,-1.0855,-1.7289,0.9918,
7.799742,0.4168,1.3459,-0.0779,3.6331,-1.5568,0.3414,-1.0855,-1.7289,0.9918,
7.803444,0.4168,1.3459,-0.0779,4.3190,3.4525,0.3777,-1.0855,-1.7289,0.9918,
7.804683,0.4168,1.3459,-0.0779,4.3190,3.4525,0.3777,-1.1521,-2.0293,0.7702,
7.819309,0.4168,1.3459,-0.0779,4.3190,3.4525,0.3777,-1.5649,-2.9801,0.4980,
7.839579,0.4456,1.1861,-0.0034,4.3190,3.4525,0.3777,-1.5649,-2.9801,0.4980,
7.843285,0.4456,1.1861,-0.0034,4.4407,1.8357,0.5648,-1.5649,-2.9801,0.4980,
7.845195,0.4456,1.1861,-0.0034,4.4407,1.8357,0.5648,-2.1859,-3.4184,0.2104,
7.859219,0.4456,1.1861,-0.0034,4.4407,1.8357,0.5648,-2.9385,-2.8315,-0.2503,
7.880556,0.2792,0.9369,0.4649,4.4407,1.8357,0.5648,-2.9385,-2.8315,-0.2503,
7.884371,0.2792,0.9369,0.4649,2.8371,-0.6156,4.1426,-2.9385,-2.8315,-0.2503,
7.886687,0.2792,0.9369,0.4649,2.8371,-0.6156,4.1426,-3.4563,-1.9750,-0.7207,
7.899844,0.2792,0.9369,0.4649,2.8371,-0.6156,4.1426,-2.9534,-0.9465,-0.7420,
7.919745,0.0618,0.8534,1.0224,2.8371,-0.6156,4.1426,-2.9534,-0.9465,-0.7420,
7.921947,0.0618,0.8534,1.0224,0.9348,-1.2946,8.3483,-2.9534,-0.9465,-0.7420,
7.923690,0.0618,0.8534,1.0224,0.9348,-1.2946,8.3483,-1.7737,0.4810,-0.7057,
7.939747,0.0618,0.8534,1.0224,0.9348,-1.2946,8.3483,-0.4336,1.1665,-0.7473,
7.959503,0.0220,0.9039,0.5949,0.9348,-1.2946,8.3483,-0.4336,1.1665,-0.7473,
7.963003,0.0220,0.9039,0.5949,0.8881,-0.7019,3.7523,-0.4336,1.1665,-0.7473,
7.964928,0.0220,0.9039,0.5949,0.8881,-0.7019,3.7523,0.3276,0.9220,-0.9582,
7.980114,0.0220,0.9039,0.5949,0.8881,-0.7019,3.7523,0.4101,0.3127,-1.5100,
7.999424,0.1261,0.7104,0.0941,0.8881,-0.7019,3.7523,0.4101,0.3127,-1.5100,
8.001759,0.1261,0.7104,0.0941,2.4103,-2.5804,-1.0087,0.4101,0.3127,-1.5100,
8.003552,0.1261,0.7104,0.0941,2.4103,-2.5804,-1.0087,0.0016,-0.4783,-2.2877,
8.019854,0.1261,0.7104,0.0941,2.4103,-2.5804,-1.0087,-0.5076,-1.1015,-2.9694,
8.039748,-0.4239,0.7444,0.1554,2.4103,-2.5804,-1.0087,-0.5076,-1.1015,-2.9694,
8.043680,-0.4239,0.7444,0.1554,-2.0489,-2.0545,-0.5567,-0.5076,-1.1015,-2.9694,
8.045977,-0.4239,0.7444,0.1554,-2.0489,-2.0545,-0.5567,-0.7148,-1.3950,-2.9705,
8.059272,-0.4239,0.7444,0.1554,-2.0489,-2.0545,-0.5567,-0.4826,-0.8197,-2.0773,
8.080289,-0.9340,0.7617,0.0132,-2.0489,-2.0545,-0.5567,-0.4826,-0.8197,-2.0773,
8.084030,-0.9340,0.7617,0.0132,-6.1984,-1.5717,-2.2742,-0.4826,-0.8197,-2.0773,
8.086772,-0.9340,0.7617,0.0132,-6.1984,-1.5717,-2.2742,-0.3787,0.5380,-0.8740,
8.099018,-0.9340,0.7617,0.0132,-6.1984,-1.5717,-2.2742,-0.3739,1.3571,0.2029,
8.119542,-0.3425,0.5541,0.0611,-6.1984,-1.5717,-2.2742,-0.3739,1.3571,0.2029,
8.121961,-0.3425,0.5541,0.0611,-0.1892,-3.5298,-1.8219,-0.3739,1.3571,0.2029,
8.123866,-0.3425,0.5541,0.0611,-0.1892,-3.5298,-1.8219,-0.3441,0.5763,0.3414,
8.139523,-0.3425,0.5541,0.0611,-0.1892,-3.5298,-1.8219,-0.2013,-0.2775,0.0597,
8.158648,-0.3577,0.7187,0.0941,-0.1892,-3.5298,-1.8219,-0.2013,-0.2775,0.0597,
8.161152,-0.3577,0.7187,0.0941,-0.3951,-1.9147,-1.5773,-0.2013,-0.2775,0.0597,
8.163164,-0.3577,0.7187,0.0941,-0.3951,-1.9147,-1.5773,-0.0410,-0.7713,-0.0186,
8.180321,-0.3577,0.7187,0.0941,-0.3951,-1.9147,-1.5773,-0.0309,-0.8602,0.1571,
8.199536,-0.3628,0.9181,0.1549,-0.3951,-1.9147,-1.5773,-0.0309,-0.8602,0.1571,
8.202126,-0.3628,0.9181,0.1549,-0.5535,0.0343,-1.0939,-0.0309,-0.8602,0.1571,
8.203932,-0.3628,0.9181,0.1549,-0.5535,0.0343,-1.0939,-0.0810,-0.6109,0.1726,
8.219686,-0.3628,0.9181,0.1549,-0.5535,0.0343,-1.0939,-0.1156,-0.4027,0.1182,
8.239215,-0.3704,1.1052,0.2656,-0.5535,0.0343,-1.0939,-0.1156,-0.4027,0.1182,
8.242582,-0.3704,1.1052,0.2656,-0.7091,1.8606,-0.0746,-0.1156,-0.4027,0.1182,
8.244530,-0.3704,1.1052,0.2656,-0.7091,1.8606,-0.0746,-0.0453,-0.2977,0.1103,
8.258726,-0.3704,1.1052,0.2656,-0.7091,1.8606,-0.0746,0.1827,-0.1901,0.1113,
8.278621,-0.4041,1.1807,0.2533,-0.7091,1.8606,-0.0746,0.1827,-0.1901,0.1113,
8.281921,-0.4041,1.1807,0.2533,-1.1055,2.5803,-0.1978,0.1827,-0.1901,0.1113,
8.283944,-0.4041,1.1807,0.2533,-1.1055,2.5803,-0.1978,0.5449,-0.1587,0.2040,
8.299658,-0.4041,1.1807,0.2533,-1.1055,2.5803,-0.1978,0.9742,-0.2871,0.3041,
8.319563,-0.4175,1.3254,0.2416,-1.1055,2.5803,-0.1978,0.9742,-0.2871,0.3041,
8.323863,-0.4175,1.3254,0.2416,-1.3517,3.8917,-0.0633,0.9742,-0.2871,0.3041,
8.326210,-0.4175,1.3254,0.2416,-1.3517,3.8917,-0.0633,1.3284,-0.6557,0.3388,
8.338259,-0.4175,1.3254,0.2416,-1.3517,3.8917,-0.0633,1.4456,-0.9902,0.3654,
8.358688,-0.4542,1.3393,0.2243,-1.3517,3.8917,-0.0633,1.4456,-0.9902,0.3654,
8.361295,-0.4542,1.3393,0.2243,-1.9122,3.8682,0.1887,1.4456,-0.9902,0.3654,
8.362600,-0.4542,1.3393,0.2243,-1.9122,3.8682,0.1887,1.1388,-1.1052,0.3031,
8.378485,-0.4542,1.3393,0.2243,-1.9122,3.8682,0.1887,0.7617,-1.1654,0.3675,
8.399352,-0.1705,1.1226,0.3782,-1.9122,3.8682,0.1887,0.7617,-1.1654,0.3675,
8.401964,-0.1705,1.1226,0.3782,0.6579,1.6405,1.9398,0.7617,-1.1654,0.3675,
8.403331,-0.1705,1.1226,0.3782,0.6579,1.6405,1.9398,0.6679,-1.4472,0.4421,
8.418799,-0.1705,1.1226,0.3782,0.6579,1.6405,1.9398,0.7899,-1.5723,0.4762,
8.438823,0.1197,0.8680,0.3855,0.6579,1.6405,1.9398,0.7899,-1.5723,0.4762,
8.442711,0.1197,0.8680,0.3855,3.2272,-0.9439,2.1535,0.7899,-1.5723,0.4762,
8.444926,0.1197,0.8680,0.3855,3.2272,-0.9439,2.1535,0.9305,-1.4892,0.4522,
8.459225,0.1197,0.8680,0.3855,3.2272,-0.9439,2.1535,0.9614,-1.1984,0.4027,
8.479499,0.1984,0.9396,0.2726,3.2272,-0.9439,2.1535,0.9614,-1.1984,0.4027,
8.482859,0.1984,0.9396,0.2726,3.7168,-0.3347,1.2706,0.9614,-1.1984,0.4027,
8.484991,0.1984,0.9396,0.2726,3.7168,-0.3347,1.2706,0.8810,-0.7867,0.3361,
8.498319,0.1984,0.9396,0.2726,3.7168,-0.3347,1.2706,0.7462,-0.3760,0.2328,
8.518749,0.0239,1.0534,0.0855,3.7168,-0.3347,1.2706,0.7462,-0.3760,0.2328,
8.521184,0.0239,1.0534,0.0855,1.8301,0.7163,-0.3109,0.7462,-0.3760,0.2328,
8.522897,0.0239,1.0534,0.0855,1.8301,0.7163,-0.3109,0.6045,0.0533,0.2402,
8.538511,0.0239,1.0534,0.0855,1.8301,0.7163,-0.3109,0.5657,0.5784,0.2700,
8.559452,-0.2231,1.1761,0.0855,1.8301,0.7163,-0.3109,0.5657,0.5784,0.2700,
8.562767,-0.2231,1.1761,0.0855,-0.6762,1.8782,-0.0666,0.5657,0.5784,0.2700,
8.564769,-0.2231,1.1761,0.0855,-0.6762,1.8782,-0.0666,1.0067,1.5329,0.0224,
8.581104,-0.2231,1.1761,0.0855,-0.6762,1.8782,-0.0666,1.6240,2.1742,-0.3159,
8.599328,-0.3667,0.8695,0.0288,-0.6762,1.8782,-0.0666,1.6240,2.1742,-0.3159,
8.601671,-0.3667,0.8695,0.0288,-1.9708,-1.1458,-0.0196,1.6240,2.1742,-0.3159,
8.603677,-0.3667,0.8695,0.0288,-1.9708,-1.1458,-0.0196,1.7588,1.5750,-0.1795,
8.619075,-0.3667,0.8695,0.0288,-1.9708,-1.1458,-0.0196,1.6618,0.6802,0.1870,
8.639047,-0.2575,0.7635,0.0320,-1.9708,-1.1458,-0.0196,1.6618,0.6802,0.1870,
8.641440,-0.2575,0.7635,0.0320,-0.8935,-2.1793,0.7332,1.6618,0.6802,0.1870,
8.643221,-0.2575,0.7635,0.0320,-0.8935,-2.1793,0.7332,1.5947,0.1470,0.6786,
8.659685,-0.2575,0.7635,0.0320,-0.8935,-2.1793,0.7332,1.6341,0.1848,1.2677,
8.678969,-0.1788,0.7825,-0.0447,-0.8935,-2.1793,0.7332,1.6341,0.1848,1.2677,
8.681334,-0.1788,0.7825,-0.0447,-0.5034,-2.0010,0.6144,1.6341,0.1848,1.2677,
8.683059,-0.1788,0.7825,-0.0447,-0.5034,-2.0010,0.6144,1.6107,0.4053,1.4301,
8.698835,-0.1788,0.7825,-0.0447,-0.5034,-2.0010,0.6144,1.3364,0.5097,1.5127,
8.718201,-0.0938,0.5998,-0.2133,-0.5034,-2.0010,0.6144,1.3364,0.5097,1.5127,
8.720902,-0.0938,0.5998,-0.2133,-0.2632,-3.7688,-0.4518,1.3364,0.5097,1.5127,
8.722875,-0.0938,0.5998,-0.2133,-0.2632,-3.7688,-0.4518,0.9081,0.6551,1.6160,
8.738861,-0.0938,0.5998,-0.2133,-0.2632,-3.7688,-0.4518,0.5758,0.9529,1.6235,
8.759634,0.1444,0.5218,-0.4148,-0.2632,-3.7688,-0.4518,0.5758,0.9529,1.6235,
8.762640,0.1444,0.5218,-0.4148,1.3897,-4.5002,-2.1324,0.5758,0.9529,1.6235,
8.764417,0.1444,0.5218,-0.4148,1.3897,-4.5002,-2.1324,0.2482,1.0519,1.5803,
8.778621,0.1444,0.5218,-0.4148,1.3897,-4.5002,-2.1324,-0.1119,0.6599,1.4243,
8.798171,0.4349,0.6037,-0.4383,1.3897,-4.5002,-2.1324,-0.1119,0.6599,1.4243,
8.801523,0.4349,0.6037,-0.4383,3.5939,-3.6719,-2.3470,-0.1119,0.6599,1.4243,
8.803677,0.4349,0.6037,-0.4383,3.5939,-3.6719,-2.3470,-0.4202,-0.0005,1.0860,
8.819008,0.4349,0.6037,-0.4383,3.5939,-3.6719,-2.3470,-0.5039,-0.4549,0.6509,
8.838887,0.3071,0.7810,-0.1923,3.5939,-3.6719,-2.3470,-0.5039,-0.4549,0.6509,
8.841064,0.3071,0.7810,-0.1923,2.0256,-1.9392,-0.1046,-0.5039,-0.4549,0.6509,
8.843046,0.3071,0.7810,-0.1923,2.0256,-1.9392,-0.1046,-0.4591,-0.4980,0.2887,
8.858769,0.3071,0.7810,-0.1923,2.0256,-1.9392,-0.1046,-0.2999,-0.2530,0.0085,
8.880226,0.1634,0.8832,-0.3884,2.0256,-1.9392,-0.1046,-0.2999,-0.2530,0.0085,
8.883774,0.1634,0.8832,-0.3884,0.5865,-0.9585,-2.1576,-0.2999,-0.2530,0.0085,
8.885863,0.1634,0.8832,-0.3884,0.5865,-0.9585,-2.1576,-0.1816,-0.1214,-0.1065,
8.898223,0.1634,0.8832,-0.3884,0.5865,-0.9585,-2.1576,-0.1294,-0.0176,-0.2498,
8.918006,0.0151,1.3092,-0.4818,0.5865,-0.9585,-2.1576,-0.1294,-0.0176,-0.2498,
8.920357,0.0151,1.3092,-0.4818,-0.7950,3.2023,-3.1156,-0.1294,-0.0176,-0.2498,
8.922254,0.0151,1.3092,-0.4818,-0.7950,3.2023,-3.1156,-0.0570,-0.1087,-0.5172,
8.938266,0.0151,1.3092,-0.4818,-0.7950,3.2023,-3.1156,-0.0783,-0.7041,-0.3457,
8.958429,-0.0486,1.6899,-0.2744,-0.7950,3.2023,-3.1156,-0.0783,-0.7041,-0.3457,
8.961085,-0.0486,1.6899,-0.2744,-1.2279,6.9135,-1.0958,-0.0783,-0.7041,-0.3457,
8.962916,-0.0486,1.6899,-0.2744,-1.2279,6.9135,-1.0958,-0.0959,-1.1574,-0.0080,
8.977977,-0.0486,1.6899,-0.2744,-1.2279,6.9135,-1.0958,-0.3835,-1.4093,0.1044,
8.997495,0.3682,0.8607,-0.2389,-1.2279,6.9135,-1.0958,-0.3835,-1.4093,0.1044,
8.999529,0.3682,0.8607,-0.2389,2.9188,-1.2261,-0.8044,-0.3835,-1.4093,0.1044,
9.000981,0.3682,0.8607,-0.2389,2.9188,-1.2261,-0.8044,-0.9140,-1.7934,0.0485,
9.017920,0.3682,0.8607,-0.2389,2.9188,-1.2261,-0.8044,-1.1505,-1.3124,0.1486,
9.038386,0.3840,1.0977,-0.2409,2.9188,-1.2261,-0.8044,-1.1505,-1.3124,0.1486,
9.040620,0.3840,1.0977,-0.2409,3.1222,1.0427,-1.1822,-1.1505,-1.3124,0.1486,
9.042404,0.3840,1.0977,-0.2409,3.1222,1.0427,-1.1822,-1.1739,-0.3691,-0.2274,
9.057600,0.3840,1.0977,-0.2409,3.1222,1.0427,-1.1822,-1.4344,-0.7531,-0.7222,
9.077950,0.2810,0.9582,-0.0310,3.1222,1.0427,-1.1822,-1.4344,-0.7531,-0.7222,
9.080135,0.2810,0.9582,-0.0310,2.3087,-0.3824,0.3827,-1.4344,-0.7531,-0.7222,
9.081859,0.2810,0.9582,-0.0310,2.3087,-0.3824,0.3827,-1.7327,-1.5627,-1.0104,
9.099426,0.2810,0.9582,-0.0310,2.3087,-0.3824,0.3827,-1.8717,-1.9697,-1.3300,
9.117933,0.1771,0.8710,0.0523,2.3087,-0.3824,0.3827,-1.8717,-1.9697,-1.3300,
9.119980,0.1771,0.8710,0.0523,1.6825,-1.2711,0.5366,-1.8717,-1.9697,-1.3300,
9.121799,0.1771,0.8710,0.0523,1.6825,-1.2711,0.5366,-2.0565,-2.0560,-1.6751,
9.138105,0.1771,0.8710,0.0523,1.6825,-1.2711,0.5366,-2.2930,-2.1572,-1.8674,
9.157904,-0.1312,0.9711,0.3911,1.6825,-1.2711,0.5366,-2.2930,-2.1572,-1.8674,
9.160635,-0.1312,0.9711,0.3911,-0.7247,-0.2356,2.9712,-2.2930,-2.1572,-1.8674,
9.162482,-0.1312,0.9711,0.3911,-0.7247,-0.2356,2.9712,-2.4512,-2.3356,-1.5143,
9.178565,-0.1312,0.9711,0.3911,-0.7247,-0.2356,2.9712,-2.1849,-1.3619,-1.0189,
9.198038,-0.1300,1.0715,0.7197,-0.7247,-0.2356,2.9712,-2.1849,-1.3619,-1.0189,
9.200339,-0.1300,1.0715,0.7197,-0.3241,0.9127,5.2275,-2.1849,-1.3619,-1.0189,
9.202004,-0.1300,1.0715,0.7197,-0.3241,0.9127,5.2275,-1.4589,0.4336,-1.0024,
9.218189,-0.1300,1.0715,0.7197,-0.3241,0.9127,5.2275,-0.7468,1.1308,-1.2197,
9.237574,-0.3833,0.9501,0.4632,-0.3241,0.9127,5.2275,-0.7468,1.1308,-1.2197,
9.239899,-0.3833,0.9501,0.4632,-2.3184,-0.1327,2.3217,-0.7468,1.1308,-1.2197,
9.241858,-0.3833,0.9501,0.4632,-2.3184,-0.1327,2.3217,-0.2242,0.9758,-1.1723,
9.258308,-0.3833,0.9501,0.4632,-2.3184,-0.1327,2.3217,-0.0021,0.7222,-1.0519,
9.277932,-0.3831,0.7608,0.1273,-2.3184,-0.1327,2.3217,-0.0021,0.7222,-1.0519,
9.280356,-0.3831,0.7608,0.1273,-1.8022,-1.8937,-0.9778,-0.0021,0.7222,-1.0519,
9.282052,-0.3831,0.7608,0.1273,-1.8022,-1.8937,-0.9778,-0.0314,0.6775,-1.0296,
9.299473,-0.3831,0.7608,0.1273,-1.8022,-1.8937,-0.9778,-0.3068,0.6732,-0.9289,
9.318056,-0.5477,0.5876,-0.0892,-1.8022,-1.8937,-0.9778,-0.3068,0.6732,-0.9289,
9.320549,-0.5477,0.5876,-0.0892,-2.9922,-3.4916,-3.1033,-0.3068,0.6732,-0.9289,
9.322483,-0.5477,0.5876,-0.0892,-2.9922,-3.4916,-3.1033,-0.6306,0.7915,-0.6157,
9.337599,-0.5477,0.5876,-0.0892,-2.9922,-3.4916,-3.1033,-0.8373,1.0472,-0.1587,
9.357142,-0.3235,0.5270,0.0027,-2.9922,-3.4916,-3.1033,-0.8373,1.0472,-0.1587,
9.360157,-0.3235,0.5270,0.0027,-0.5668,-3.9792,-2.3802,-0.8373,1.0472,-0.1587,
9.361930,-0.3235,0.5270,0.0027,-0.5668,-3.9792,-2.3802,-0.8831,0.9641,0.1204,
9.377568,-0.3235,0.5270,0.0027,-0.5668,-3.9792,-2.3802,-0.6988,0.5875,0.0666,
9.397186,-0.2125,0.6958,0.1454,-0.5668,-3.9792,-2.3802,-0.6988,0.5875,0.0666,
9.399405,-0.2125,0.6958,0.1454,0.5637,-2.2553,-1.1885,-0.6988,0.5875,0.0666,
9.401355,-0.2125,0.6958,0.1454,0.5637,-2.2553,-1.1885,-0.3782,0.0836,0.0575,
9.417021,-0.2125,0.6958,0.1454,0.5637,-2.2553,-1.1885,-0.1033,-0.5300,0.1358,
9.437729,-0.2648,0.8475,0.2013,0.5637,-2.2553,-1.1885,-0.1033,-0.5300,0.1358,
9.439893,-0.2648,0.8475,0.2013,-0.0078,-0.7531,-0.7505,-0.1033,-0.5300,0.1358,
9.441661,-0.2648,0.8475,0.2013,-0.0078,-0.7531,-0.7505,0.0037,-0.7079,0.1896,
9.456999,-0.2648,0.8475,0.2013,-0.0078,-0.7531,-0.7505,-0.0927,-0.0964,0.2232,
9.477077,-0.3745,1.0596,0.2634,-0.0078,-0.7531,-0.7505,-0.0927,-0.0964,0.2232,
9.479904,-0.3745,1.0596,0.2634,-1.1818,1.3092,-0.1815,-0.0927,-0.0964,0.2232,
9.481541,-0.3745,1.0596,0.2634,-1.1818,1.3092,-0.1815,-0.2567,0.6189,0.2429,
9.499950,-0.3745,1.0596,0.2634,-1.1818,1.3092,-0.1815,-0.2365,0.8176,0.3041,
9.517097,-0.4454,1.2389,0.2729,-1.1818,1.3092,-0.1815,-0.2365,0.8176,0.3041,
9.520872,-0.4454,1.2389,0.2729,-1.8956,3.0668,-0.1064,-0.2365,0.8176,0.3041,
9.523134,-0.4454,1.2389,0.2729,-1.8956,3.0668,-0.1064,0.0133,0.7452,0.3398,
9.537183,-0.4454,1.2389,0.2729,-1.8956,3.0668,-0.1064,0.4746,0.4447,0.3782,
9.557432,-0.4173,1.3969,0.2939,-1.8956,3.0668,-0.1064,0.4746,0.4447,0.3782,
9.560423,-0.4173,1.3969,0.2939,-1.6857,4.5546,0.2463,0.4746,0.4447,0.3782,
9.562098,-0.4173,1.3969,0.2939,-1.6857,4.5546,0.2463,1.0626,-0.0309,0.4069,
9.577772,-0.4173,1.3969,0.2939,-1.6857,4.5546,0.2463,1.4855,-0.6189,0.4240,
9.597759,-0.4302,1.2936,0.1910,-1.6857,4.5546,0.2463,1.4855,-0.6189,0.4240,
9.600099,-0.4302,1.2936,0.1910,-1.9957,3.3808,-0.3221,1.4855,-0.6189,0.4240,
9.602079,-0.4302,1.2936,0.1910,-1.9957,3.3808,-0.3221,1.4940,-1.1095,0.4224,
9.617471,-0.4302,1.2936,0.1910,-1.9957,3.3808,-0.3221,0.9380,-1.0844,0.4202,
9.637343,-0.1705,1.2127,0.3310,-1.9957,3.3808,-0.3221,0.9380,-1.0844,0.4202,
9.641721,-0.1705,1.2127,0.3310,0.3044,2.4555,1.4126,0.9380,-1.0844,0.4202,
9.643605,-0.1705,1.2127,0.3310,0.3044,2.4555,1.4126,0.3936,-1.0530,0.5438,
9.657787,-0.1705,1.2127,0.3310,0.3044,2.4555,1.4126,0.2850,-1.1212,0.5736,
9.676937,0.0760,0.9665,0.4165,0.3044,2.4555,1.4126,0.2850,-1.1212,0.5736,
9.679920,0.0760,0.9665,0.4165,2.4307,-0.0232,2.2993,0.2850,-1.1212,0.5736,
9.682469,0.0760,0.9665,0.4165,2.4307,-0.0232,2.2993,0.4586,-0.9124,0.5001,
9.699886,0.0760,0.9665,0.4165,2.4307,-0.0232,2.2993,0.7068,-0.5321,0.4186,
9.717337,0.1222,0.8626,0.2597,2.4307,-0.0232,2.2993,0.7068,-0.5321,0.4186,
9.719581,0.1222,0.8626,0.2597,2.6353,-1.1085,0.9137,0.7068,-0.5321,0.4186,
9.721181,0.1222,0.8626,0.2597,2.6353,-1.1085,0.9137,0.8591,-0.1507,0.3329,
9.737685,0.1222,0.8626,0.2597,2.6353,-1.1085,0.9137,0.8314,0.1917,0.1806,
9.757203,0.0090,1.0278,0.1119,2.6353,-1.1085,0.9137,0.8314,0.1917,0.1806,
9.760263,0.0090,1.0278,0.1119,1.3994,0.4446,-0.2295,0.8314,0.1917,0.1806,
9.762005,0.0090,1.0278,0.1119,1.3994,0.4446,-0.2295,0.7286,0.4410,0.1491,
9.776780,0.0090,1.0278,0.1119,1.3994,0.4446,-0.2295,0.6466,0.6354,0.2370,
9.797471,-0.0518,1.0747,0.0369,1.3994,0.4446,-0.2295,0.6466,0.6354,0.2370,
9.800429,-0.0518,1.0747,0.0369,0.7343,0.8601,-0.6776,0.6466,0.6354,0.2370,
9.802285,-0.0518,1.0747,0.0369,0.7343,0.8601,-0.6776,0.8165,1.2437,0.2354,
9.817102,-0.0518,1.0747,0.0369,0.7343,0.8601,-0.6776,1.3199,2.1673,-0.0059,
9.836821,-0.2841,0.8939,-0.0159,0.7343,0.8601,-0.6776,1.3199,2.1673,-0.0059,
9.838931,-0.2841,0.8939,-0.0159,-1.5305,-0.9504,-0.7017,1.3199,2.1673,-0.0059,
9.840836,-0.2841,0.8939,-0.0159,-1.5305,-0.9504,-0.7017,1.6661,2.3154,-0.1571,
9.856823,-0.2841,0.8939,-0.0159,-1.5305,-0.9504,-0.7017,1.5883,1.4248,0.1449,
9.877069,-0.2020,0.8126,0.0010,-1.5305,-0.9504,-0.7017,1.5883,1.4248,0.1449,
9.880023,-0.2020,0.8126,0.0010,-0.7030,-1.7585,0.1852,1.5883,1.4248,0.1449,
9.881893,-0.2020,0.8126,0.0010,-0.7030,-1.7585,0.1852,1.5334,0.6573,0.4666,
9.898262,-0.2020,0.8126,0.0010,-0.7030,-1.7585,0.1852,1.5228,0.3467,0.8527,
9.917070,-0.2006,0.7803,-0.0364,-0.7030,-1.7585,0.1852,1.5228,0.3467,0.8527,
9.919243,-0.2006,0.7803,-0.0364,-0.9536,-2.0749,0.4361,1.5228,0.3467,0.8527,
9.920991,-0.2006,0.7803,-0.0364,-0.9536,-2.0749,0.4361,1.4679,0.4005,1.1425,
9.936929,-0.2006,0.7803,-0.0364,-0.9536,-2.0749,0.4361,1.2730,0.4991,1.3055,
9.956320,-0.1295,0.6469,-0.1928,-0.9536,-2.0749,0.4361,1.2730,0.4991,1.3055,
9.959405,-0.1295,0.6469,-0.1928,-0.7514,-3.3613,-0.5507,1.2730,0.4991,1.3055,
9.961100,-0.1295,0.6469,-0.1928,-0.7514,-3.3613,-0.5507,0.8751,0.4927,1.4051,
9.977113,-0.1295,0.6469,-0.1928,-0.7514,-3.3613,-0.5507,0.4772,0.5880,1.4903,
9.996881,0.0858,0.5038,-0.4989,-0.7514,-3.3613,-0.5507,0.4772,0.5880,1.4903,
10.000001,0.0858,0.5038,-0.4989,0.7654,-4.7373,-3.2842,0.4772,0.5880,1.4903,
10.001461,0.0858,0.5038,-0.4989,0.7654,-4.7373,-3.2842,-0.0133,0.4698,1.5622,
10.016472,0.0858,0.5038,-0.4989,0.7654,-4.7373,-3.2842,-0.4788,0.3105,1.5260,
10.037125,0.3161,0.5951,-0.3657,0.7654,-4.7373,-3.2842,-0.4788,0.3105,1.5260,
10.040223,0.3161,0.5951,-0.3657,2.4021,-3.8333,-2.0799,-0.4788,0.3105,1.5260,
10.042271,0.3161,0.5951,-0.3657,2.4021,-3.8333,-2.0799,-0.7659,0.0575,1.3103,
10.056784,0.3161,0.5951,-0.3657,2.4021,-3.8333,-2.0799,-0.7675,-0.2141,1.0440,
10.076474,0.4192,0.7854,-0.1261,2.4021,-3.8333,-2.0799,-0.7675,-0.2141,1.0440,
10.079293,0.4192,0.7854,-0.1261,2.9617,-1.9663,-0.0237,-0.7675,-0.2141,1.0440,
10.081102,0.4192,0.7854,-0.1261,2.9617,-1.9663,-0.0237,-0.5715,-0.2104,0.7515,
10.096993,0.4192,0.7854,-0.1261,2.9617,-1.9663,-0.0237,-0.2477,0.1060,0.3052,
10.116686,0.2467,1.1358,-0.2719,2.9617,-1.9663,-0.0237,-0.2477,0.1060,0.3052,
10.119060,0.2467,1.1358,-0.2719,1.0465,1.4813,-1.5788,-0.2477,0.1060,0.3052,
10.120728,0.2467,1.1358,-0.2719,1.0465,1.4813,-1.5788,0.1236,0.3217,-0.0256,
10.136100,0.2467,1.1358,-0.2719,1.0465,1.4813,-1.5788,0.4213,0.3819,-0.2434,
10.156332,0.0054,1.3847,-0.5880,1.0465,1.4813,-1.5788,0.4213,0.3819,-0.2434,
10.159270,0.0054,1.3847,-0.5880,-1.2828,3.9260,-4.5911,0.4213,0.3819,-0.2434,
10.161338,0.0054,1.3847,-0.5880,-1.2828,3.9260,-4.5911,0.3132,-0.2194,-0.4192,
10.176345,0.0054,1.3847,-0.5880,-1.2828,3.9260,-4.5911,-0.1033,-0.8740,-0.2887,
10.195987,0.1266,1.3166,-0.2841,-1.2828,3.9260,-4.5911,-0.1033,-0.8740,-0.2887,
10.198398,0.1266,1.3166,-0.2841,0.0680,3.2452,-1.5454,-0.1033,-0.8740,-0.2887,
10.200004,0.1266,1.3166,-0.2841,0.0680,3.2452,-1.5454,-0.3941,-1.1041,-0.1523,
10.215625,0.1266,1.3166,-0.2841,0.0680,3.2452,-1.5454,-0.8309,-1.4935,0.2296,
10.235977,0.4222,1.0178,-0.2077,0.0680,3.2452,-1.5454,-0.8309,-1.4935,0.2296,
10.238648,0.4222,1.0178,-0.2077,3.0103,0.2905,-0.9741,-0.8309,-1.4935,0.2296,
10.240225,0.4222,1.0178,-0.2077,3.0103,0.2905,-0.9741,-1.5127,-1.7918,0.3132,
10.256334,0.4222,1.0178,-0.2077,3.0103,0.2905,-0.9741,-1.5697,-0.8442,0.0138,
10.276190,0.3643,1.1201,-0.0687,3.0103,0.2905,-0.9741,-1.5697,-0.8442,0.0138,
10.279064,0.3643,1.1201,-0.0687,2.4243,1.2520,-0.1491,-1.5697,-0.8442,0.0138,
10.280687,0.3643,1.1201,-0.0687,2.4243,1.2520,-0.1491,-1.7806,-1.0498,-0.4517,
10.296360,0.3643,1.1201,-0.0687,2.4243,1.2520,-0.1491,-2.0629,-1.5457,-0.7574,
10.315768,0.2685,0.9320,0.0616,2.4243,1.2520,-0.1491,-2.0629,-1.5457,-0.7574,
10.317426,0.2685,0.9320,0.0616,1.7155,-0.6285,0.4392,-2.0629,-1.5457,-0.7574,
10.318839,0.2685,0.9320,0.0616,1.7155,-0.6285,0.4392,-2.2994,-1.8994,-1.0887,
10.336254,0.2685,0.9320,0.0616,1.7155,-0.6285,0.4392,-2.6988,-2.2648,-1.2874,
10.356452,0.0994,0.9154,0.3494,1.7155,-0.6285,0.4392,-2.6988,-2.2648,-1.2874,
10.358547,0.0994,0.9154,0.3494,0.4163,-0.7604,2.3477,-2.6988,-2.2648,-1.2874,
10.360278,0.0994,0.9154,0.3494,0.4163,-0.7604,2.3477,-2.8922,-2.0107,-1.2687,
10.376288,0.0994,0.9154,0.3494,0.4163,-0.7604,2.3477,-2.5998,-1.1137,-1.2975,
10.396959,-0.0198,1.0034,0.8517,0.4163,-0.7604,2.3477,-2.5998,-1.1137,-1.2975,
10.399547,-0.0198,1.0034,0.8517,-0.3574,0.2603,6.2232,-2.5998,-1.1137,-1.2975,
10.401346,-0.0198,1.0034,0.8517,-0.3574,0.2603,6.2232,-1.8733,-0.2194,-1.4626,
10.416320,-0.0198,1.0034,0.8517,-0.3574,0.2603,6.2232,-0.7031,0.3398,-1.4525,
10.435833,-0.0303,0.8729,0.5961,-0.3574,0.2603,6.2232,-0.7031,0.3398,-1.4525,
10.439261,-0.0303,0.8729,0.5961,0.0882,-0.8826,3.2031,-0.7031,0.3398,-1.4525,
10.441383,-0.0303,0.8729,0.5961,0.0882,-0.8826,3.2031,0.1896,0.3755,-1.6075,
10.456202,-0.0303,0.8729,0.5961,0.0882,-0.8826,3.2031,0.4437,0.1278,-2.0725,
10.475973,-0.2081,0.6990,0.1544,0.0882,-0.8826,3.2031,0.4437,0.1278,-2.0725,
10.478245,-0.2081,0.6990,0.1544,-0.9373,-2.5638,-1.0047,0.4437,0.1278,-2.0725,
10.480132,-0.2081,0.6990,0.1544,-0.9373,-2.5638,-1.0047,0.3079,-0.1523,-2.5407,
10.499166,-0.2081,0.6990,0.1544,-0.9373,-2.5638,-1.0047,0.1901,-0.0794,-2.2994,
10.516002,-0.7720,0.7197,-0.0674,-0.9373,-2.5638,-1.0047,0.1901,-0.0794,-2.2994,
10.519523,-0.7720,0.7197,-0.0674,-5.5706,-2.2352,-3.0924,0.1901,-0.0794,-2.2994,
10.521638,-0.7720,0.7197,-0.0674,-5.5706,-2.2352,-3.0924,-0.1427,0.4522,-1.6709,
10.536014,-0.7720,0.7197,-0.0674,-5.5706,-2.2352,-3.0924,-0.6738,1.6128,-0.5433,
10.556033,-0.5182,0.4742,-0.0049,-5.5706,-2.2352,-3.0924,-0.6738,1.6128,-0.5433,
10.558134,-0.5182,0.4742,-0.0049,-2.5734,-4.5030,-2.5321,-0.6738,1.6128,-0.5433,
10.559157,-0.5182,0.4742,-0.0049,-2.5734,-4.5030,-2.5321,-1.1175,2.1034,0.2557,
10.575561,-0.5182,0.4742,-0.0049,-2.5734,-4.5030,-2.5321,-1.1579,1.1356,0.1779,
10.596309,-0.2746,0.6318,0.1661,-2.5734,-4.5030,-2.5321,-1.1579,1.1356,0.1779,
10.598958,-0.2746,0.6318,0.1661,-0.0985,-2.8629,-1.1049,-1.1579,1.1356,0.1779,
10.600840,-0.2746,0.6318,0.1661,-0.0985,-2.8629,-1.1049,-0.8208,0.2727,0.0154,
10.615967,-0.2746,0.6318,0.1661,-0.0985,-2.8629,-1.1049,-0.3095,-0.2807,0.0543,
10.636095,-0.2233,0.8314,0.2736,-0.0985,-2.8629,-1.1049,-0.3095,-0.2807,0.0543,
10.638575,-0.2233,0.8314,0.2736,0.3907,-0.8466,-0.2556,-0.3095,-0.2807,0.0543,
10.640371,-0.2233,0.8314,0.2736,0.3907,-0.8466,-0.2556,0.1124,-0.8336,0.1704,
10.655805,-0.2233,0.8314,0.2736,0.3907,-0.8466,-0.2556,0.3265,-1.1111,0.2232,
10.675762,-0.2152,0.9384,0.2028,0.3907,-0.8466,-0.2556,0.3265,-1.1111,0.2232,
10.678284,-0.2152,0.9384,0.2028,0.2840,0.1566,-0.9674,0.3265,-1.1111,0.2232,
10.679945,-0.2152,0.9384,0.2028,0.2840,0.1566,-0.9674,0.1752,-0.5049,0.1981,
10.698312,-0.2152,0.9384,0.2028,0.2840,0.1566,-0.9674,-0.2700,0.4661,0.1880,
10.716015,-0.3481,1.0405,0.2746,0.2840,0.1566,-0.9674,-0.2700,0.4661,0.1880,
10.718286,-0.3481,1.0405,0.2746,-1.0667,1.1433,-0.2590,-0.2700,0.4661,0.1880,
10.720029,-0.3481,1.0405,0.2746,-1.0667,1.1433,-0.2590,-0.5598,0.7883,0.2850,
10.735366,-0.3481,1.0405,0.2746,-1.0667,1.1433,-0.2590,-0.3308,0.7452,0.3915,
10.755291,-0.3770,1.2081,0.2871,-1.0667,1.1433,-0.2590,-0.3308,0.7452,0.3915,
10.758558,-0.3770,1.2081,0.2871,-1.3794,2.8075,-0.2261,-0.3308,0.7452,0.3915,
10.760344,-0.3770,1.2081,0.2871,-1.3794,2.8075,-0.2261,0.1854,0.5902,0.4581,
10.775452,-0.3770,1.2081,0.2871,-1.3794,2.8075,-0.2261,0.7771,0.2828,0.5055,
10.795018,-0.4507,1.3359,0.2372,-1.3794,2.8075,-0.2261,0.7771,0.2828,0.5055,
10.797427,-0.4507,1.3359,0.2372,-2.2251,3.9601,-0.5004,0.7771,0.2828,0.5055,
10.799272,-0.4507,1.3359,0.2372,-2.2251,3.9601,-0.5004,1.2101,-0.1220,0.4927,
10.815767,-0.4507,1.3359,0.2372,-2.2251,3.9601,-0.5004,1.2655,-0.5273,0.4884,
10.834885,-0.4933,1.2765,0.1910,-2.2251,3.9601,-0.5004,1.2655,-0.5273,0.4884,
10.836873,-0.4933,1.2765,0.1910,-2.8552,3.2084,-0.5237,1.2655,-0.5273,0.4884,
10.838013,-0.4933,1.2765,0.1910,-2.8552,3.2084,-0.5237,0.7537,-0.5209,0.3989,
10.855326,-0.4933,1.2765,0.1910,-2.8552,3.2084,-0.5237,0.2509,-0.5369,0.5140,
10.875725,-0.2067,1.1805,0.4351,-2.8552,3.2084,-0.5237,0.2509,-0.5369,0.5140,
10.879285,-0.2067,1.1805,0.4351,-0.2660,2.1868,2.0160,0.2509,-0.5369,0.5140,
10.881583,-0.2067,1.1805,0.4351,-0.2660,2.1868,2.0160,0.1656,-0.8080,0.5412,
10.899295,-0.2067,1.1805,0.4351,-0.2660,2.1868,2.0160,0.3190,-0.8378,0.4964,
10.915258,0.0012,0.9056,0.4407,-0.2660,2.1868,2.0160,0.3190,-0.8378,0.4964,
10.917561,0.0012,0.9056,0.4407,1.5029,-0.5620,2.1088,0.3190,-0.8378,0.4964,
10.919323,0.0012,0.9056,0.4407,1.5029,-0.5620,2.1088,0.4906,-0.6631,0.4325,
10.935675,0.0012,0.9056,0.4407,1.5029,-0.5620,2.1088,0.5689,-0.4325,0.4282,
10.955254,0.0782,0.9183,0.3867,1.5029,-0.5620,2.1088,0.5689,-0.4325,0.4282,
10.957302,0.0782,0.9183,0.3867,2.0420,-0.5042,1.7365,0.5689,-0.4325,0.4282,
10.959019,0.0782,0.9183,0.3867,2.0420,-0.5042,1.7365,0.5965,-0.2003,0.4559,
10.976015,0.0782,0.9183,0.3867,2.0420,-0.5042,1.7365,0.6344,-0.0613,0.4400,
10.996388,0.1251,1.0696,0.2380,2.0420,-0.5042,1.7365,0.6344,-0.0613,0.4400,
10.998633,0.1251,1.0696,0.2380,2.3115,0.9095,0.4982,0.6344,-0.0613,0.4400,
11.000209,0.1251,1.0696,0.2380,2.3115,0.9095,0.4982,0.7127,0.0602,0.3643,
11.016289,0.1251,1.0696,0.2380,2.3115,0.9095,0.4982,0.8330,0.2748,0.3164,
11.035883,-0.0105,1.1368,0.0628,2.3115,0.9095,0.4982,0.8330,0.2748,0.3164,
11.039509,-0.0105,1.1368,0.0628,0.8620,1.5020,-0.9155,0.8330,0.2748,0.3164,
11.041591,-0.0105,1.1368,0.0628,0.8620,1.5020,-0.9155,1.2075,1.1563,0.2312,
11.054942,-0.0105,1.1368,0.0628,0.8620,1.5020,-0.9155,1.8568,2.3185,-0.1033,
11.075546,-0.3171,0.9482,-0.0318,0.8620,1.5020,-0.9155,1.8568,2.3185,-0.1033,
11.078662,-0.3171,0.9482,-0.0318,-2.0796,-0.4216,-1.1842,1.8568,2.3185,-0.1033,
11.080502,-0.3171,0.9482,-0.0318,-2.0796,-0.4216,-1.1842,2.2781,2.5241,-0.4282,
11.099426,-0.3171,0.9482,-0.0318,-2.0796,-0.4216,-1.1842,2.1588,1.6400,-0.2716,
11.115297,-0.2768,0.7510,-0.0369,-2.0796,-0.4216,-1.1842,2.1588,1.6400,-0.2716,
11.117860,-0.2768,0.7510,-0.0369,-1.5028,-2.3717,-0.2853,2.1588,1.6400,-0.2716,
11.119727,-0.2768,0.7510,-0.0369,-1.5028,-2.3717,-0.2853,1.9074,0.6546,0.1955,
11.135937,-0.2768,0.7510,-0.0369,-1.5028,-2.3717,-0.2853,1.7422,0.1870,0.7324,
11.155122,-0.2116,0.7608,-0.0567,-1.5028,-2.3717,-0.2853,1.7422,0.1870,0.7324,
11.158346,-0.2116,0.7608,-0.0567,-1.0497,-2.2643,0.2493,1.7422,0.1870,0.7324,
11.160301,-0.2116,0.7608,-0.0567,-1.0497,-2.2643,0.2493,1.6879,0.3601,1.1121,
11.175403,-0.2116,0.7608,-0.0567,-1.0497,-2.2643,0.2493,1.5846,0.6663,1.3108,
11.195841,-0.1317,0.6738,-0.2018,-1.0497,-2.2643,0.2493,1.5846,0.6663,1.3108,
11.199784,-0.1317,0.6738,-0.2018,-0.7607,-3.0805,-0.5231,1.5846,0.6663,1.3108,
11.202659,-0.1317,0.6738,-0.2018,-0.7607,-3.0805,-0.5231,1.2485,0.7526,1.4754,
11.216502,-0.1317,0.6738,-0.2018,-0.7607,-3.0805,-0.5231,0.7931,0.6605,1.4797,
11.235340,0.0347,0.5192,-0.3916,-0.7607,-3.0805,-0.5231,0.7931,0.6605,1.4797,
11.237806,0.0347,0.5192,-0.3916,0.2527,-4.5416,-1.9830,0.7931,0.6605,1.4797,
11.239651,0.0347,0.5192,-0.3916,0.2527,-4.5416,-1.9830,0.3862,0.7436,1.4152,
11.254771,0.0347,0.5192,-0.3916,0.2527,-4.5416,-1.9830,-0.0415,0.8192,1.3406,
11.275124,0.1969,0.5790,-0.4398,0.2527,-4.5416,-1.9830,-0.0415,0.8192,1.3406,
11.278051,0.1969,0.5790,-0.4398,1.2544,-3.9211,-2.4007,-0.0415,0.8192,1.3406,
11.279706,0.1969,0.5790,-0.4398,1.2544,-3.9211,-2.4007,-0.3382,0.5955,1.2389,
11.295344,0.1969,0.5790,-0.4398,1.2544,-3.9211,-2.4007,-0.4724,0.1593,1.0956,
11.314870,0.2724,0.7131,-0.1998,1.2544,-3.9211,-2.4007,-0.4724,0.1593,1.0956,
11.317096,0.2724,0.7131,-0.1998,1.5192,-2.5934,-0.2177,-0.4724,0.1593,1.0956,
11.319000,0.2724,0.7131,-0.1998,1.5192,-2.5934,-0.2177,-0.4996,-0.2381,0.8799,
11.335632,0.2724,0.7131,-0.1998,1.5192,-2.5934,-0.2177,-0.4650,-0.2775,0.6152,
11.355680,0.3775,0.8043,-0.2084,1.5192,-2.5934,-0.2177,-0.4650,-0.2775,0.6152,
11.358157,0.3775,0.8043,-0.2084,2.2794,-1.6939,-0.4728,-0.4650,-0.2775,0.6152,
11.359927,0.3775,0.8043,-0.2084,2.2794,-1.6939,-0.4728,-0.3372,0.0831,0.3297,
11.375141,0.3775,0.8043,-0.2084,2.2794,-1.6939,-0.4728,-0.1454,0.3281,-0.0506,
11.395452,0.1444,1.0471,-0.4913,2.2794,-1.6939,-0.4728,-0.1454,0.3281,-0.0506,
11.397589,0.1444,1.0471,-0.4913,-0.0828,0.6882,-3.3053,-0.1454,0.3281,-0.0506,
11.399383,0.1444,1.0471,-0.4913,-0.0828,0.6882,-3.3053,0.0554,0.3531,-0.3143,
11.417517,0.1444,1.0471,-0.4913,-0.0828,0.6882,-3.3053,0.2194,0.3744,-0.5486,
11.434462,-0.0511,1.5855,-0.5326,-0.0828,0.6882,-3.3053,0.2194,0.3744,-0.5486,
11.437438,-0.0511,1.5855,-0.5326,-1.8552,5.9488,-3.6782,0.2194,0.3744,-0.5486,
11.439373,-0.0511,1.5855,-0.5326,-1.8552,5.9488,-3.6782,0.1332,-0.2972,-0.3526,
11.454512,-0.0511,1.5855,-0.5326,-1.8552,5.9488,-3.6782,0.0330,-0.5593,-0.2290,
11.474847,0.0916,1.2853,-0.2678,-1.8552,5.9488,-3.6782,0.0330,-0.5593,-0.2290,
11.478383,0.0916,1.2853,-0.2678,-0.3185,2.9965,-1.0293,0.0330,-0.5593,-0.2290,
11.480139,0.0916,1.2853,-0.2678,-0.3185,2.9965,-1.0293,-0.1758,-0.7574,-0.1923,
11.495210,0.0916,1.2853,-0.2678,-0.3185,2.9965,-1.0293,-1.0232,-1.9691,0.0144,
11.515033,0.3073,1.0232,-0.2196,-0.3185,2.9965,-1.0293,-1.0232,-1.9691,0.0144,
11.517518,0.3073,1.0232,-0.2196,1.9128,0.3871,-0.7257,-1.0232,-1.9691,0.0144,
11.519204,0.3073,1.0232,-0.2196,1.9128,0.3871,-0.7257,-1.5271,-1.5872,0.2487,
11.535575,0.3073,1.0232,-0.2196,1.9128,0.3871,-0.7257,-1.4674,-0.2216,-0.0698,
11.554364,0.3088,1.1802,-0.0677,1.9128,0.3871,-0.7257,-1.4674,-0.2216,-0.0698,
11.557053,0.3088,1.1802,-0.0677,1.9383,1.8608,0.2248,-1.4674,-0.2216,-0.0698,
11.558705,0.3088,1.1802,-0.0677,1.9383,1.8608,0.2248,-1.7145,-0.5715,-0.4400,
11.574648,0.3088,1.1802,-0.0677,1.9383,1.8608,0.2248,-1.9569,-1.1990,-0.5822,
11.594254,0.2529,1.0031,0.0577,1.9383,1.8608,0.2248,-1.9569,-1.1990,-0.5822,
11.597532,0.2529,1.0031,0.0577,1.6066,0.0649,0.7726,-1.9569,-1.1990,-0.5822,
11.599425,0.2529,1.0031,0.0577,1.6066,0.0649,0.7726,-2.1779,-1.5137,-0.7942,
11.614662,0.2529,1.0031,0.0577,1.6066,0.0649,0.7726,-2.5018,-1.5798,-1.1175,
11.635503,0.1459,0.9193,0.1759,1.6066,0.0649,0.7726,-2.5018,-1.5798,-1.1175,
11.639891,0.1459,0.9193,0.1759,0.8819,-0.7603,1.0720,-2.5018,-1.5798,-1.1175,
11.642232,0.1459,0.9193,0.1759,0.8819,-0.7603,1.0720,-2.8943,-1.2378,-1.3369,
11.654530,0.1459,0.9193,0.1759,0.8819,-0.7603,1.0720,-2.8933,-0.7233,-1.4807,
11.674491,-0.0765,0.9833,0.7842,0.8819,-0.7603,1.0720,-2.8933,-0.7233,-1.4807,
11.678242,-0.0765,0.9833,0.7842,-0.8046,-0.0063,5.9020,-2.8933,-0.7233,-1.4807,
11.680658,-0.0765,0.9833,0.7842,-0.8046,-0.0063,5.9020,-2.3010,-0.1065,-1.5574,
11.695449,-0.0765,0.9833,0.7842,-0.8046,-0.0063,5.9020,-1.1968,0.3617,-1.5420,
11.714936,-0.0679,0.9587,0.7090,-0.8046,-0.0063,5.9020,-1.1968,0.3617,-1.5420,
11.717390,-0.0679,0.9587,0.7090,-0.1167,-0.0852,4.4990,-1.1968,0.3617,-1.5420,
11.719105,-0.0679,0.9587,0.7090,-0.1167,-0.0852,4.4990,-0.0671,0.5087,-1.6320,
11.734462,-0.0679,0.9587,0.7090,-0.1167,-0.0852,4.4990,0.4938,0.3712,-2.0112,
11.753911,-0.3022,0.8143,0.2160,-0.1167,-0.0852,4.4990,0.4938,0.3712,-2.0112,
11.756574,-0.3022,0.8143,0.2160,-1.6852,-1.4408,-0.2903,0.4938,0.3712,-2.0112,
11.758388,-0.3022,0.8143,0.2160,-1.6852,-1.4408,-0.2903,0.5428,0.0879,-2.2637,
11.774485,-0.3022,0.8143,0.2160,-1.6852,-1.4408,-0.2903,0.4208,0.0900,-2.0341,
11.793986,-0.6352,0.7126,-0.1488,-1.6852,-1.4408,-0.2903,0.4208,0.0900,-2.0341,
11.796461,-0.6352,0.7126,-0.1488,-4.1317,-2.3362,-3.6772,0.4208,0.0900,-2.0341,
11.798476,-0.6352,0.7126,-0.1488,-4.1317,-2.3362,-3.6772,-0.0644,0.4139,-1.5249,
11.814016,-0.6352,0.7126,-0.1488,-4.1317,-2.3362,-3.6772,-0.6993,0.9481,-0.6519,
11.834402,-0.5385,0.4603,-0.0963,-4.1317,-2.3362,-3.6772,-0.6993,0.9481,-0.6519,
11.837640,-0.5385,0.4603,-0.0963,-2.7199,-4.6745,-3.2377,-0.6993,0.9481,-0.6519,
11.839965,-0.5385,0.4603,-0.0963,-2.7199,-4.6745,-3.2377,-1.1031,1.5745,0.2519,
11.854154,-0.5385,0.4603,-0.0963,-2.7199,-4.6745,-3.2377,-1.2160,1.3577,0.3137,
11.874536,-0.2856,0.5494,0.0845,-2.7199,-4.6745,-3.2377,-1.2160,1.3577,0.3137,
11.876962,-0.2856,0.5494,0.0845,-0.2036,-3.7174,-1.7385,-1.2160,1.3577,0.3137,
11.878994,-0.2856,0.5494,0.0845,-0.2036,-3.7174,-1.7385,-1.0061,0.8575,0.0889,
11.894538,-0.2856,0.5494,0.0845,-0.2036,-3.7174,-1.7385,-0.5300,0.3782,-0.0186,
11.914367,-0.2724,0.7779,0.2101,-0.2036,-3.7174,-1.7385,-0.5300,0.3782,-0.0186,
11.916880,-0.2724,0.7779,0.2101,-0.0212,-1.4005,-0.7214,-0.5300,0.3782,-0.0186,
11.918931,-0.2724,0.7779,0.2101,-0.0212,-1.4005,-0.7214,-0.0842,-0.2834,0.0889,
11.934768,-0.2724,0.7779,0.2101,-0.0212,-1.4005,-0.7214,0.1683,-0.8746,0.1742,
11.954112,-0.2856,0.8841,0.1967,-0.0212,-1.4005,-0.7214,0.1683,-0.8746,0.1742,
11.957168,-0.2856,0.8841,0.1967,-0.2630,-0.3775,-0.8977,0.1683,-0.8746,0.1742,
11.959745,-0.2856,0.8841,0.1967,-0.2630,-0.3775,-0.8977,0.1310,-0.7851,0.2024,
11.974378,-0.2856,0.8841,0.1967,-0.2630,-0.3775,-0.8977,-0.1513,-0.0107,0.2418,
11.993915,-0.3276,1.0425,0.3015,-0.2630,-0.3775,-0.8977,-0.1513,-0.0107,0.2418,
11.996281,-0.3276,1.0425,0.3015,-0.7784,1.1538,0.1031,-0.1513,-0.0107,0.2418,
11.998032,-0.3276,1.0425,0.3015,-0.7784,1.1538,0.1031,-0.4192,0.6317,0.2951,
12.015955,-0.3276,1.0425,0.3015,-0.7784,1.1538,0.1031,-0.3041,0.6866,0.3680,
12.034095,-0.3904,1.2357,0.2897,-0.7784,1.1538,0.1031,-0.3041,0.6866,0.3680,
12.036615,-0.3904,1.2357,0.2897,-1.4375,3.0574,-0.0791,-0.3041,0.6866,0.3680,
12.038583,-0.3904,1.2357,0.2897,-1.4375,3.0574,-0.0791,0.1294,0.6946,0.4437,
12.053846,-0.3904,1.2357,0.2897,-1.4375,3.0574,-0.0791,0.6573,0.7420,0.5262,
12.073803,-0.4683,1.3850,0.1556,-1.4375,3.0574,-0.0791,0.6573,0.7420,0.5262,
12.076386,-0.4683,1.3850,0.1556,-2.2960,4.4308,-1.1831,0.6573,0.7420,0.5262,
12.078069,-0.4683,1.3850,0.1556,-2.2960,4.4308,-1.1831,1.0898,0.6594,0.5923,
12.094013,-0.4683,1.3850,0.1556,-2.2960,4.4308,-1.1831,1.2581,0.2583,0.5364,
12.113413,-0.4857,1.3899,0.2147,-2.2960,4.4308,-1.1831,1.2581,0.2583,0.5364,
12.115998,-0.4857,1.3899,0.2147,-2.6276,4.3130,-0.1301,1.2581,0.2583,0.5364,
12.117105,-0.4857,1.3899,0.2147,-2.6276,4.3130,-0.1301,1.3103,-0.3883,0.4511,
12.133771,-0.4857,1.3899,0.2147,-2.6276,4.3130,-0.1301,1.1382,-0.9577,0.3499,
12.153752,-0.2453,1.0454,0.2531,-2.6276,4.3130,-0.1301,1.1382,-0.9577,0.3499,
12.155945,-0.2453,1.0454,0.2531,-0.4748,0.8055,0.6503,1.1382,-0.9577,0.3499,
12.157696,-0.2453,1.0454,0.2531,-0.4748,0.8055,0.6503,0.8890,-1.1824,0.3467,
12.174075,-0.2453,1.0454,0.2531,-0.4748,0.8055,0.6503,0.6653,-1.2464,0.3127,
12.194098,-0.0599,0.8922,0.3298,-0.4748,0.8055,0.6503,0.6653,-1.2464,0.3127,
12.197178,-0.0599,0.8922,0.3298,1.1343,-0.7733,1.6080,0.6653,-1.2464,0.3127,
12.199253,-0.0599,0.8922,0.3298,1.1343,-0.7733,1.6080,0.5364,-1.1585,0.3164,
12.215880,-0.0599,0.8922,0.3298,1.1343,-0.7733,1.6080,0.4362,-0.8059,0.3308,
12.234472,0.0310,0.9782,0.3137,1.1343,-0.7733,1.6080,0.4362,-0.8059,0.3308,
12.236589,0.0310,0.9782,0.3137,1.8342,0.0196,1.5559,0.4362,-0.8059,0.3308,
12.238321,0.0310,0.9782,0.3137,1.8342,0.0196,1.5559,0.3483,-0.2961,0.2924,
12.253320,0.0310,0.9782,0.3137,1.8342,0.0196,1.5559,0.2887,0.1678,0.2328,
12.273686,-0.0056,1.0212,0.2367,1.8342,0.0196,1.5559,0.2887,0.1678,0.2328,
12.275899,-0.0056,1.0212,0.2367,1.3572,0.4076,0.9010,0.2887,0.1678,0.2328,
12.277675,-0.0056,1.0212,0.2367,1.3572,0.4076,0.9010,0.2940,0.4155,0.2642,
12.293266,-0.0056,1.0212,0.2367,1.3572,0.4076,0.9010,0.3707,0.4581,0.3174,
12.313409,0.0127,0.9833,0.1419,1.3572,0.4076,0.9010,0.3707,0.4581,0.3174,
12.315365,0.0127,0.9833,0.1419,1.4197,0.0019,0.1010,0.3707,0.4581,0.3174,
12.316911,0.0127,0.9833,0.1419,1.4197,0.0019,0.1010,0.4927,0.4032,0.3361,
12.333735,0.0127,0.9833,0.1419,1.4197,0.0019,0.1010,0.6434,0.3670,0.2658,
12.353676,-0.1820,1.0899,0.0994,1.4197,0.0019,0.1010,0.6434,0.3670,0.2658,
12.355752,-0.1820,1.0899,0.0994,-0.5913,1.0045,-0.0853,0.6434,0.3670,0.2658,
12.357700,-0.1820,1.0899,0.0994,-0.5913,1.0045,-0.0853,1.0994,0.9417,0.1220,
12.373709,-0.1820,1.0899,0.0994,-0.5913,1.0045,-0.0853,1.9201,2.1881,-0.0698,
12.393907,-0.3191,0.8604,-0.0254,-0.5913,1.0045,-0.0853,1.9201,2.1881,-0.0698,
12.396272,-0.3191,0.8604,-0.0254,-1.8763,-1.2854,-0.6632,1.9201,2.1881,-0.0698,
12.398394,-0.3191,0.8604,-0.0254,-1.8763,-1.2854,-0.6632,2.0826,1.9473,-0.0064,
12.413864,-0.3191,0.8604,-0.0254,-1.8763,-1.2854,-0.6632,1.8631,1.0248,0.2807,
12.433909,-0.2433,0.7605,-0.0039,-1.8763,-1.2854,-0.6632,1.8631,1.0248,0.2807,
12.436362,-0.2433,0.7605,-0.0039,-1.1836,-2.2704,0.3873,1.8631,1.0248,0.2807,
12.438297,-0.2433,0.7605,-0.0039,-1.1836,-2.2704,0.3873,1.6671,0.4698,0.6679,
12.453319,-0.2433,0.7605,-0.0039,-1.1836,-2.2704,0.3873,1.5633,0.4240,1.0429,
12.473933,-0.2492,0.7151,-0.0508,-1.1836,-2.2704,0.3873,1.5633,0.4240,1.0429,
12.476291,-0.2492,0.7151,-0.0508,-1.5865,-2.7025,0.5734,1.5633,0.4240,1.0429,
12.478250,-0.2492,0.7151,-0.0508,-1.5865,-2.7025,0.5734,1.4552,0.5593,1.2133,
12.493719,-0.2492,0.7151,-0.0508,-1.5865,-2.7025,0.5734,1.0610,0.5396,1.2975,
12.514103,-0.1268,0.5590,-0.1813,-1.5865,-2.7025,0.5734,1.0610,0.5396,1.2975,
12.516481,-0.1268,0.5590,-0.1813,-0.9025,-4.1960,-0.2047,1.0610,0.5396,1.2975,
12.518468,-0.1268,0.5590,-0.1813,-0.9025,-4.1960,-0.2047,0.6669,0.8682,1.3268,
12.533131,-0.1268,0.5590,-0.1813,-0.9025,-4.1960,-0.2047,0.3760,1.3603,1.4211,
12.553557,0.1559,0.5077,-0.5174,-0.9025,-4.1960,-0.2047,0.3760,1.3603,1.4211,
12.556437,0.1559,0.5077,-0.5174,1.2619,-4.6661,-3.2974,0.3760,1.3603,1.4211,
12.558163,0.1559,0.5077,-0.5174,1.2619,-4.6661,-3.2974,-0.0266,1.3785,1.4434,
12.572802,0.1559,0.5077,-0.5174,1.2619,-4.6661,-3.2974,-0.4410,0.9364,1.3263,
12.593520,0.3337,0.6982,-0.4058,1.2619,-4.6661,-3.2974,-0.4410,0.9364,1.3263,
12.595844,0.3337,0.6982,-0.4058,2.3916,-2.7828,-2.3188,-0.4410,0.9364,1.3263,
12.597726,0.3337,0.6982,-0.4058,2.3916,-2.7828,-2.3188,-0.6312,0.2306,1.1377,
12.613609,0.3337,0.6982,-0.4058,2.3916,-2.7828,-2.3188,-0.6370,-0.2184,0.8778,
12.632732,0.3430,0.9286,-0.2472,2.3916,-2.7828,-2.3188,-0.6370,-0.2184,0.8778,
12.635681,0.3430,0.9286,-0.2472,2.0943,-0.5206,-1.0081,-0.6370,-0.2184,0.8778,
12.637591,0.3430,0.9286,-0.2472,2.0943,-0.5206,-1.0081,-0.4719,-0.0043,0.4794,
12.653001,0.3430,0.9286,-0.2472,2.0943,-0.5206,-1.0081,-0.1886,0.3462,-0.1023,
12.673314,0.0843,1.1846,-0.4463,2.0943,-0.5206,-1.0081,-0.1886,0.3462,-0.1023,
12.676572,0.0843,1.1846,-0.4463,-0.5287,1.9903,-3.0305,-0.1886,0.3462,-0.1023,
12.678591,0.0843,1.1846,-0.4463,-0.5287,1.9903,-3.0305,0.1326,0.3835,-0.5193,
12.692872,0.0843,1.1846,-0.4463,-0.5287,1.9903,-3.0305,0.0698,-0.4075,-0.4788,
12.713393,-0.0164,1.7001,-0.4300,-0.5287,1.9903,-3.0305,0.0698,-0.4075,-0.4788,
12.716900,-0.0164,1.7001,-0.4300,-1.3224,7.0223,-2.8313,0.0698,-0.4075,-0.4788,
12.719287,-0.0164,1.7001,-0.4300,-1.3224,7.0223,-2.8313,0.0362,-0.6210,-0.0330,
12.732472,-0.0164,1.7001,-0.4300,-1.3224,7.0223,-2.8313,-0.3627,-0.7713,-0.0900,
12.752691,0.2326,0.9550,-0.2497,-1.3224,7.0223,-2.8313,-0.3627,-0.7713,-0.0900,
12.755511,0.2326,0.9550,-0.2497,1.1795,-0.2918,-1.0959,-0.3627,-0.7713,-0.0900,
12.756953,0.2326,0.9550,-0.2497,1.1795,-0.2918,-1.0959,-1.1798,-2.0107,0.1454,
12.772782,0.2326,0.9550,-0.2497,1.1795,-0.2918,-1.0959,-1.4823,-1.3396,0.5039,
12.792850,0.4485,0.9547,-0.2250,1.1795,-0.2918,-1.0959,-1.4823,-1.3396,0.5039,
12.796074,0.4485,0.9547,-0.2250,3.2487,-0.3402,-1.2952,-1.4823,-1.3396,0.5039,
12.798175,0.4485,0.9547,-0.2250,3.2487,-0.3402,-1.2952,-1.7348,-0.6141,-0.2296,
12.813343,0.4485,0.9547,-0.2250,3.2487,-0.3402,-1.2952,-2.0277,-0.8336,-0.6274,
12.833735,0.2348,1.0034,-0.0051,3.2487,-0.3402,-1.2952,-2.0277,-0.8336,-0.6274,
12.836109,0.2348,1.0034,-0.0051,1.3239,0.0776,0.1707,-2.0277,-0.8336,-0.6274,
12.837771,0.2348,1.0034,-0.0051,1.3239,0.0776,0.1707,-2.2195,-1.2160,-0.7734,
12.852919,0.2348,1.0034,-0.0051,1.3239,0.0776,0.1707,-2.4379,-1.6528,-0.9555,
12.873259,0.2182,0.9738,0.1261,1.3239,0.0776,0.1707,-2.4379,-1.6528,-0.9555,
12.875104,0.2182,0.9738,0.1261,1.4433,-0.2193,0.6198,-2.4379,-1.6528,-0.9555,
12.876776,0.2182,0.9738,0.1261,1.4433,-0.2193,0.6198,-2.7532,-1.8216,-1.1840,
12.893463,0.2182,0.9738,0.1261,1.4433,-0.2193,0.6198,-2.9066,-1.5585,-1.1622,
12.913064,0.0002,0.9308,0.7244,1.4433,-0.2193,0.6198,-2.9066,-1.5585,-1.1622,
12.916104,0.0002,0.9308,0.7244,-0.3424,-0.5279,5.3861,-2.9066,-1.5585,-1.1622,
12.918010,0.0002,0.9308,0.7244,-0.3424,-0.5279,5.3861,-2.3335,-0.4559,-1.0546,
12.933085,0.0002,0.9308,0.7244,-0.3424,-0.5279,5.3861,-1.3049,0.7702,-1.1031,
12.952341,0.0318,1.0222,0.7608,-0.3424,-0.5279,5.3861,-1.3049,0.7702,-1.1031,
12.954783,0.0318,1.0222,0.7608,0.3964,0.5112,5.0481,-1.3049,0.7702,-1.1031,
12.956348,0.0318,1.0222,0.7608,0.3964,0.5112,5.0481,-0.1310,1.0924,-1.3310,
12.972971,0.0318,1.0222,0.7608,0.3964,0.5112,5.0481,0.5241,0.6892,-1.8323,
12.993472,0.0024,0.7793,0.1805,0.3964,0.5112,5.0481,0.5241,0.6892,-1.8323,
12.995763,0.0024,0.7793,0.1805,0.7571,-1.8531,-0.5888,0.5241,0.6892,-1.8323,
12.996926,0.0024,0.7793,0.1805,0.7571,-1.8531,-0.5888,0.5928,0.0149,-2.4517,
13.012158,0.0024,0.7793,0.1805,0.7571,-1.8531,-0.5888,0.4586,-0.3952,-2.5215,
13.032246,-0.5670,0.8240,-0.0706,0.7571,-1.8531,-0.5888,0.4586,-0.3952,-2.5215,
13.035224,-0.5670,0.8240,-0.0706,-3.8979,-1.3431,-2.8610,0.4586,-0.3952,-2.5215,
13.036844,-0.5670,0.8240,-0.0706,-3.8979,-1.3431,-2.8610,0.2019,-0.3254,-2.0379,
13.052950,-0.5670,0.8240,-0.0706,-3.8979,-1.3431,-2.8610,-0.3920,0.3404,-1.1782,
13.073045,-0.8661,0.5108,-0.1251,-3.8979,-1.3431,-2.8610,-0.3920,0.3404,-1.1782,
13.075579,-0.8661,0.5108,-0.1251,-6.2263,-4.2787,-3.4274,-0.3920,0.3404,-1.1782,
13.077538,-0.8661,0.5108,-0.1251,-6.2263,-4.2787,-3.4274,-0.8709,1.5974,0.0405,
13.092698,-0.8661,0.5108,-0.1251,-6.2263,-4.2787,-3.4274,-1.0983,1.7609,0.4160,
13.112947,-0.3010,0.5309,0.0933,-6.2263,-4.2787,-3.4274,-1.0983,1.7609,0.4160,
13.115797,-0.3010,0.5309,0.0933,-0.6183,-4.0130,-1.4956,-1.0983,1.7609,0.4160,
13.118265,-0.3010,0.5309,0.0933,-0.6183,-4.0130,-1.4956,-1.0274,1.0535,0.1784,
13.132782,-0.3010,0.5309,0.0933,-0.6183,-4.0130,-1.4956,-0.6498,0.3627,-0.0218,
13.152342,-0.2797,0.7586,0.2245,-0.6183,-4.0130,-1.4956,-0.6498,0.3627,-0.0218,
13.155992,-0.2797,0.7586,0.2245,-0.3678,-1.7042,-0.4510,-0.6498,0.3627,-0.0218,
13.158184,-0.2797,0.7586,0.2245,-0.3678,-1.7042,-0.4510,-0.1619,-0.2844,-0.0138,
13.172498,-0.2797,0.7586,0.2245,-0.3678,-1.7042,-0.4510,0.1859,-0.8863,0.1252,
13.192166,-0.1962,0.8849,0.1867,-0.3678,-1.7042,-0.4510,0.1859,-0.8863,0.1252,
13.194683,-0.1962,0.8849,0.1867,0.3678,-0.4729,-0.8724,0.1859,-0.8863,0.1252,
13.196452,-0.1962,0.8849,0.1867,0.3678,-0.4729,-0.8724,0.2860,-1.0211,0.1875,
13.214741,-0.1962,0.8849,0.1867,0.3678,-0.4729,-0.8724,0.0895,-0.4517,0.1848,
13.232258,-0.2792,1.0014,0.1930,0.3678,-0.4729,-0.8724,0.0895,-0.4517,0.1848,
13.235935,-0.2792,1.0014,0.1930,-0.5830,0.6318,-0.7959,0.0895,-0.4517,0.1848,
13.238169,-0.2792,1.0014,0.1930,-0.5830,0.6318,-0.7959,-0.2583,0.3867,0.2099,
13.252687,-0.2792,1.0014,0.1930,-0.5830,0.6318,-0.7959,-0.4123,0.7041,0.2631,
13.272157,-0.3994,1.1182,0.2382,-0.5830,0.6318,-0.7959,-0.4123,0.7041,0.2631,
13.274506,-0.3994,1.1182,0.2382,-1.7686,1.7920,-0.4123,-0.4123,0.7041,0.2631,
13.276025,-0.3994,1.1182,0.2382,-1.7686,1.7920,-0.4123,-0.2248,0.7819,0.3425,
13.291816,-0.3994,1.1182,0.2382,-1.7686,1.7920,-0.4123,0.1694,0.7899,0.4277,
13.312693,-0.4048,1.2968,0.1783,-1.7686,1.7920,-0.4123,0.1694,0.7899,0.4277,
13.315856,-0.4048,1.2968,0.1783,-1.8765,3.5126,-0.9424,0.1694,0.7899,0.4277,
13.318119,-0.4048,1.2968,0.1783,-1.8765,3.5126,-0.9424,0.6663,0.6647,0.4607,
13.332277,-0.4048,1.2968,0.1783,-1.8765,3.5126,-0.9424,1.1313,0.2642,0.3862,
13.351859,-0.4952,1.4385,0.2060,-1.8765,3.5126,-0.9424,1.1313,0.2642,0.3862,
13.354339,-0.4952,1.4385,0.2060,-2.8713,4.7771,-0.3014,1.1313,0.2642,0.3862,
13.355851,-0.4952,1.4385,0.2060,-2.8713,4.7771,-0.3014,1.4173,-0.4922,0.3388,
13.372027,-0.4952,1.4385,0.2060,-2.8713,4.7771,-0.3014,1.4520,-1.1643,0.2951,
13.392056,-0.4226,1.2968,0.2006,-2.8713,4.7771,-0.3014,1.4520,-1.1643,0.2951,
13.395041,-0.4226,1.2968,0.2006,-2.3462,3.2454,0.1223,1.4520,-1.1643,0.2951,
13.396957,-0.4226,1.2968,0.2006,-2.3462,3.2454,0.1223,1.0658,-1.4557,0.2535,
13.414715,-0.4226,1.2968,0.2006,-2.3462,3.2454,0.1223,0.7308,-1.5095,0.2376,
13.432914,-0.0770,0.9872,0.3276,-2.3462,3.2454,0.1223,0.7308,-1.5095,0.2376,
13.436814,-0.0770,0.9872,0.3276,0.8473,0.1336,1.6079,0.7308,-1.5095,0.2376,
13.438619,-0.0770,0.9872,0.3276,0.8473,0.1336,1.6079,0.5992,-1.5579,0.1949,
13.452289,-0.0770,0.9872,0.3276,0.8473,0.1336,1.6079,0.5518,-1.3726,0.2093,
13.471964,0.1317,0.8763,0.2937,0.8473,0.1336,1.6079,0.5518,-1.3726,0.2093,
13.475006,0.1317,0.8763,0.2937,2.7187,-1.0000,1.3943,0.5518,-1.3726,0.2093,
13.476496,0.1317,0.8763,0.2937,2.7187,-1.0000,1.3943,0.5486,-0.9694,0.2136,
13.491593,0.1317,0.8763,0.2937,2.7187,-1.0000,1.3943,0.5076,-0.5103,0.1694,
13.512774,0.1107,1.0109,0.1906,2.7187,-1.0000,1.3943,0.5076,-0.5103,0.1694,
13.515852,0.1107,1.0109,0.1906,2.3728,0.2783,0.5277,0.5076,-0.5103,0.1694,
13.517370,0.1107,1.0109,0.1906,2.3728,0.2783,0.5277,0.3617,-0.1182,0.1241,
13.531295,0.1107,1.0109,0.1906,2.3728,0.2783,0.5277,0.1960,0.1081,0.1912,
13.552207,0.0193,1.0520,0.0948,2.3728,0.2783,0.5277,0.1960,0.1081,0.1912,
13.554387,0.0193,1.0520,0.0948,1.3911,0.6562,-0.3122,0.1960,0.1081,0.1912,
13.555933,0.0193,1.0520,0.0948,1.3911,0.6562,-0.3122,0.1257,0.2349,0.2924,
13.572098,0.0193,1.0520,0.0948,1.3911,0.6562,-0.3122,0.2557,0.3894,0.3382,
13.591467,-0.1371,1.0859,0.0677,1.3911,0.6562,-0.3122,0.2557,0.3894,0.3382,
13.593950,-0.1371,1.0859,0.0677,-0.2557,0.9646,-0.4906,0.2557,0.3894,0.3382,
13.595423,-0.1371,1.0859,0.0677,-0.2557,0.9646,-0.4906,0.7462,1.1707,0.3286,
13.615162,-0.1371,1.0859,0.0677,-0.2557,0.9646,-0.4906,1.6480,2.6355,-0.0447,
13.631528,-0.3626,0.8775,-0.0574,-0.2557,0.9646,-0.4906,1.6480,2.6355,-0.0447,
13.634100,-0.3626,0.8775,-0.0574,-2.4240,-1.1228,-1.1660,1.6480,2.6355,-0.0447,
13.635854,-0.3626,0.8775,-0.0574,-2.4240,-1.1228,-1.1660,1.9212,2.4602,-0.2269,
13.652263,-0.3626,0.8775,-0.0574,-2.4240,-1.1228,-1.1660,1.7055,1.3018,-0.0884,
13.672525,-0.2660,0.6907,-0.0154,-2.4240,-1.1228,-1.1660,1.7055,1.3018,-0.0884,
13.674987,-0.2660,0.6907,-0.0154,-1.3981,-2.9616,0.0389,1.7055,1.3018,-0.0884,
13.676791,-0.2660,0.6907,-0.0154,-1.3981,-2.9616,0.0389,1.5329,0.5598,0.2764,
13.691765,-0.2660,0.6907,-0.0154,-1.3981,-2.9616,0.0389,1.4567,0.4405,0.7159,
13.711954,-0.2304,0.7222,-0.0432,-1.3981,-2.9616,0.0389,1.4567,0.4405,0.7159,
13.714321,-0.2304,0.7222,-0.0432,-1.2508,-2.6453,0.3694,1.4567,0.4405,0.7159,
13.716147,-0.2304,0.7222,-0.0432,-1.2508,-2.6453,0.3694,1.3614,0.4607,1.1212,
13.732205,-0.2304,0.7222,-0.0432,-1.2508,-2.6453,0.3694,1.1468,0.4932,1.3108,
13.751928,-0.1402,0.5964,-0.1444,-1.2508,-2.6453,0.3694,1.1468,0.4932,1.3108,
13.754227,-0.1402,0.5964,-0.1444,-0.8599,-3.8629,-0.1200,1.1468,0.4932,1.3108,
13.756141,-0.1402,0.5964,-0.1444,-0.8599,-3.8629,-0.1200,0.8506,0.6226,1.4472,
13.771997,-0.1402,0.5964,-0.1444,-0.8599,-3.8629,-0.1200,0.6077,0.9241,1.6171,
13.791525,0.0689,0.5514,-0.3906,-0.8599,-3.8629,-0.1200,0.6077,0.9241,1.6171,
13.794042,0.0689,0.5514,-0.3906,0.5510,-4.2736,-2.2456,0.6077,0.9241,1.6171,
13.795846,0.0689,0.5514,-0.3906,0.5510,-4.2736,-2.2456,0.3334,1.0626,1.8024,
13.814069,0.0689,0.5514,-0.3906,0.5510,-4.2736,-2.2456,-0.1699,0.8511,1.7380,
13.831313,0.3892,0.6501,-0.5441,0.5510,-4.2736,-2.2456,-0.1699,0.8511,1.7380,
13.834251,0.3892,0.6501,-0.5441,2.9453,-3.2659,-3.7360,-0.1699,0.8511,1.7380,
13.836042,0.3892,0.6501,-0.5441,2.9453,-3.2659,-3.7360,-0.5981,0.3968,1.4152,
13.852033,0.3892,0.6501,-0.5441,2.9453,-3.2659,-3.7360,-0.7414,-0.1960,0.9998,
13.871462,0.3335,0.8431,-0.2060,2.9453,-3.2659,-3.7360,-0.7414,-0.1960,0.9998,
13.874778,0.3335,0.8431,-0.2060,1.9284,-1.3601,-0.6832,-0.7414,-0.1960,0.9998,
13.876548,0.3335,0.8431,-0.2060,1.9284,-1.3601,-0.6832,-0.6381,-0.4245,0.5609,
13.891086,0.3335,0.8431,-0.2060,1.9284,-1.3601,-0.6832,-0.3755,-0.2924,0.1252,
13.911496,0.1080,1.0857,-0.3801,1.9284,-1.3601,-0.6832,-0.3755,-0.2924,0.1252,
13.913734,0.1080,1.0857,-0.3801,-0.4024,1.0185,-2.5142,-0.3755,-0.2924,0.1252,
13.915545,0.1080,1.0857,-0.3801,-0.4024,1.0185,-2.5142,-0.1119,-0.0474,-0.2290,
13.931224,0.1080,1.0857,-0.3801,-0.4024,1.0185,-2.5142,-0.0559,-0.0682,-0.4554,
13.951042,-0.0454,1.2758,-0.4564,-0.4024,1.0185,-2.5142,-0.0559,-0.0682,-0.4554,
13.954260,-0.0454,1.2758,-0.4564,-1.7715,2.8581,-3.2903,-0.0559,-0.0682,-0.4554,
13.956435,-0.0454,1.2758,-0.4564,-1.7715,2.8581,-3.2903,-0.2626,-0.6312,-0.4522,
13.971072,-0.0454,1.2758,-0.4564,-1.7715,2.8581,-3.2903,-0.2727,-0.7521,-0.1310,
13.992001,0.0889,1.6351,-0.3777,-1.7715,2.8581,-3.2903,-0.2727,-0.7521,-0.1310,
13.995428,0.0889,1.6351,-0.3777,-0.3106,6.3531,-2.5885,-0.2727,-0.7521,-0.1310,
13.996968,0.0889,1.6351,-0.3777,-0.3106,6.3531,-2.5885,-0.5316,-0.8911,0.2418,
14.011707,0.0889,1.6351,-0.3777,-0.3106,6.3531,-2.5885,-1.0972,-1.7422,0.0581,
14.031060,0.3887,0.9711,-0.1832,-0.3106,6.3531,-2.5885,-1.0972,-1.7422,0.0581,
14.034151,0.3887,0.9711,-0.1832,2.6212,-0.1793,-0.9347,-1.0972,-1.7422,0.0581,
14.036171,0.3887,0.9711,-0.1832,2.6212,-0.1793,-0.9347,-1.5558,-2.5545,0.3169,
14.051664,0.3887,0.9711,-0.1832,2.6212,-0.1793,-0.9347,-1.5569,-1.9835,0.2141,
14.071676,0.4532,0.9594,-0.0855,2.6212,-0.1793,-0.9347,-1.5569,-1.9835,0.2141,
14.074109,0.4532,0.9594,-0.0855,3.2077,-0.3198,-0.4711,-1.5569,-1.9835,0.2141,
14.075770,0.4532,0.9594,-0.0855,3.2077,-0.3198,-0.4711,-1.6799,-1.8898,-0.3835,
14.091500,0.4532,0.9594,-0.0855,3.2077,-0.3198,-0.4711,-1.8871,-2.0592,-0.7143,
14.110860,0.3608,0.9875,0.0625,3.2077,-0.3198,-0.4711,-1.8871,-2.0592,-0.7143,
14.113512,0.3608,0.9875,0.0625,2.5157,-0.0732,0.3785,-1.8871,-2.0592,-0.7143,
14.115643,0.3608,0.9875,0.0625,2.5157,-0.0732,0.3785,-2.0863,-2.2046,-0.8842,
14.131062,0.3608,0.9875,0.0625,2.5157,-0.0732,0.3785,-2.2850,-2.1625,-1.2831,
14.150471,0.2939,0.9577,0.2426,2.5157,-0.0732,0.3785,-2.2850,-2.1625,-1.2831,
14.152606,0.2939,0.9577,0.2426,2.1841,-0.3452,1.3759,-2.2850,-2.1625,-1.2831,
14.154532,0.2939,0.9577,0.2426,2.1841,-0.3452,1.3759,-2.5636,-2.0730,-1.6815,
14.171828,0.2939,0.9577,0.2426,2.1841,-0.3452,1.3759,-2.2765,-1.7241,-1.9255,
14.191954,-0.0410,1.0095,0.8157,2.1841,-0.3452,1.3759,-2.2765,-1.7241,-1.9255,
14.194163,-0.0410,1.0095,0.8157,-0.5178,0.2754,6.0807,-2.2765,-1.7241,-1.9255,
14.195929,-0.0410,1.0095,0.8157,-0.5178,0.2754,6.0807,-1.3460,-0.7249,-1.8317,
14.213312,-0.0410,1.0095,0.8157,-0.5178,0.2754,6.0807,-0.1278,0.1033,-1.7305,
14.231375,-0.0689,0.9289,0.5739,-0.5178,0.2754,6.0807,-0.1278,0.1033,-1.7305,
14.233681,-0.0689,0.9289,0.5739,-0.1443,-0.4361,3.4107,-0.1278,0.1033,-1.7305,
14.235470,-0.0689,0.9289,0.5739,-0.1443,-0.4361,3.4107,0.8101,0.3846,-1.8035,
14.251938,-0.0689,0.9289,0.5739,-0.1443,-0.4361,3.4107,1.0780,0.2008,-1.8775,
14.271434,-0.4319,0.8634,0.1375,-0.1443,-0.4361,3.4107,1.0780,0.2008,-1.8775,
14.273953,-0.4319,0.8634,0.1375,-2.9676,-1.0774,-0.5457,1.0780,0.2008,-1.8775,
14.275904,-0.4319,0.8634,0.1375,-2.9676,-1.0774,-0.5457,0.8900,0.0687,-1.7635,
14.291561,-0.4319,0.8634,0.1375,-2.9676,-1.0774,-0.5457,0.3478,0.0336,-1.5121,
14.311272,-0.6726,0.6760,-0.1073,-2.9676,-1.0774,-0.5457,0.3478,0.0336,-1.5121,
14.313787,-0.6726,0.6760,-0.1073,-4.6910,-2.8527,-2.7058,0.3478,0.0336,-1.5121,
14.315730,-0.6726,0.6760,-0.1073,-4.6910,-2.8527,-2.7058,-0.3910,-0.0437,-1.0988,
14.331279,-0.6726,0.6760,-0.1073,-4.6910,-2.8527,-2.7058,-0.9374,0.2429,-0.4591,
14.351271,-0.4779,0.4493,-0.0479,-4.6910,-2.8527,-2.7058,-0.9374,0.2429,-0.4591,
14.353756,-0.4779,0.4493,-0.0479,-2.4821,-4.9636,-2.3650,-0.9374,0.2429,-0.4591,
14.355710,-0.4779,0.4493,-0.0479,-2.4821,-4.9636,-2.3650,-1.2325,0.7430,0.0181,
14.371086,-0.4779,0.4493,-0.0479,-2.4821,-4.9636,-2.3650,-1.2330,0.5960,-0.0756,
14.390918,-0.2502,0.6288,0.1400,-2.4821,-4.9636,-2.3650,-1.2330,0.5960,-0.0756,
14.393768,-0.2502,0.6288,0.1400,-0.1843,-3.0982,-0.9231,-1.2330,0.5960,-0.0756,
14.395771,-0.2502,0.6288,0.1400,-0.1843,-3.0982,-0.9231,-0.9358,0.1545,-0.1923,
14.410221,-0.2502,0.6288,0.1400,-0.1843,-3.0982,-0.9231,-0.4229,-0.4490,-0.1779,
14.430620,-0.1529,0.8050,0.2270,-0.1843,-3.0982,-0.9231,-0.4229,-0.4490,-0.1779,
14.433812,-0.1529,0.8050,0.2270,0.8215,-1.2893,-0.3346,-0.4229,-0.4490,-0.1779,
14.436314,-0.1529,0.8050,0.2270,0.8215,-1.2893,-0.3346,0.1582,-1.0823,-0.0352,
14.450352,-0.1529,0.8050,0.2270,0.8215,-1.2893,-0.3346,0.5678,-1.3385,0.0634,
14.470639,-0.1336,0.8570,0.0450,0.8215,-1.2893,-0.3346,0.5678,-1.3385,0.0634,
14.474024,-0.1336,0.8570,0.0450,0.8815,-0.8177,-2.0942,0.5678,-1.3385,0.0634,
14.475660,-0.1336,0.8570,0.0450,0.8815,-0.8177,-2.0942,0.5630,-1.1931,0.0394,
14.490520,-0.1336,0.8570,0.0450,0.8815,-0.8177,-2.0942,0.1912,-0.5934,0.0794,
14.512001,-0.2795,0.8666,0.1226,0.8815,-0.8177,-2.0942,0.1912,-0.5934,0.0794,
14.514557,-0.2795,0.8666,0.1226,-0.6589,-0.7670,-1.2700,0.1912,-0.5934,0.0794,
14.516377,-0.2795,0.8666,0.1226,-0.6589,-0.7670,-1.2700,-0.2173,0.0554,0.1369,
14.530743,-0.2795,0.8666,0.1226,-0.6589,-0.7670,-1.2700,-0.4708,0.2743,0.1763,
14.551082,-0.3313,0.9120,0.2621,-0.6589,-0.7670,-1.2700,-0.4708,0.2743,0.1763,
14.553442,-0.3313,0.9120,0.2621,-1.2011,-0.2996,-0.0119,-0.4708,0.2743,0.1763,
14.555415,-0.3313,0.9120,0.2621,-1.2011,-0.2996,-0.0119,-0.4506,0.0772,0.2530,
14.570500,-0.3313,0.9120,0.2621,-1.2011,-0.2996,-0.0119,-0.2637,-0.1811,0.3265,
14.591073,-0.3538,0.9890,0.1471,-1.2011,-0.2996,-0.0119,-0.2637,-0.1811,0.3265,
14.593692,-0.3538,0.9890,0.1471,-1.4961,0.4677,-1.2428,-0.2637,-0.1811,0.3265,
14.595471,-0.3538,0.9890,0.1471,-1.4961,0.4677,-1.2428,-0.0916,-0.3265,0.3404,
14.612938,-0.3538,0.9890,0.1471,-1.4961,0.4677,-1.2428,-0.0016,-0.2780,0.3068,
14.630265,-0.4134,1.0556,0.0706,-1.4961,0.4677,-1.2428,-0.0016,-0.2780,0.3068,
14.632862,-0.4134,1.0556,0.0706,-2.1970,1.0990,-1.9984,-0.0016,-0.2780,0.3068,
14.634477,-0.4134,1.0556,0.0706,-2.1970,1.0990,-1.9984,0.0810,-0.1582,0.2850,
14.650446,-0.4134,1.0556,0.0706,-2.1970,1.0990,-1.9984,0.2290,-0.3265,0.2434,
14.670597,-0.4229,1.2396,0.1532,-2.1970,1.0990,-1.9984,0.2290,-0.3265,0.2434,
14.672709,-0.4229,1.2396,0.1532,-2.4140,2.8663,-1.1491,0.2290,-0.3265,0.2434,
14.674580,-0.4229,1.2396,0.1532,-2.4140,2.8663,-1.1491,0.4458,-0.7025,0.2562,
14.690590,-0.4229,1.2396,0.1532,-2.4140,2.8663,-1.1491,0.6770,-0.8964,0.2764,
14.710606,-0.4256,1.3757,0.2248,-2.4140,2.8663,-1.1491,0.6770,-0.8964,0.2764,
14.712768,-0.4256,1.3757,0.2248,-2.6218,4.1247,-0.2908,0.6770,-0.8964,0.2764,
14.714571,-0.4256,1.3757,0.2248,-2.6218,4.1247,-0.2908,0.8490,-1.1595,0.2418,
14.731356,-0.4256,1.3757,0.2248,-2.6218,4.1247,-0.2908,0.9699,-1.4418,0.2770,
14.750176,-0.3594,1.3241,0.1038,-2.6218,4.1247,-0.2908,0.9699,-1.4418,0.2770,
14.753358,-0.3594,1.3241,0.1038,-2.1929,3.5189,-1.2089,0.9699,-1.4418,0.2770,
14.755518,-0.3594,1.3241,0.1038,-2.1929,3.5189,-1.2089,1.0163,-1.0530,0.4160,
14.770554,-0.3594,1.3241,0.1038,-2.1929,3.5189,-1.2089,0.6738,-0.3260,0.3041,
14.790533,-0.3501,1.2665,0.2201,-2.1929,3.5189,-1.2089,0.6738,-0.3260,0.3041,
14.793105,-0.3501,1.2665,0.2201,-2.2967,2.8658,0.2173,0.6738,-0.3260,0.3041,
14.794903,-0.3501,1.2665,0.2201,-2.2967,2.8658,0.2173,0.1555,-0.1875,0.1294,
14.812689,-0.3501,1.2665,0.2201,-2.2967,2.8658,0.2173,0.1076,-0.7734,0.0921,
14.830539,-0.0677,1.0295,0.3711,-2.2967,2.8658,0.2173,0.1076,-0.7734,0.0921,
14.833345,-0.0677,1.0295,0.3711,0.3919,0.5285,1.7263,0.1076,-0.7734,0.0921,
14.835299,-0.0677,1.0295,0.3711,0.3919,0.5285,1.7263,0.4309,-1.4536,0.0149,
14.850442,-0.0677,1.0295,0.3711,0.3919,0.5285,1.7263,0.8128,-1.7540,-0.0682,
14.871005,0.1163,1.0012,0.3183,0.3919,0.5285,1.7263,0.8128,-1.7540,-0.0682,
14.874671,0.1163,1.0012,0.3183,2.0873,0.2064,1.3834,0.8128,-1.7540,-0.0682,
14.876449,0.1163,1.0012,0.3183,2.0873,0.2064,1.3834,1.0344,-1.6693,-0.0767,
14.889894,0.1163,1.0012,0.3183,2.0873,0.2064,1.3834,0.9241,-1.2549,0.0123,
14.910204,0.2719,1.0403,0.2785,2.0873,0.2064,1.3834,0.9241,-1.2549,0.0123,
14.912717,0.2719,1.0403,0.2785,3.5324,0.5290,1.3169,0.9241,-1.2549,0.0123,
14.914224,0.2719,1.0403,0.2785,3.5324,0.5290,1.3169,0.5960,-0.6360,0.0538,
14.930414,0.2719,1.0403,0.2785,3.5324,0.5290,1.3169,0.3920,-0.1843,-0.1044,
14.949917,0.2834,1.0021,0.2558,3.5324,0.5290,1.3169,0.3920,-0.1843,-0.1044,
14.951968,0.2834,1.0021,0.2558,3.6218,0.1300,1.2652,0.3920,-0.1843,-0.1044,
14.953606,0.2834,1.0021,0.2558,3.6218,0.1300,1.2652,0.3814,-0.1566,-0.3414,
14.969773,0.2834,1.0021,0.2558,3.6218,0.1300,1.2652,0.4549,-0.4767,-0.4506,
14.990272,0.1197,0.8925,0.0958,3.6218,0.1300,1.2652,0.4549,-0.4767,-0.4506,
14.992737,0.1197,0.8925,0.0958,2.0722,-0.9547,-0.1834,0.4549,-0.4767,-0.4506,
14.994668,0.1197,0.8925,0.0958,2.0722,-0.9547,-0.1834,0.4985,-0.7404,-0.3712,
15.014388,0.1197,0.8925,0.0958,2.0722,-0.9547,-0.1834,0.5736,-0.7430,-0.1811,
15.029663,0.0232,0.8084,0.0354,2.0722,-0.9547,-0.1834,0.5736,-0.7430,-0.1811,
15.032257,0.0232,0.8084,0.0354,1.1892,-1.7911,-0.5981,0.5736,-0.7430,-0.1811,
15.033979,0.0232,0.8084,0.0354,1.1892,-1.7911,-0.5981,0.6860,-0.5060,0.0229,
15.049821,0.0232,0.8084,0.0354,1.1892,-1.7911,-0.5981,0.8490,-0.0005,0.0613,
15.070336,-0.2238,1.0129,0.0704,1.1892,-1.7911,-0.5981,0.8490,-0.0005,0.0613,
15.072694,-0.2238,1.0129,0.0704,-1.2677,0.1862,0.0238,0.8490,-0.0005,0.0613,
15.074492,-0.2238,1.0129,0.0704,-1.2677,0.1862,0.0238,1.2059,0.9539,-0.2679,
15.090440,-0.2238,1.0129,0.0704,-1.2677,0.1862,0.0238,1.8109,1.8722,-0.9886,
15.109687,-0.4742,0.9860,0.0684,-1.2677,0.1862,0.0238,1.8109,1.8722,-0.9886,
15.112332,-0.4742,0.9860,0.0684,-3.4177,-0.0661,0.6179,1.8109,1.8722,-0.9886,
15.114015,-0.4742,0.9860,0.0684,-3.4177,-0.0661,0.6179,1.9846,1.6346,-1.2245,
15.129772,-0.4742,0.9860,0.0684,-3.4177,-0.0661,0.6179,1.8701,1.1707,-0.9550,
15.149317,-0.3884,0.7261,-0.0103,-3.4177,-0.0661,0.6179,1.8701,1.1707,-0.9550,
15.151574,-0.3884,0.7261,-0.0103,-2.1657,-2.5223,0.6663,1.8701,1.1707,-0.9550,
15.153318,-0.3884,0.7261,-0.0103,-2.1657,-2.5223,0.6663,1.4291,0.5800,-0.2919,
15.170261,-0.3884,0.7261,-0.0103,-2.1657,-2.5223,0.6663,1.0141,0.4096,0.4256,
15.189572,-0.2978,0.6411,-0.0327,-2.1657,-2.5223,0.6663,1.0141,0.4096,0.4256,
15.192236,-0.2978,0.6411,-0.0327,-1.3229,-3.3101,0.9478,1.0141,0.4096,0.4256,
15.193951,-0.2978,0.6411,-0.0327,-1.3229,-3.3101,0.9478,0.9199,1.0088,0.7137,
15.209745,-0.2978,0.6411,-0.0327,-1.3229,-3.3101,0.9478,0.8533,1.6426,0.8980,
15.229750,-0.1984,0.4893,-0.1082,-1.3229,-3.3101,0.9478,0.8533,1.6426,0.8980,
15.232141,-0.1984,0.4893,-0.1082,-0.7365,-4.7900,0.6213,0.8533,1.6426,0.8980,
15.234048,-0.1984,0.4893,-0.1082,-0.7365,-4.7900,0.6213,0.8165,2.1769,1.0583,
15.250361,-0.1984,0.4893,-0.1082,-0.7365,-4.7900,0.6213,0.8229,2.4416,1.2725,
15.269882,0.0911,0.5118,-0.6205,-0.7365,-4.7900,0.6213,0.8229,2.4416,1.2725,
15.273737,0.0911,0.5118,-0.6205,1.4806,-4.5499,-4.0023,0.8229,2.4416,1.2725,
15.275393,0.0911,0.5118,-0.6205,1.4806,-4.5499,-4.0023,0.5491,1.4589,1.3534,
15.289533,0.0911,0.5118,-0.6205,1.4806,-4.5499,-4.0023,0.0879,0.1928,1.0871,
15.309082,0.1713,0.7825,-0.6364,1.4806,-4.5499,-4.0023,0.0879,0.1928,1.0871,
15.311321,0.1713,0.7825,-0.6364,1.7293,-1.8848,-4.0233,0.0879,0.1928,1.0871,
15.313160,0.1713,0.7825,-0.6364,1.7293,-1.8848,-4.0233,-0.1843,-0.3766,0.7180,
15.330207,0.1713,0.7825,-0.6364,1.7293,-1.8848,-4.0233,-0.2274,-0.3888,0.4197,
15.350103,0.0208,0.7913,-0.2274,1.7293,-1.8848,-4.0233,-0.2274,-0.3888,0.4197,
15.352429,0.0208,0.7913,-0.2274,0.0706,-1.8155,-0.0932,-0.2274,-0.3888,0.4197,
15.354290,0.0208,0.7913,-0.2274,0.0706,-1.8155,-0.0932,-0.1529,-0.1209,0.2924,
15.369615,0.0208,0.7913,-0.2274,0.0706,-1.8155,-0.0932,-0.0485,0.1289,0.2471,
15.389659,0.0276,0.8492,-0.4796,0.0706,-1.8155,-0.0932,-0.0485,0.1289,0.2471,
15.392096,0.0276,0.8492,-0.4796,0.0341,-1.2546,-2.6027,-0.0485,0.1289,0.2471,
15.394074,0.0276,0.8492,-0.4796,0.0341,-1.2546,-2.6027,-0.1012,0.1997,0.0794,
15.409677,0.0276,0.8492,-0.4796,0.0341,-1.2546,-2.6027,-0.2823,0.1369,-0.0831,
15.429702,-0.1297,0.9574,-0.4517,0.0341,-1.2546,-2.6027,-0.2823,0.1369,-0.0831,
15.432040,-0.1297,0.9574,-0.4517,-1.5067,-0.1996,-2.3554,-0.2823,0.1369,-0.0831,
15.434188,-0.1297,0.9574,-0.4517,-1.5067,-0.1996,-2.3554,-0.3318,0.2349,-0.2035,
15.448618,-0.1297,0.9574,-0.4517,-1.5067,-0.1996,-2.3554,-0.2487,0.3569,-0.2796,
15.469100,-0.2790,1.5631,-0.3860,-1.5067,-0.1996,-2.3554,-0.2487,0.3569,-0.2796,
15.472094,-0.2790,1.5631,-0.3860,-2.9007,5.7103,-1.8250,-0.2487,0.3569,-0.2796,
15.474122,-0.2790,1.5631,-0.3860,-2.9007,5.7103,-1.8250,0.0708,0.4740,-0.2557,
