
time,gFx,gFy,gFz,ax,ay,az,wx,wy,wz,
0.019998,0.0398,0.1583,1.0261,0.0000,0.0000,0.0000,0.0000,0.0000,0.0000,
0.021184,0.0398,0.1583,1.0261,0.0000,0.0000,0.0000,-0.1092,-0.0383,0.0469,
0.040165,0.0398,0.1583,1.0261,0.0000,0.0000,0.0000,-0.1092,-0.0383,0.0469,
0.060523,-0.0425,0.2062,1.0833,0.0000,0.0000,0.0000,-0.1092,-0.0383,0.0469,
0.062263,-0.0425,0.2062,1.0833,-0.0388,0.1883,0.9894,-0.1092,-0.0383,0.0469,
0.063931,-0.0425,0.2062,1.0833,-0.0388,0.1883,0.9894,-0.1092,-0.0383,0.0469,
0.080228,-0.0425,0.2062,1.0833,-0.0388,0.1883,0.9894,-0.1092,-0.0383,0.0469,
0.100242,-0.0186,0.2780,1.0515,-0.0388,0.1883,0.9894,-0.1092,-0.0383,0.0469,
0.101969,-0.0186,0.2780,1.0515,0.1064,0.6038,0.7344,-0.1092,-0.0383,0.0469,
0.103519,-0.0186,0.2780,1.0515,0.1064,0.6038,0.7344,1.1888,1.3476,0.0842,
0.121306,-0.0186,0.2780,1.0515,0.1064,0.6038,0.7344,1.2820,1.5707,0.0245,
0.140487,-0.1502,0.3183,1.0043,0.1064,0.6038,0.7344,1.2820,1.5707,0.0245,
0.142313,-0.1502,0.3183,1.0043,-0.7193,0.6495,0.3820,1.2820,1.5707,0.0245,
0.143685,-0.1502,0.3183,1.0043,-0.7193,0.6495,0.3820,1.2575,1.9058,-0.0128,
0.160121,-0.1502,0.3183,1.0043,-0.7193,0.6495,0.3820,1.2032,1.7481,-0.0373,
0.180287,-0.2841,0.2981,1.0229,-0.7193,0.6495,0.3820,1.2032,1.7481,-0.0373,
0.183092,-0.2841,0.2981,1.0229,-1.2537,0.3615,0.6823,1.2032,1.7481,-0.0373,
0.185396,-0.2841,0.2981,1.0229,-1.2537,0.3615,0.6823,1.1025,1.4525,-0.0389,
0.199691,-0.2841,0.2981,1.0229,-1.2537,0.3615,0.6823,1.2272,1.3816,-0.0101,
0.220287,-0.2509,0.3010,1.0178,-1.2537,0.3615,0.6823,1.2272,1.3816,-0.0101,
0.222094,-0.2509,0.3010,1.0178,-0.6144,0.3249,0.7072,1.2272,1.3816,-0.0101,
0.223719,-0.2509,0.3010,1.0178,-0.6144,0.3249,0.7072,1.6181,1.5793,0.0383,
0.240008,-0.2509,0.3010,1.0178,-0.6144,0.3249,0.7072,1.9207,1.8019,0.0218,
0.259444,-0.2648,0.3406,0.7537,-0.6144,0.3249,0.7072,1.9207,1.8019,0.0218,
0.261235,-0.2648,0.3406,0.7537,-0.3108,0.2412,-1.6341,1.9207,1.8019,0.0218,
0.262972,-0.2648,0.3406,0.7537,-0.3108,0.2412,-1.6341,1.9308,1.9361,-0.0485,
0.279327,-0.2648,0.3406,0.7537,-0.3108,0.2412,-1.6341,2.0155,2.3377,-0.1752,
0.299605,-0.4427,0.4187,0.7642,-0.3108,0.2412,-1.6341,2.0155,2.3377,-0.1752,
0.302135,-0.4427,0.4187,0.7642,-1.1015,0.5003,-1.0379,2.0155,2.3377,-0.1752,
0.304074,-0.4427,0.4187,0.7642,-1.1015,0.5003,-1.0379,2.2371,2.5955,-0.2786,
0.319744,-0.4427,0.4187,0.7642,-1.1015,0.5003,-1.0379,2.3494,2.7100,-0.2519,
0.340164,-0.5426,0.5394,0.5761,-1.1015,0.5003,-1.0379,2.3494,2.7100,-0.2519,
0.342136,-0.5426,0.5394,0.5761,-1.1710,0.9709,-2.1232,2.3494,2.7100,-0.2519,
0.343869,-0.5426,0.5394,0.5761,-1.1710,0.9709,-2.1232,2.2493,2.6600,-0.2535,
0.359515,-0.5426,0.5394,0.5761,-1.1710,0.9709,-2.1232,2.1897,2.6355,-0.2317,
0.379556,-0.6833,0.6159,0.5228,-1.1710,0.9709,-2.1232,2.1897,2.6355,-0.2317,
0.381672,-0.6833,0.6159,0.5228,-1.7186,1.1071,-1.7393,2.1897,2.6355,-0.2317,
0.383379,-0.6833,0.6159,0.5228,-1.7186,1.1071,-1.7393,2.2594,2.5625,-0.1422,
0.399306,-0.6833,0.6159,0.5228,-1.7186,1.1071,-1.7393,2.1662,2.2759,-0.0485,
0.419432,-0.6919,0.6655,0.2274,-1.7186,1.1071,-1.7393,2.1662,2.2759,-0.0485,
0.421431,-0.6919,0.6655,0.2274,-1.1531,1.0384,-3.6392,2.1662,2.2759,-0.0485,
0.423242,-0.6919,0.6655,0.2274,-1.1531,1.0384,-3.6392,1.8637,1.7609,0.0202,
0.439659,-0.6919,0.6655,0.2274,-1.1531,1.0384,-3.6392,1.4525,1.3135,0.0277,
0.459542,-0.5981,0.6716,0.0242,-1.1531,1.0384,-3.6392,1.4525,1.3135,0.0277,
0.461579,-0.5981,0.6716,0.0242,0.1000,0.7267,-4.8968,1.4525,1.3135,0.0277,
0.463226,-0.5981,0.6716,0.0242,0.1000,0.7267,-4.8968,0.7611,0.7553,-0.0948,
0.479183,-0.5981,0.6716,0.0242,0.1000,0.7267,-4.8968,0.6242,0.7563,-0.0037,
0.499289,-0.6144,0.6296,0.1454,0.1000,0.7267,-4.8968,0.6242,0.7563,-0.0037,
0.501609,-0.6144,0.6296,0.1454,0.1008,0.1894,-3.3633,0.6242,0.7563,-0.0037,
0.503590,-0.6144,0.6296,0.1454,0.1008,0.1894,-3.3633,0.7031,0.9348,0.1246,
0.519995,-0.6144,0.6296,0.1454,0.1008,0.1894,-3.3633,0.7744,1.0317,0.1262,
0.539186,-0.6437,0.6630,0.1566,0.1008,0.1894,-3.3633,0.7744,1.0317,0.1262,
0.541588,-0.6437,0.6630,0.1566,-0.0342,0.3469,-2.8203,0.7744,1.0317,0.1262,
0.543269,-0.6437,0.6630,0.1566,-0.0342,0.3469,-2.8203,0.9167,1.1984,0.1145,
0.559219,-0.6437,0.6630,0.1566,-0.0342,0.3469,-2.8203,0.7862,0.9593,0.0714,
0.579674,-0.6152,0.7034,0.1065,-0.0342,0.3469,-2.8203,0.7862,0.9593,0.0714,
0.581541,-0.6152,0.7034,0.1065,0.4030,0.5698,-2.8063,0.7862,0.9593,0.0714,
0.583233,-0.6152,0.7034,0.1065,0.4030,0.5698,-2.8063,0.5614,0.5955,-0.0485,
0.599957,-0.6152,0.7034,0.1065,0.4030,0.5698,-2.8063,0.7414,0.5183,0.1150,
0.619914,-0.5719,0.7337,0.2509,0.4030,0.5698,-2.8063,0.7414,0.5183,0.1150,
0.622427,-0.5719,0.7337,0.2509,0.8983,0.7478,-1.0597,0.7414,0.5183,0.1150,
0.624121,-0.5719,0.7337,0.2509,0.8983,0.7478,-1.0597,1.0946,0.8117,0.0746,
0.639688,-0.5719,0.7337,0.2509,0.8983,0.7478,-1.0597,1.1702,0.7436,0.0170,
0.659120,-0.7229,0.8492,0.1483,0.8983,0.7478,-1.0597,1.1702,0.7436,0.0170,
0.661337,-0.7229,0.8492,0.1483,-0.4991,1.6935,-1.5240,1.1702,0.7436,0.0170,
0.663210,-0.7229,0.8492,0.1483,-0.4991,1.6935,-1.5240,1.1217,0.4107,0.1103,
0.679187,-0.7229,0.8492,0.1483,-0.4991,1.6935,-1.5240,0.8384,0.1790,0.1294,
0.698770,-0.6599,0.8578,0.1207,-0.4991,1.6935,-1.5240,0.8384,0.1790,0.1294,
0.700670,-0.6599,0.8578,0.1207,0.1117,1.6186,-1.4297,0.8384,0.1790,0.1294,
0.702334,-0.6599,0.8578,0.1207,0.1117,1.6186,-1.4297,0.5294,0.1667,0.1491,
0.719082,-0.6599,0.8578,0.1207,0.1117,1.6186,-1.4297,0.8932,0.5230,0.2434,
0.739076,-0.7346,0.8690,0.2538,0.1117,1.6186,-1.4297,0.8932,0.5230,0.2434,
0.741644,-0.7346,0.8690,0.2538,-0.6412,1.6063,0.1607,0.8932,0.5230,0.2434,
0.743169,-0.7346,0.8690,0.2538,-0.6412,1.6063,0.1607,1.2048,0.4613,0.2115,
0.758911,-0.7346,0.8690,0.2538,-0.6412,1.6063,0.1607,1.0914,0.0011,0.1342,
0.780010,-0.6711,0.9973,0.1500,-0.6412,1.6063,0.1607,1.0914,0.0011,0.1342,
0.782585,-0.6711,0.9973,0.1500,-0.0465,2.7207,-0.4760,1.0914,0.0011,0.1342,
0.784780,-0.6711,0.9973,0.1500,-0.0465,2.7207,-0.4760,1.2128,0.2360,0.1864,
0.798962,-0.6711,0.9973,0.1500,-0.0465,2.7207,-0.4760,1.6852,0.8229,0.5039,
0.819083,-0.6391,1.0469,0.0227,-0.0465,2.7207,-0.4760,1.6852,0.8229,0.5039,
0.821129,-0.6391,1.0469,0.0227,0.2031,3.0197,-1.1730,1.6852,0.8229,0.5039,
0.822784,-0.6391,1.0469,0.0227,0.2031,3.0197,-1.1730,1.7683,2.2786,0.4932,
0.838599,-0.6391,1.0469,0.0227,0.2031,3.0197,-1.1730,1.8850,0.9486,1.3012,
0.858915,-0.5326,1.0767,0.0125,0.2031,3.0197,-1.1730,1.8850,0.9486,1.3012,
0.860838,-0.5326,1.0767,0.0125,1.0452,3.0194,-0.3225,1.8850,0.9486,1.3012,
0.862484,-0.5326,1.0767,0.0125,1.0452,3.0194,-0.3225,1.7273,-0.8075,1.5617,
0.879548,-0.5326,1.0767,0.0125,1.0452,3.0194,-0.3225,1.5084,-0.3190,1.3598,
0.899253,-0.5778,0.9723,0.1424,1.0452,3.0194,-0.3225,1.5084,-0.3190,1.3598,
0.901221,-0.5778,0.9723,0.1424,0.1448,1.6269,1.3134,1.5084,-0.3190,1.3598,
0.902772,-0.5778,0.9723,0.1424,0.1448,1.6269,1.3134,1.3385,-0.7942,1.4887,
0.919055,-0.5778,0.9723,0.1424,0.1448,1.6269,1.3134,1.3460,-1.2160,1.6623,
0.938337,-0.5900,0.7175,0.1036,0.1448,1.6269,1.3134,1.3460,-1.2160,1.6623,
0.940019,-0.5900,0.7175,0.1036,-0.4782,-1.2161,1.1269,1.3460,-1.2160,1.6623,
0.942105,-0.5900,0.7175,0.1036,-0.4782,-1.2161,1.1269,1.2538,-1.4083,1.7167,
0.958618,-0.5900,0.7175,0.1036,-0.4782,-1.2161,1.1269,1.1233,-1.8248,1.6996,
0.978549,-0.5341,0.5617,0.1011,-0.4782,-1.2161,1.1269,1.1233,-1.8248,1.6996,
0.980562,-0.5341,0.5617,0.1011,-0.4740,-3.0682,1.1603,1.1233,-1.8248,1.6996,
0.982256,-0.5341,0.5617,0.1011,-0.4740,-3.0682,1.1603,0.9832,-1.9627,1.5649,
0.999138,-0.5341,0.5617,0.1011,-0.4740,-3.0682,1.1603,0.8192,-1.9596,1.2852,
1.018679,-0.5509,0.5942,-0.0464,-0.4740,-3.0682,1.1603,0.8192,-1.9596,1.2852,
1.021024,-0.5509,0.5942,-0.0464,-1.1224,-3.0014,-0.3257,0.8192,-1.9596,1.2852,
1.022878,-0.5509,0.5942,-0.0464,-1.1224,-3.0014,-0.3257,0.4597,-2.0059,1.0381,
1.038497,-0.5509,0.5942,-0.0464,-1.1224,-3.0014,-0.3257,-0.0948,-2.1002,0.8613,
1.058589,-0.5072,0.5323,-0.1849,-1.1224,-3.0014,-0.3257,-0.0948,-2.1002,0.8613,
1.060709,-0.5072,0.5323,-0.1849,-1.0300,-3.7621,-1.9548,-0.0948,-2.1002,0.8613,
1.062604,-0.5072,0.5323,-0.1849,-1.0300,-3.7621,-1.9548,-0.7025,-1.9851,0.5864,
1.078784,-0.5072,0.5323,-0.1849,-1.0300,-3.7621,-1.9548,-0.9854,-2.4277,0.3292,
1.098859,-0.6452,0.6755,0.0450,-1.0300,-3.7621,-1.9548,-0.9854,-2.4277,0.3292,
1.101061,-0.6452,0.6755,0.0450,-2.5879,-2.4136,-0.3429,-0.9854,-2.4277,0.3292,
1.102939,-0.6452,0.6755,0.0450,-2.5879,-2.4136,-0.3429,-0.8996,-2.6887,-0.0181,
1.118956,-0.6452,0.6755,0.0450,-2.5879,-2.4136,-0.3429,-0.9108,-2.7910,-0.4357,
1.138071,-0.7854,0.7014,-0.0186,-2.5879,-2.4136,-0.3429,-0.9108,-2.7910,-0.4357,
1.140787,-0.7854,0.7014,-0.0186,-3.9687,-2.0719,-1.6797,-0.9108,-2.7910,-0.4357,
1.142894,-0.7854,0.7014,-0.0186,-3.9687,-2.0719,-1.6797,-1.0232,-2.5162,-0.8043,
1.158359,-0.7854,0.7014,-0.0186,-3.9687,-2.0719,-1.6797,-0.8549,-2.2440,-0.7979,
1.178640,-0.8986,0.8851,0.0520,-3.9687,-2.0719,-1.6797,-0.8549,-2.2440,-0.7979,
1.180816,-0.8986,0.8851,0.0520,-4.9538,-0.0765,-1.6712,-0.8549,-2.2440,-0.7979,
1.182758,-0.8986,0.8851,0.0520,-4.9538,-0.0765,-1.6712,-0.5870,-1.8493,-0.7638,
1.198092,-0.8986,0.8851,0.0520,-4.9538,-0.0765,-1.6712,-0.5923,-1.6586,-0.8341,
1.218531,-0.8067,0.8319,-0.0936,-4.9538,-0.0765,-1.6712,-0.5923,-1.6586,-0.8341,
1.220582,-0.8067,0.8319,-0.0936,-3.9465,-0.4167,-3.5755,-0.5923,-1.6586,-0.8341,
1.222487,-0.8067,0.8319,-0.0936,-3.9465,-0.4167,-3.5755,-0.9044,-1.3816,-0.9859,
1.238910,-0.8067,0.8319,-0.0936,-3.9465,-0.4167,-3.5755,-1.1377,-0.9145,-1.2282,
1.258440,-0.7517,0.8575,-0.0296,-3.9465,-0.4167,-3.5755,-1.1377,-0.9145,-1.2282,
1.260669,-0.7517,0.8575,-0.0296,-3.1683,0.1345,-3.4775,-1.1377,-0.9145,-1.2282,
1.262313,-0.7517,0.8575,-0.0296,-3.1683,0.1345,-3.4775,-1.2144,-0.6264,-1.4983,
1.279998,-0.7517,0.8575,-0.0296,-3.1683,0.1345,-3.4775,-1.2549,-0.4080,-1.7145,
1.297946,-0.6557,0.8380,0.0017,-3.1683,0.1345,-3.4775,-1.2549,-0.4080,-1.7145,
1.299819,-0.6557,0.8380,0.0017,-1.7801,0.3959,-3.6564,-1.2549,-0.4080,-1.7145,
1.301736,-0.6557,0.8380,0.0017,-1.7801,0.3959,-3.6564,-1.0551,-0.3382,-1.7300,
1.317756,-0.6557,0.8380,0.0017,-1.7801,0.3959,-3.6564,-0.6157,-0.2386,-1.5015,
1.338654,-0.4547,0.6098,-0.1727,-1.7801,0.3959,-3.6564,-0.6157,-0.2386,-1.5015,
1.342446,-0.4547,0.6098,-0.1727,0.6557,-1.4104,-5.6281,-0.6157,-0.2386,-1.5015,
1.343924,-0.4547,0.6098,-0.1727,0.6557,-1.4104,-5.6281,-0.3478,0.6024,-1.3795,
1.358013,-0.4547,0.6098,-0.1727,0.6557,-1.4104,-5.6281,-0.0815,0.7121,-1.1537,
1.378776,-0.4813,0.5834,0.0537,0.6557,-1.4104,-5.6281,-0.0815,0.7121,-1.1537,
1.380836,-0.4813,0.5834,0.0537,0.8632,-1.3650,-3.3302,-0.0815,0.7121,-1.1537,
1.382692,-0.4813,0.5834,0.0537,0.8632,-1.3650,-3.3302,0.7265,0.4677,-1.0930,
1.397977,-0.4813,0.5834,0.0537,0.8632,-1.3650,-3.3302,1.6128,0.1427,-0.7888,
1.417925,-0.3393,0.4999,0.0210,0.8632,-1.3650,-3.3302,1.6128,0.1427,-0.7888,
1.419789,-0.3393,0.4999,0.0210,2.5642,-2.1384,-3.2528,1.6128,0.1427,-0.7888,
1.421602,-0.3393,0.4999,0.0210,2.5642,-2.1384,-3.2528,1.9942,0.4602,-0.5539,
1.437741,-0.3393,0.4999,0.0210,2.5642,-2.1384,-3.2528,1.9185,0.9108,-0.3585,
1.457774,-0.5179,0.5079,0.1021,2.5642,-2.1384,-3.2528,1.9185,0.9108,-0.3585,
1.459760,-0.5179,0.5079,0.1021,1.0270,-2.1937,-1.7381,1.9185,0.9108,-0.3585,
1.461572,-0.5179,0.5079,0.1021,1.0270,-2.1937,-1.7381,1.4674,0.6551,-0.0021,
1.478329,-0.5179,0.5079,0.1021,1.0270,-2.1937,-1.7381,1.0951,0.0085,0.2684,
1.497363,-0.4525,0.7300,0.2030,1.0270,-2.1937,-1.7381,1.0951,0.0085,0.2684,
1.498139,-0.4525,0.7300,0.2030,1.6641,-0.1777,-0.2976,1.0951,0.0085,0.2684,
1.498756,-0.4525,0.7300,0.2030,1.6641,-0.1777,-0.2976,1.1521,0.0229,0.2407,
1.517626,-0.4525,0.7300,0.2030,1.6641,-0.1777,-0.2976,1.8701,0.4549,0.2546,
1.538195,-0.6924,0.5441,-0.0985,1.6641,-0.1777,-0.2976,1.8701,0.4549,0.2546,
1.539461,-0.6924,0.5441,-0.0985,-0.7417,-2.1831,-2.7457,1.8701,0.4549,0.2546,
1.540760,-0.6924,0.5441,-0.0985,-0.7417,-2.1831,-2.7457,2.4954,0.2722,0.4762,
1.558264,-0.6924,0.5441,-0.0985,-0.7417,-2.1831,-2.7457,2.5945,-0.3952,0.9752,
1.578106,-0.6054,0.8905,-0.0738,-0.7417,-2.1831,-2.7457,2.5945,-0.3952,0.9752,
1.580147,-0.6054,0.8905,-0.0738,-0.1089,0.9008,-1.7256,2.5945,-0.3952,0.9752,
1.581928,-0.6054,0.8905,-0.0738,-0.1089,0.9008,-1.7256,2.5209,-1.1611,1.4338,
1.598276,-0.6054,0.8905,-0.0738,-0.1089,0.9008,-1.7256,2.3681,-1.6805,1.9143,
1.617338,-0.5695,1.0258,-0.0655,-0.1089,0.9008,-1.7256,2.3681,-1.6805,1.9143,
1.619694,-0.5695,1.0258,-0.0655,-0.3294,1.7867,-1.1476,2.3681,-1.6805,1.9143,
1.621298,-0.5695,1.0258,-0.0655,-0.3294,1.7867,-1.1476,2.3010,-1.4040,2.2408,
1.637871,-0.5695,1.0258,-0.0655,-0.3294,1.7867,-1.1476,2.1918,-0.8740,2.1588,
1.658090,-0.6330,0.9345,-0.2817,-0.3294,1.7867,-1.1476,2.1918,-0.8740,2.1588,
1.662004,-0.6330,0.9345,-0.2817,-1.7030,0.4449,-2.7181,2.1918,-0.8740,2.1588,
1.663671,-0.6330,0.9345,-0.2817,-1.7030,0.4449,-2.7181,1.8770,-0.6583,2.0709,
1.677390,-0.6330,0.9345,-0.2817,-1.7030,0.4449,-2.7181,1.2245,-1.0509,2.3489,
1.697703,-0.4275,0.9210,-0.5736,-1.7030,0.4449,-2.7181,1.2245,-1.0509,2.3489,
1.699722,-0.4275,0.9210,-0.5736,-0.4616,-0.0326,-5.1640,1.2245,-1.0509,2.3489,
1.701731,-0.4275,0.9210,-0.5736,-0.4616,-0.0326,-5.1640,0.5198,-1.3252,2.6110,
1.718042,-0.4275,0.9210,-0.5736,-0.4616,-0.0326,-5.1640,0.1715,-0.1039,2.3713,
1.737872,-0.3860,0.9413,-0.1647,-0.4616,-0.0326,-5.1640,0.1715,-0.1039,2.3713,
1.740637,-0.3860,0.9413,-0.1647,-0.9365,-0.1456,-1.1004,0.1715,-0.1039,2.3713,
1.742381,-0.3860,0.9413,-0.1647,-0.9365,-0.1456,-1.1004,-0.1566,0.8863,2.2237,
1.758268,-0.3860,0.9413,-0.1647,-0.9365,-0.1456,-1.1004,-0.7233,0.7324,2.4672,
1.777356,-0.1932,0.9841,-0.1261,-0.9365,-0.1456,-1.1004,-0.7233,0.7324,2.4672,
1.779229,-0.1932,0.9841,-0.1261,0.0884,0.0510,-0.7675,-0.7233,0.7324,2.4672,
1.780970,-0.1932,0.9841,-0.1261,0.0884,0.0510,-0.7675,-1.3550,-0.1156,2.2530,
1.796952,-0.1932,0.9841,-0.1261,0.0884,0.0510,-0.7675,-1.2788,0.0229,1.9042,
1.818064,-0.0100,1.0666,0.1353,0.0884,0.0510,-0.7675,-1.2788,0.0229,1.9042,
1.819755,-0.0100,1.0666,0.1353,1.1070,0.7208,1.3010,-1.2788,0.0229,1.9042,
1.821371,-0.0100,1.0666,0.1353,1.1070,0.7208,1.3010,-0.8938,0.4517,1.5872,
1.837738,-0.0100,1.0666,0.1353,1.1070,0.7208,1.3010,-0.5305,0.9076,1.7998,
1.857852,0.1390,1.1622,-0.1336,1.1070,0.7208,1.3010,-0.5305,0.9076,1.7998,
1.859476,0.1390,1.1622,-0.1336,1.9118,1.6017,-1.5782,-0.5305,0.9076,1.7998,
1.861222,0.1390,1.1622,-0.1336,1.9118,1.6017,-1.5782,-0.1257,1.5931,1.8839,
1.877587,0.1390,1.1622,-0.1336,1.9118,1.6017,-1.5782,0.1774,1.5116,1.5100,
1.897675,-0.3772,1.5958,-0.2592,1.9118,1.6017,-1.5782,0.1774,1.5116,1.5100,
1.900971,-0.3772,1.5958,-0.2592,-3.7941,5.8358,-2.7856,0.1774,1.5116,1.5100,
1.903268,-0.3772,1.5958,-0.2592,-3.7941,5.8358,-2.7856,0.1726,0.8836,0.8762,
1.917756,-0.3772,1.5958,-0.2592,-3.7941,5.8358,-2.7856,0.1896,0.5225,-0.1310,
1.937132,-0.3367,1.0872,-0.1134,-3.7941,5.8358,-2.7856,0.1896,0.5225,-0.1310,
1.940005,-0.3367,1.0872,-0.1134,-3.5365,0.8521,-1.2911,0.1896,0.5225,-0.1310,
1.942162,-0.3367,1.0872,-0.1134,-3.5365,0.8521,-1.2911,0.3941,0.1694,-0.5289,
1.956867,-0.3367,1.0872,-0.1134,-3.5365,0.8521,-1.2911,0.0874,0.2338,-0.7393,
1.977225,-0.1549,0.9687,-0.1180,-3.5365,0.8521,-1.2911,0.0874,0.2338,-0.7393,
1.979128,-0.1549,0.9687,-0.1180,-1.5060,-0.3133,-1.2432,0.0874,0.2338,-0.7393,
1.981107,-0.1549,0.9687,-0.1180,-1.5060,-0.3133,-1.2432,-0.1470,0.3728,-0.5459,
1.996682,-0.1549,0.9687,-0.1180,-1.5060,-0.3133,-1.2432,0.0879,0.5880,0.2850,
2.017028,-0.0173,0.7095,-0.2551,-1.5060,-0.3133,-1.2432,0.0879,0.5880,0.2850,
2.019242,-0.0173,0.7095,-0.2551,-0.0745,-2.8533,-2.5481,0.0879,0.5880,0.2850,
2.021125,-0.0173,0.7095,-0.2551,-0.0745,-2.8533,-2.5481,0.2866,0.8863,0.8250,
2.037078,-0.0173,0.7095,-0.2551,-0.0745,-2.8533,-2.5481,-0.1859,1.7113,0.3228,
2.057345,0.2099,0.7471,-0.1566,-0.0745,-2.8533,-2.5481,-0.1859,1.7113,0.3228,
2.059304,0.2099,0.7471,-0.1566,1.9282,-2.4843,-1.5667,-0.1859,1.7113,0.3228,
2.061190,0.2099,0.7471,-0.1566,1.9282,-2.4843,-1.5667,-0.3723,1.0093,-0.2770,
2.077939,0.2099,0.7471,-0.1566,1.9282,-2.4843,-1.5667,0.4724,1.7295,0.7782,
2.096945,-0.0789,0.6975,-0.1630,1.9282,-2.4843,-1.5667,0.4724,1.7295,0.7782,
2.098953,-0.0789,0.6975,-0.1630,-0.9965,-2.9686,-1.6163,0.4724,1.7295,0.7782,
2.100993,-0.0789,0.6975,-0.1630,-0.9965,-2.9686,-1.6163,0.5401,0.8746,1.0967,
2.117642,-0.0789,0.6975,-0.1630,-0.9965,-2.9686,-1.6163,0.7137,1.3550,1.2948,
2.137148,-0.0156,0.8895,-0.4082,-0.9965,-2.9686,-1.6163,0.7137,1.3550,1.2948,
2.140776,-0.0156,0.8895,-0.4082,-0.8486,-1.0625,-3.7959,0.7137,1.3550,1.2948,
2.142507,-0.0156,0.8895,-0.4082,-0.8486,-1.0625,-3.7959,0.8618,2.0363,1.5319,
2.157485,-0.0156,0.8895,-0.4082,-0.8486,-1.0625,-3.7959,0.9380,1.6181,1.7358,
2.177646,-0.0469,1.1282,-0.4664,-0.8486,-1.0625,-3.7959,0.9380,1.6181,1.7358,
2.179705,-0.0469,1.1282,-0.4664,-1.7801,1.3545,-4.0225,0.9380,1.6181,1.7358,
2.181516,-0.0469,1.1282,-0.4664,-1.7801,1.3545,-4.0225,0.8373,0.6487,1.7444,
2.197748,-0.0469,1.1282,-0.4664,-1.7801,1.3545,-4.0225,0.5380,0.4906,1.1127,
2.216643,0.0457,1.2242,-0.3511,-1.7801,1.3545,-4.0225,0.5380,0.4906,1.1127,
2.218557,0.0457,1.2242,-0.3511,-1.4385,2.4052,-2.6642,0.5380,0.4906,1.1127,
2.220373,0.0457,1.2242,-0.3511,-1.4385,2.4052,-2.6642,0.1587,0.3766,0.2019,
2.236976,0.0457,1.2242,-0.3511,-1.4385,2.4052,-2.6642,-0.1055,-0.1694,-0.2615,
2.256592,0.3156,1.2074,-0.2424,-1.4385,2.4052,-2.6642,-0.1055,-0.1694,-0.2615,
2.258497,0.3156,1.2074,-0.2424,1.2154,2.2385,-1.5965,-0.1055,-0.1694,-0.2615,
2.260187,0.3156,1.2074,-0.2424,1.2154,2.2385,-1.5965,-0.1758,-0.6402,-0.7036,
2.276390,0.3156,1.2074,-0.2424,1.2154,2.2385,-1.5965,-0.3643,-0.7958,-1.2123,
2.296524,0.3068,1.0063,-0.2152,1.2154,2.2385,-1.5965,-0.3643,-0.7958,-1.2123,
2.298348,0.3068,1.0063,-0.2152,1.5195,0.1956,-1.3860,-0.3643,-0.7958,-1.2123,
2.299980,0.3068,1.0063,-0.2152,1.5195,0.1956,-1.3860,-0.5689,-0.9625,-1.7699,
2.316287,0.3068,1.0063,-0.2152,1.5195,0.1956,-1.3860,-0.8005,-0.8549,-1.4834,
2.336213,-0.1266,1.0964,-0.5292,1.5195,0.1956,-1.3860,-0.8005,-0.8549,-1.4834,
2.337648,-0.1266,1.0964,-0.5292,-2.0743,0.9868,-4.6862,-0.8005,-0.8549,-1.4834,
2.338661,-0.1266,1.0964,-0.5292,-2.0743,0.9868,-4.6862,-0.9465,-0.8842,-0.4208,
2.356920,-0.1266,1.0964,-0.5292,-2.0743,0.9868,-4.6862,-0.7808,-0.8666,0.1523,
2.375948,0.0007,1.1600,-0.0515,-2.0743,0.9868,-4.6862,-0.7808,-0.8666,0.1523,
2.377606,0.0007,1.1600,-0.0515,-0.7627,1.5931,-0.3156,-0.7808,-0.8666,0.1523,
2.378735,0.0007,1.1600,-0.0515,-0.7627,1.5931,-0.3156,-0.7388,-0.8874,0.0826,
2.396586,0.0007,1.1600,-0.0515,-0.7627,1.5931,-0.3156,-0.7446,-0.7558,0.0011,
2.416678,-0.0073,0.9714,0.1415,-0.7627,1.5931,-0.3156,-0.7446,-0.7558,0.0011,
2.418590,-0.0073,0.9714,0.1415,-0.8454,-0.2566,1.3252,-0.7446,-0.7558,0.0011,
2.420488,-0.0073,0.9714,0.1415,-0.8454,-0.2566,1.3252,-0.6759,-0.2823,0.1071,
2.436934,-0.0073,0.9714,0.1415,-0.8454,-0.2566,1.3252,-0.3707,-0.2349,-0.0826,
2.456472,0.1046,0.7820,0.1710,-0.8454,-0.2566,1.3252,-0.3707,-0.2349,-0.0826,
2.458149,0.1046,0.7820,0.1710,0.2466,-2.1085,1.4181,-0.3707,-0.2349,-0.0826,
2.459852,0.1046,0.7820,0.1710,0.2466,-2.1085,1.4181,-0.0607,-0.1646,-0.2040,
2.476753,0.1046,0.7820,0.1710,0.2466,-2.1085,1.4181,0.2940,-0.1800,-0.3031,
2.496748,0.0740,1.0031,-0.0344,0.2466,-2.1085,1.4181,0.2940,-0.1800,-0.3031,
2.499073,0.0740,1.0031,-0.0344,0.0452,0.0497,-0.5421,0.2940,-0.1800,-0.3031,
2.500958,0.0740,1.0031,-0.0344,0.0452,0.0497,-0.5421,0.6647,-0.1108,-0.2013,
2.516325,0.0740,1.0031,-0.0344,0.0452,0.0497,-0.5421,0.7707,0.4634,-0.0538,
2.536159,0.1214,1.0745,-0.3508,0.0452,0.0497,-0.5421,0.7707,0.4634,-0.0538,
2.538342,0.1214,1.0745,-0.3508,0.5528,0.7444,-3.3266,0.7707,0.4634,-0.0538,
2.539815,0.1214,1.0745,-0.3508,0.5528,0.7444,-3.3266,0.6871,0.7643,-0.0096,
2.556261,0.1214,1.0745,-0.3508,0.5528,0.7444,-3.3266,0.4778,0.1699,0.0208,
2.576434,0.0674,0.9645,-0.1605,0.5528,0.7444,-3.3266,0.4778,0.1699,0.0208,
2.579170,0.0674,0.9645,-0.1605,0.0128,-0.3259,-1.2017,0.4778,0.1699,0.0208,
2.581545,0.0674,0.9645,-0.1605,0.0128,-0.3259,-1.2017,0.4288,-0.2658,0.0655,
2.596021,0.0674,0.9645,-0.1605,0.0128,-0.3259,-1.2017,0.5657,-0.1672,0.1023,
2.617306,0.0540,0.8404,-0.0997,0.0128,-0.3259,-1.2017,0.5657,-0.1672,0.1023,
2.619190,0.0540,0.8404,-0.0997,-0.1483,-1.5298,-0.3936,0.5657,-0.1672,0.1023,
2.621310,0.0540,0.8404,-0.0997,-0.1483,-1.5298,-0.3936,0.6951,-0.0293,0.1571,
2.636866,0.0540,0.8404,-0.0997,-0.1483,-1.5298,-0.3936,0.6914,-0.0170,0.2019,
2.656115,0.0657,0.7952,-0.1857,-0.1483,-1.5298,-0.3936,0.6914,-0.0170,0.2019,
2.658368,0.0657,0.7952,-0.1857,-0.1026,-1.9477,-0.9658,0.6914,-0.0170,0.2019,
2.660199,0.0657,0.7952,-0.1857,-0.1026,-1.9477,-0.9658,0.5752,-0.0224,0.2125,
2.675998,0.0657,0.7952,-0.1857,-0.1026,-1.9477,-0.9658,0.4362,0.0048,0.1800,
2.696529,0.0667,0.8087,-0.2951,-0.1026,-1.9477,-0.9658,0.4362,0.0048,0.1800,
2.699228,0.0667,0.8087,-0.2951,-0.1690,-1.7906,-1.8416,0.4362,0.0048,0.1800,
2.701834,0.0667,0.8087,-0.2951,-0.1690,-1.7906,-1.8416,0.2381,-0.0724,0.0815,
2.716378,0.0667,0.8087,-0.2951,-0.1690,-1.7906,-1.8416,-0.0618,-0.3558,-0.0511,
2.736274,0.0017,0.6662,-0.3701,-0.1690,-1.7906,-1.8416,-0.0618,-0.3558,-0.0511,
2.738749,0.0017,0.6662,-0.3701,-0.8024,-3.1822,-2.5353,-0.0618,-0.3558,-0.0511,
2.740924,0.0017,0.6662,-0.3701,-0.8024,-3.1822,-2.5353,-0.3036,-0.5758,-0.1641,
2.756214,0.0017,0.6662,-0.3701,-0.8024,-3.1822,-2.5353,-0.4623,-0.6077,-0.3052,
2.776637,-0.0999,0.7290,-0.4070,-0.8024,-3.1822,-2.5353,-0.4623,-0.6077,-0.3052,
2.778716,-0.0999,0.7290,-0.4070,-1.6828,-2.5897,-3.0274,-0.4623,-0.6077,-0.3052,
2.780711,-0.0999,0.7290,-0.4070,-1.6828,-2.5897,-3.0274,-0.5092,-0.3547,-0.4708,
2.796894,-0.0999,0.7290,-0.4070,-1.6828,-2.5897,-3.0274,-0.5550,-0.2045,-0.6780,
2.816718,-0.1549,0.8101,-0.2421,-1.6828,-2.5897,-3.0274,-0.5550,-0.2045,-0.6780,
2.819436,-0.1549,0.8101,-0.2421,-1.9881,-1.8266,-1.6116,-0.5550,-0.2045,-0.6780,
2.821657,-0.1549,0.8101,-0.2421,-1.9881,-1.8266,-1.6116,-0.5614,-0.1955,-0.8229,
2.836000,-0.1549,0.8101,-0.2421,-1.9881,-1.8266,-1.6116,-0.4730,0.0165,-0.7936,
2.856604,-0.1153,0.8355,-0.1270,-1.9881,-1.8266,-1.6116,-0.4730,0.0165,-0.7936,
2.858722,-0.1153,0.8355,-0.1270,-1.2820,-1.6013,-0.6845,-0.4730,0.0165,-0.7936,
2.860719,-0.1153,0.8355,-0.1270,-1.2820,-1.6013,-0.6845,-0.2599,0.4096,-0.7633,
2.875880,-0.1153,0.8355,-0.1270,-1.2820,-1.6013,-0.6845,-0.0181,0.6780,-0.7425,
2.895776,-0.0938,0.8021,-0.2294,-1.2820,-1.6013,-0.6845,-0.0181,0.6780,-0.7425,
2.899138,-0.0938,0.8021,-0.2294,-0.7883,-1.9325,-1.7418,-0.0181,0.6780,-0.7425,
2.901696,-0.0938,0.8021,-0.2294,-0.7883,-1.9325,-1.7418,0.0485,0.6509,-0.7004,
2.915738,-0.0938,0.8021,-0.2294,-0.7883,-1.9325,-1.7418,-0.0453,0.5571,-0.6940,
2.936269,-0.0682,0.7759,-0.2167,-0.7883,-1.9325,-1.7418,-0.0453,0.5571,-0.6940,
2.938351,-0.0682,0.7759,-0.2167,-0.2766,-2.1814,-1.6105,-0.0453,0.5571,-0.6940,
2.940343,-0.0682,0.7759,-0.2167,-0.2766,-2.1814,-1.6105,-0.1481,0.5342,-0.6605,
2.956434,-0.0682,0.7759,-0.2167,-0.2766,-2.1814,-1.6105,-0.1582,0.5380,-0.6040,
2.976116,-0.0428,0.7498,-0.1116,-0.2766,-2.1814,-1.6105,-0.1582,0.5380,-0.6040,
2.979001,-0.0428,0.7498,-0.1116,0.2089,-2.4277,-0.6299,-0.1582,0.5380,-0.6040,
2.981018,-0.0428,0.7498,-0.1116,0.2089,-2.4277,-0.6299,-0.0730,0.5001,-0.5763,
2.995306,-0.0428,0.7498,-0.1116,0.2089,-2.4277,-0.6299,-0.0229,0.4394,-0.5657,
3.016474,0.0042,0.7007,-0.1561,0.2089,-2.4277,-0.6299,-0.0229,0.4394,-0.5657,
3.018569,0.0042,0.7007,-0.1561,0.8826,-2.8931,-1.0706,-0.0229,0.4394,-0.5657,
3.020358,0.0042,0.7007,-0.1561,0.8826,-2.8931,-1.0706,-0.0101,0.4080,-0.5108,
3.036535,0.0042,0.7007,-0.1561,0.8826,-2.8931,-1.0706,-0.0352,0.3004,-0.4479,
3.055557,0.0476,0.7285,-0.1200,0.8826,-2.8931,-1.0706,-0.0352,0.3004,-0.4479,
3.058719,0.0476,0.7285,-0.1200,1.4890,-2.6027,-0.7119,-0.0352,0.3004,-0.4479,
3.060693,0.0476,0.7285,-0.1200,1.4890,-2.6027,-0.7119,-0.0607,0.1715,-0.3776,
3.075403,0.0476,0.7285,-0.1200,1.4890,-2.6027,-0.7119,-0.1582,0.1401,-0.3020,
3.095728,-0.0203,1.2785,0.0081,1.4890,-2.6027,-0.7119,-0.1582,0.1401,-0.3020,
3.097793,-0.0203,1.2785,0.0081,0.9224,2.7964,0.5179,-0.1582,0.1401,-0.3020,
3.099353,-0.0203,1.2785,0.0081,0.9224,2.7964,0.5179,-0.3185,0.1364,-0.1917,
3.115337,-0.0203,1.2785,0.0081,0.9224,2.7964,0.5179,-0.6701,0.0357,-0.0240,
3.135127,-0.1622,2.3942,-0.1029,0.9224,2.7964,0.5179,-0.6701,0.0357,-0.0240,
3.137098,-0.1622,2.3942,-0.1029,-0.4281,13.7288,-0.7573,-0.6701,0.0357,-0.0240,
3.138856,-0.1622,2.3942,-0.1029,-0.4281,13.7288,-0.7573,-1.0227,0.3601,0.1886,
3.155792,-0.1622,2.3942,-0.1029,-0.4281,13.7288,-0.7573,-0.2407,2.7580,-0.1688,
3.175414,-0.5558,1.5120,-0.1739,-0.4281,13.7288,-0.7573,-0.2407,2.7580,-0.1688,
3.178499,-0.5558,1.5120,-0.1739,-4.2938,5.0794,-1.6290,-0.2407,2.7580,-0.1688,
3.180504,-0.5558,1.5120,-0.1739,-4.2938,5.0794,-1.6290,0.0943,3.2469,-0.3649,
3.196249,-0.5558,1.5120,-0.1739,-4.2938,5.0794,-1.6290,-0.2839,1.2714,-0.3995,
3.214987,-0.4874,1.0061,-0.2814,-4.2938,5.0794,-1.6290,-0.2839,1.2714,-0.3995,
3.216707,-0.4874,1.0061,-0.2814,-3.4870,0.1389,-2.6105,-0.2839,1.2714,-0.3995,
3.217870,-0.4874,1.0061,-0.2814,-3.4870,0.1389,-2.6105,-0.3675,-0.1033,-0.4922,
3.235525,-0.4874,1.0061,-0.2814,-3.4870,0.1389,-2.6105,-0.1289,0.0858,-0.1955,
3.255255,-0.0889,1.2391,-0.2404,-3.4870,0.1389,-2.6105,-0.1289,0.0858,-0.1955,
3.257944,-0.0889,1.2391,-0.2404,0.5515,2.4407,-2.3050,-0.1289,0.0858,-0.1955,
3.259939,-0.0889,1.2391,-0.2404,0.5515,2.4407,-2.3050,-0.0975,-0.0815,0.0069,
3.275149,-0.0889,1.2391,-0.2404,0.5515,2.4407,-2.3050,-0.1662,-0.6216,0.0559,
3.295657,-0.0738,0.8326,-0.0264,0.5515,2.4407,-2.3050,-0.1662,-0.6216,0.0559,
3.297542,-0.0738,0.8326,-0.0264,0.6879,-1.5452,-0.2786,-0.1662,-0.6216,0.0559,
3.299175,-0.0738,0.8326,-0.0264,0.6879,-1.5452,-0.2786,-0.1076,-0.5433,0.0250,
3.315299,-0.0738,0.8326,-0.0264,0.6879,-1.5452,-0.2786,-0.0836,-0.1204,-0.0101,
3.335652,-0.1898,0.7307,-0.0183,0.6879,-1.5452,-0.2786,-0.0836,-0.1204,-0.0101,
3.338412,-0.1898,0.7307,-0.0183,-0.4427,-2.5424,-0.2345,-0.0836,-0.1204,-0.0101,
3.340522,-0.1898,0.7307,-0.0183,-0.4427,-2.5424,-0.2345,-0.0533,0.1401,0.0154,
3.355506,-0.1898,0.7307,-0.0183,-0.4427,-2.5424,-0.2345,0.0341,0.0660,0.0815,
3.375698,-0.2494,0.7070,-0.1200,-0.4427,-2.5424,-0.2345,0.0341,0.0660,0.0815,
3.378064,-0.2494,0.7070,-0.1200,-1.0454,-2.7774,-1.2284,0.0341,0.0660,0.0815,
3.379908,-0.2494,0.7070,-0.1200,-1.0454,-2.7774,-1.2284,0.1214,-0.0213,0.1198,
3.395872,-0.2494,0.7070,-0.1200,-1.0454,-2.7774,-1.2284,0.1917,-0.0394,0.2067,
3.415452,-0.2946,0.7691,-0.2883,-1.0454,-2.7774,-1.2284,0.1917,-0.0394,0.2067,
3.417688,-0.2946,0.7691,-0.2883,-1.5517,-2.1783,-2.8189,0.1917,-0.0394,0.2067,
3.419555,-0.2946,0.7691,-0.2883,-1.5517,-2.1783,-2.8189,0.2759,-0.0346,0.2828,
3.435470,-0.2946,0.7691,-0.2883,-1.5517,-2.1783,-2.8189,0.3473,-0.1475,0.3143,
3.455249,-0.1803,0.7402,-0.0384,-1.5517,-2.1783,-2.8189,0.3473,-0.1475,0.3143,
3.457835,-0.1803,0.7402,-0.0384,-0.5469,-2.4753,-0.2532,0.3473,-0.1475,0.3143,
3.459730,-0.1803,0.7402,-0.0384,-0.5469,-2.4753,-0.2532,0.3670,-0.1337,0.3020,
3.475528,-0.1803,0.7402,-0.0384,-0.5469,-2.4753,-0.2532,0.3867,0.0218,0.2216,
3.495829,-0.1673,0.6955,-0.0093,-0.5469,-2.4753,-0.2532,0.3867,0.0218,0.2216,
3.499341,-0.1673,0.6955,-0.0093,-0.5215,-2.9227,0.1756,0.3867,0.0218,0.2216,
3.501784,-0.1673,0.6955,-0.0093,-0.5215,-2.9227,0.1756,0.3846,0.3020,0.1502,
3.515559,-0.1673,0.6955,-0.0093,-0.5215,-2.9227,0.1756,0.2903,0.5294,0.1342,
3.535735,-0.2138,0.6823,-0.1024,-0.5215,-2.9227,0.1756,0.2903,0.5294,0.1342,
3.538985,-0.2138,0.6823,-0.1024,-1.0376,-3.0536,-0.5873,0.2903,0.5294,0.1342,
3.541487,-0.2138,0.6823,-0.1024,-1.0376,-3.0536,-0.5873,0.1555,0.6333,0.1039,
3.554943,-0.2138,0.6823,-0.1024,-1.0376,-3.0536,-0.5873,0.0565,0.7526,0.1044,
3.574415,-0.2773,0.6161,-0.1703,-1.0376,-3.0536,-0.5873,0.0565,0.7526,0.1044,
3.576617,-0.2773,0.6161,-0.1703,-1.7132,-3.7048,-1.1831,0.0565,0.7526,0.1044,
3.577949,-0.2773,0.6161,-0.1703,-1.7132,-3.7048,-1.1831,-0.0059,0.9289,0.0991,
3.595677,-0.2773,0.6161,-0.1703,-1.7132,-3.7048,-1.1831,0.0075,1.0056,0.1449,
3.615138,-0.1903,0.7991,0.0584,-1.7132,-3.7048,-1.1831,0.0075,1.0056,0.1449,
3.617504,-0.1903,0.7991,0.0584,-0.9278,-1.9163,1.0957,0.0075,1.0056,0.1449,
3.619278,-0.1903,0.7991,0.0584,-0.9278,-1.9163,1.0957,0.1768,1.0104,0.1774,
3.634413,-0.1903,0.7991,0.0584,-0.9278,-1.9163,1.0957,0.4980,0.9555,0.1475,
3.654262,-0.0669,1.2714,0.1363,-0.9278,-1.9163,1.0957,0.4980,0.9555,0.1475,
3.655980,-0.0669,1.2714,0.1363,0.2149,2.7138,1.9961,0.4980,0.9555,0.1475,
3.657258,-0.0669,1.2714,0.1363,0.2149,2.7138,1.9961,0.8437,0.8767,0.1779,
3.674210,-0.0669,1.2714,0.1363,0.2149,2.7138,1.9961,1.3310,1.2975,0.2269,
3.695572,-0.0191,1.6581,-0.2651,0.2149,2.7138,1.9961,1.3310,1.2975,0.2269,
3.697505,-0.0191,1.6581,-0.2651,0.5670,6.5359,-1.4797,1.3310,1.2975,0.2269,
3.699151,-0.0191,1.6581,-0.2651,0.5670,6.5359,-1.4797,1.7556,2.2536,0.3526,
3.714759,-0.0191,1.6581,-0.2651,0.5670,6.5359,-1.4797,1.4887,2.7883,0.4043,
3.734147,0.1683,1.6442,-0.6999,0.5670,6.5359,-1.4797,1.4887,2.7883,0.4043,
3.735654,0.1683,1.6442,-0.6999,2.1067,6.4849,-5.0533,1.4887,2.7883,0.4043,
3.736733,0.1683,1.6442,-0.6999,2.1067,6.4849,-5.0533,1.1782,3.1218,0.4165,
3.754116,0.1683,1.6442,-0.6999,2.1067,6.4849,-5.0533,0.9119,2.3633,0.3457,
3.774067,0.1549,0.9951,-0.6276,2.1067,6.4849,-5.0533,0.9119,2.3633,0.3457,
3.775733,0.1549,0.9951,-0.6276,1.6074,0.2039,-3.9138,0.9119,2.3633,0.3457,
3.776811,0.1549,0.9951,-0.6276,1.6074,0.2039,-3.9138,0.5422,0.6487,-0.0399,
3.794635,0.1549,0.9951,-0.6276,1.6074,0.2039,-3.9138,0.2450,-0.0687,-0.2040,
3.814198,-0.0139,1.1006,-0.5402,1.6074,0.2039,-3.9138,0.2450,-0.0687,-0.2040,
3.815932,-0.0139,1.1006,-0.5402,-0.0271,1.2750,-2.9059,0.2450,-0.0687,-0.2040,
3.816987,-0.0139,1.1006,-0.5402,-0.0271,1.2750,-2.9059,-0.1156,0.0911,-0.3260,
3.833961,-0.0139,1.1006,-0.5402,-0.0271,1.2750,-2.9059,-0.3755,0.3036,-0.4474,
3.855190,0.0476,0.8920,-0.4055,-0.0271,1.2750,-2.9059,-0.3755,0.3036,-0.4474,
3.858138,0.0476,0.8920,-0.4055,0.7048,-0.7899,-1.6786,-0.3755,0.3036,-0.4474,
3.860128,0.0476,0.8920,-0.4055,0.7048,-0.7899,-1.6786,-0.5822,0.2887,-0.4826,
3.875173,0.0476,0.8920,-0.4055,0.7048,-0.7899,-1.6786,-0.7441,-0.0682,-0.5763,
3.894917,0.0708,0.7456,-0.2963,0.7048,-0.7899,-1.6786,-0.7441,-0.0682,-0.5763,
3.897553,0.0708,0.7456,-0.2963,1.0882,-2.2611,-0.7911,-0.7441,-0.0682,-0.5763,
3.899429,0.0708,0.7456,-0.2963,1.0882,-2.2611,-0.7911,-0.6898,-0.2200,-0.6988,
3.914645,0.0708,0.7456,-0.2963,1.0882,-2.2611,-0.7911,-0.7345,-0.5513,-0.8495,
3.935528,0.0122,0.6963,-0.2680,1.0882,-2.2611,-0.7911,-0.7345,-0.5513,-0.8495,
3.937777,0.0122,0.6963,-0.2680,0.8402,-2.7837,-0.7951,-0.7345,-0.5513,-0.8495,
3.939533,0.0122,0.6963,-0.2680,0.8402,-2.7837,-0.7951,-0.8884,-1.0024,-0.9273,
3.955002,0.0122,0.6963,-0.2680,0.8402,-2.7837,-0.7951,-1.0328,-1.2666,-0.9353,
3.975277,-0.0794,0.6672,-0.2634,0.8402,-2.7837,-0.7951,-1.0328,-1.2666,-0.9353,
3.977542,-0.0794,0.6672,-0.2634,0.3739,-3.0962,-1.1618,-1.0328,-1.2666,-0.9353,
3.979300,-0.0794,0.6672,-0.2634,0.3739,-3.0962,-1.1618,-1.0434,-1.1521,-0.8884,
3.995133,-0.0794,0.6672,-0.2634,0.3739,-3.0962,-1.1618,-0.9880,-0.7452,-0.8192,
4.015082,-0.1932,0.7038,-0.3330,0.3739,-3.0962,-1.1618,-0.9880,-0.7452,-0.8192,
4.017506,-0.1932,0.7038,-0.3330,-0.3670,-2.7399,-2.2855,-0.9880,-0.7452,-0.8192,
4.019417,-0.1932,0.7038,-0.3330,-0.3670,-2.7399,-2.2855,-0.9412,-0.3132,-0.7095,
4.034642,-0.1932,0.7038,-0.3330,-0.3670,-2.7399,-2.2855,-0.8240,-0.0277,-0.5768,
4.054791,-0.1871,0.8043,-0.1783,-0.3670,-2.7399,-2.2855,-0.8240,-0.0277,-0.5768,
4.057712,-0.1871,0.8043,-0.1783,-0.0538,-1.7416,-1.1204,-0.8240,-0.0277,-0.5768,
4.059439,-0.1871,0.8043,-0.1783,-0.0538,-1.7416,-1.1204,-0.5859,0.0921,-0.4629,
4.074239,-0.1871,0.8043,-0.1783,-0.0538,-1.7416,-1.1204,-0.2850,0.0980,-0.3633,
4.094304,-0.1891,0.8045,-0.0999,-0.0538,-1.7416,-1.1204,-0.2850,0.0980,-0.3633,
4.097008,-0.1891,0.8045,-0.0999,0.0837,-1.7180,-0.5121,-0.2850,0.0980,-0.3633,
4.098660,-0.1891,0.8045,-0.0999,0.0837,-1.7180,-0.5121,-0.0426,0.1454,-0.2722,
4.113862,-0.1891,0.8045,-0.0999,0.0837,-1.7180,-0.5121,0.0708,0.2770,-0.2003,
4.134643,-0.1073,0.7195,-0.1627,0.0837,-1.7180,-0.5121,0.0708,0.2770,-0.2003,
4.136772,-0.1073,0.7195,-0.1627,0.9723,-2.5322,-1.1052,0.0708,0.2770,-0.2003,
4.138371,-0.1073,0.7195,-0.1627,0.9723,-2.5322,-1.1052,0.0719,0.3451,-0.1747,
4.154222,-0.1073,0.7195,-0.1627,0.9723,-2.5322,-1.1052,0.0144,0.2541,-0.1720,
4.174870,-0.0506,0.6736,-0.1818,0.9723,-2.5322,-1.1052,0.0144,0.2541,-0.1720,
4.177567,-0.0506,0.6736,-0.1818,1.5879,-2.9673,-1.2509,0.0144,0.2541,-0.1720,
4.179742,-0.0506,0.6736,-0.1818,1.5879,-2.9673,-1.2509,-0.0431,0.0559,-0.1641,
4.194070,-0.0506,0.6736,-0.1818,1.5879,-2.9673,-1.2509,-0.0826,-0.1491,-0.1411,
4.214853,-0.1087,1.0200,-0.1483,1.5879,-2.9673,-1.2509,-0.0826,-0.1491,-0.1411,
4.216870,-0.1087,1.0200,-0.1483,1.0773,0.4393,-0.9509,-0.0826,-0.1491,-0.1411,
4.218526,-0.1087,1.0200,-0.1483,1.0773,0.4393,-0.9509,-0.1481,-0.1411,-0.1571,
4.234256,-0.1087,1.0200,-0.1483,1.0773,0.4393,-0.9509,-0.2679,-0.0085,-0.1422,
4.255296,-0.2690,1.4632,-0.0777,1.0773,0.4393,-0.9509,-0.2679,-0.0085,-0.1422,
4.258400,-0.2690,1.4632,-0.0777,-0.4347,4.7916,-0.3448,-0.2679,-0.0085,-0.1422,
4.260327,-0.2690,1.4632,-0.0777,-0.4347,4.7916,-0.3448,-0.4485,0.0032,-0.0394,
4.274357,-0.2690,1.4632,-0.0777,-0.4347,4.7916,-0.3448,-0.5838,-0.0160,0.1364,
4.294477,-0.3931,1.6728,-0.0606,-0.4347,4.7916,-0.3448,-0.5838,-0.0160,0.1364,
4.297885,-0.3931,1.6728,-0.0606,-1.6694,6.8350,-0.3746,-0.5838,-0.0160,0.1364,
4.299915,-0.3931,1.6728,-0.0606,-1.6694,6.8350,-0.3746,-0.6370,0.2173,0.2807,
4.314641,-0.3931,1.6728,-0.0606,-1.6694,6.8350,-0.3746,-0.6424,1.1697,0.3297,
4.333909,-0.6034,1.4673,-0.1871,-1.6694,6.8350,-0.3746,-0.6424,1.1697,0.3297,
4.336168,-0.6034,1.4673,-0.1871,-3.8498,4.7926,-1.8012,-0.6424,1.1697,0.3297,
4.337744,-0.6034,1.4673,-0.1871,-3.8498,4.7926,-1.8012,-0.3984,2.3068,0.1656,
4.353744,-0.6034,1.4673,-0.1871,-3.8498,4.7926,-1.8012,0.0714,2.4203,-0.1736,
4.374593,-0.5968,0.9484,-0.5705,-3.8498,4.7926,-1.8012,0.0714,2.4203,-0.1736,
4.376838,-0.5968,0.9484,-0.5705,-3.7908,-0.2925,-5.4272,0.0714,2.4203,-0.1736,
4.378783,-0.5968,0.9484,-0.5705,-3.7908,-0.2925,-5.4272,0.1065,-0.0581,-0.1364,
4.396471,-0.5968,0.9484,-0.5705,-3.7908,-0.2925,-5.4272,-0.2152,-0.7537,-0.1273,
4.414702,-0.1739,1.0185,-0.1287,-3.7908,-0.2925,-5.4272,-0.2152,-0.7537,-0.1273,
4.417106,-0.1739,1.0185,-0.1287,0.4064,0.4053,-1.1532,-0.2152,-0.7537,-0.1273,
4.418662,-0.1739,1.0185,-0.1287,0.4064,0.4053,-1.1532,-0.5646,-0.1593,-0.0868,
4.434325,-0.1739,1.0185,-0.1287,0.4064,0.4053,-1.1532,-0.6413,0.2152,0.0170,
4.454220,-0.0735,0.8062,0.1002,0.4064,0.4053,-1.1532,-0.6413,0.2152,0.0170,
4.457262,-0.0735,0.8062,0.1002,1.4086,-1.6714,0.8947,-0.6413,0.2152,0.0170,
4.458932,-0.0735,0.8062,0.1002,1.4086,-1.6714,0.8947,-0.4181,0.4549,0.0629,
4.473604,-0.0735,0.8062,0.1002,1.4086,-1.6714,0.8947,-0.0101,0.5806,0.0730,
4.494634,-0.1976,0.7400,-0.0860,1.4086,-1.6714,0.8947,-0.0101,0.5806,0.0730,
4.498471,-0.1976,0.7400,-0.0860,0.1703,-2.3248,-0.9623,-0.0101,0.5806,0.0730,
4.500440,-0.1976,0.7400,-0.0860,0.1703,-2.3248,-0.9623,0.3206,0.5641,0.1427,
4.514198,-0.1976,0.7400,-0.0860,0.1703,-2.3248,-0.9623,0.3835,0.4160,0.1806,
4.534418,-0.2551,0.7366,-0.1400,0.1703,-2.3248,-0.9623,0.3835,0.4160,0.1806,
4.536614,-0.2551,0.7366,-0.1400,-0.4535,-2.3721,-1.3159,0.3835,0.4160,0.1806,
4.538552,-0.2551,0.7366,-0.1400,-0.4535,-2.3721,-1.3159,0.2834,0.2860,0.2370,
4.553970,-0.2551,0.7366,-0.1400,-0.4535,-2.3721,-1.3159,0.1896,0.3718,0.2674,
4.574474,-0.2912,0.6863,-0.2099,-0.4535,-2.3721,-1.3159,0.1896,0.3718,0.2674,
4.576823,-0.2912,0.6863,-0.2099,-0.9061,-2.8844,-1.8838,0.1896,0.3718,0.2674,
4.578816,-0.2912,0.6863,-0.2099,-0.9061,-2.8844,-1.8838,0.1854,0.4357,0.2599,
4.594199,-0.2912,0.6863,-0.2099,-0.9061,-2.8844,-1.8838,0.2642,0.3111,0.2253,
4.614269,-0.2729,0.6772,-0.1879,-0.9061,-2.8844,-1.8838,0.2642,0.3111,0.2253,
4.616450,-0.2729,0.6772,-0.1879,-0.8231,-2.9893,-1.5536,0.2642,0.3111,0.2253,
4.618345,-0.2729,0.6772,-0.1879,-0.8231,-2.9893,-1.5536,0.3467,0.1475,0.1752,
4.634325,-0.2729,0.6772,-0.1879,-0.8231,-2.9893,-1.5536,0.3627,0.1417,0.1103,
4.654145,-0.1930,0.6936,-0.0701,-0.8231,-2.9893,-1.5536,0.3627,0.1417,0.1103,
4.656601,-0.1930,0.6936,-0.0701,-0.0972,-2.8342,-0.2526,0.3627,0.1417,0.1103,
4.658378,-0.1930,0.6936,-0.0701,-0.0972,-2.8342,-0.2526,0.3404,0.2093,0.0298,
4.674275,-0.1930,0.6936,-0.0701,-0.0972,-2.8342,-0.2526,0.2866,0.4346,0.0027,
4.694082,-0.2472,0.6650,-0.2795,-0.0972,-2.8342,-0.2526,0.2866,0.4346,0.0027,
4.697792,-0.2472,0.6650,-0.2795,-0.6416,-3.1092,-2.1609,0.2866,0.4346,0.0027,
4.700210,-0.2472,0.6650,-0.2795,-0.6416,-3.1092,-2.1609,0.2210,0.6637,-0.0069,
4.714080,-0.2472,0.6650,-0.2795,-0.6416,-3.1092,-2.1609,0.1651,0.7617,-0.0149,
4.734786,-0.2433,0.6455,-0.1891,-0.6416,-3.1092,-2.1609,0.1651,0.7617,-0.0149,
4.737160,-0.2433,0.6455,-0.1891,-0.6175,-3.2950,-1.1503,0.1651,0.7617,-0.0149,
4.739013,-0.2433,0.6455,-0.1891,-0.6175,-3.2950,-1.1503,0.1172,0.6701,-0.0096,
4.754064,-0.2433,0.6455,-0.1891,-0.6175,-3.2950,-1.1503,0.0863,0.4740,-0.0085,
4.774149,-0.1459,0.7368,0.0689,-0.6175,-3.2950,-1.1503,0.0863,0.4740,-0.0085,
4.776523,-0.1459,0.7368,0.0689,0.3243,-2.3959,1.4573,0.0863,0.4740,-0.0085,
4.778148,-0.1459,0.7368,0.0689,0.3243,-2.3959,1.4573,0.0943,0.4474,-0.0900,
4.794246,-0.1459,0.7368,0.0689,0.3243,-2.3959,1.4573,0.0218,0.5374,-0.2008,
4.814711,-0.0838,1.3745,-0.0474,0.3243,-2.3959,1.4573,0.0218,0.5374,-0.2008,
4.818603,-0.0838,1.3745,-0.0474,0.9597,3.8621,0.3670,0.0218,0.5374,-0.2008,
4.820794,-0.0838,1.3745,-0.0474,0.9597,3.8621,0.3670,-0.1635,0.7910,-0.3787,
4.834052,-0.0838,1.3745,-0.0474,0.9597,3.8621,0.3670,-0.3148,1.2554,-0.4948,
4.853391,-0.0999,1.7913,-0.2531,0.9597,3.8621,0.3670,-0.3148,1.2554,-0.4948,
4.855309,-0.0999,1.7913,-0.2531,0.9353,7.9710,-1.6648,-0.3148,1.2554,-0.4948,
4.857056,-0.0999,1.7913,-0.2531,0.9353,7.9710,-1.6648,-0.2434,2.0251,-0.3020,
4.873420,-0.0999,1.7913,-0.2531,0.9353,7.9710,-1.6648,0.2519,2.4197,0.0895,
4.893900,-0.0171,1.6322,-0.3420,0.9353,7.9710,-1.6648,0.2519,2.4197,0.0895,
4.895942,-0.0171,1.6322,-0.3420,1.7097,6.4211,-2.3647,0.2519,2.4197,0.0895,
4.897698,-0.0171,1.6322,-0.3420,1.7097,6.4211,-2.3647,0.8416,1.3614,0.0852,
4.913117,-0.0171,1.6322,-0.3420,1.7097,6.4211,-2.3647,1.0472,-0.1353,-0.0085,
4.933961,-0.2636,1.1802,-0.3965,1.7097,6.4211,-2.3647,1.0472,-0.1353,-0.0085,
4.936143,-0.2636,1.1802,-0.3965,-0.7469,2.0345,-2.4926,1.0472,-0.1353,-0.0085,
4.937955,-0.2636,1.1802,-0.3965,-0.7469,2.0345,-2.4926,0.9246,-0.2557,-0.0522,
4.953447,-0.2636,1.1802,-0.3965,-0.7469,2.0345,-2.4926,0.5981,0.1784,-0.0948,
4.973255,-0.2919,0.9325,-0.2761,-0.7469,2.0345,-2.4926,0.5981,0.1784,-0.0948,
4.975428,-0.2919,0.9325,-0.2761,-0.9950,-0.3412,-1.0259,0.5981,0.1784,-0.0948,
4.977426,-0.2919,0.9325,-0.2761,-0.9950,-0.3412,-1.0259,0.3867,0.7910,-0.1635,
4.993870,-0.2919,0.9325,-0.2761,-0.9950,-0.3412,-1.0259,0.2306,0.9220,-0.1742,
5.013922,-0.1483,0.9059,-0.3071,-0.9950,-0.3412,-1.0259,0.2306,0.9220,-0.1742,
5.016441,-0.1483,0.9059,-0.3071,0.4157,-0.5678,-1.1493,0.2306,0.9220,-0.1742,
5.018201,-0.1483,0.9059,-0.3071,0.4157,-0.5678,-1.1493,0.0719,0.9246,-0.1955,
5.033381,-0.1483,0.9059,-0.3071,0.4157,-0.5678,-1.1493,-0.0011,1.1697,-0.1166,
5.053603,0.0222,0.7464,-0.3266,0.4157,-0.5678,-1.1493,-0.0011,1.1697,-0.1166,
5.055853,0.0222,0.7464,-0.3266,2.0396,-2.1144,-1.2131,-0.0011,1.1697,-0.1166,
5.057632,0.0222,0.7464,-0.3266,2.0396,-2.1144,-1.2131,-0.1198,1.1782,-0.0304,
5.073381,0.0222,0.7464,-0.3266,2.0396,-2.1144,-1.2131,-0.2972,0.6855,-0.1119,
5.094198,-0.0205,0.6714,-0.3254,2.0396,-2.1144,-1.2131,-0.2972,0.6855,-0.1119,
5.096451,-0.0205,0.6714,-0.3254,1.5731,-2.8610,-1.2130,-0.2972,0.6855,-0.1119,
5.098181,-0.0205,0.6714,-0.3254,1.5731,-2.8610,-1.2130,-0.5699,0.1241,-0.2157,
5.112912,-0.0205,0.6714,-0.3254,1.5731,-2.8610,-1.2130,-0.8298,-0.0463,-0.2764,
5.133994,-0.1207,0.7659,-0.3371,1.5731,-2.8610,-1.2130,-0.8298,-0.0463,-0.2764,
5.136309,-0.1207,0.7659,-0.3371,0.6814,-1.9682,-1.5898,-0.8298,-0.0463,-0.2764,
5.138044,-0.1207,0.7659,-0.3371,0.6814,-1.9682,-1.5898,-0.9460,-0.0032,-0.3494,
5.153700,-0.1207,0.7659,-0.3371,0.6814,-1.9682,-1.5898,-0.8256,0.1284,-0.3558,
5.173833,-0.1994,0.7503,-0.4400,0.6814,-1.9682,-1.5898,-0.8256,0.1284,-0.3558,
5.176189,-0.1994,0.7503,-0.4400,0.0405,-2.1490,-2.9286,-0.8256,0.1284,-0.3558,
5.177960,-0.1994,0.7503,-0.4400,0.0405,-2.1490,-2.9286,-0.4400,0.1854,-0.3260,
5.193200,-0.1994,0.7503,-0.4400,0.0405,-2.1490,-2.9286,-0.1214,0.1630,-0.2700,
5.213060,-0.1576,0.7471,-0.2375,0.0405,-2.1490,-2.9286,-0.1214,0.1630,-0.2700,
5.215540,-0.1576,0.7471,-0.2375,0.5538,-2.1707,-1.0360,-0.1214,0.1630,-0.2700,
5.217779,-0.1576,0.7471,-0.2375,0.5538,-2.1707,-1.0360,-0.1593,0.2152,-0.2264,
5.234092,-0.1576,0.7471,-0.2375,0.5538,-2.1707,-1.0360,-0.2935,0.5342,-0.2061,
5.253608,-0.1258,0.7229,-0.2018,0.5538,-2.1707,-1.0360,-0.2935,0.5342,-0.2061,
5.255764,-0.1258,0.7229,-0.2018,0.9281,-2.4008,-0.7402,-0.2935,0.5342,-0.2061,
5.257523,-0.1258,0.7229,-0.2018,0.9281,-2.4008,-0.7402,-0.2706,0.6871,-0.2248,
5.273025,-0.1258,0.7229,-0.2018,0.9281,-2.4008,-0.7402,-0.1529,0.5241,-0.2322,
5.293461,-0.1710,0.7275,-0.3205,0.9281,-2.4008,-0.7402,-0.1529,0.5241,-0.2322,
5.297853,-0.1710,0.7275,-0.3205,0.5422,-2.3456,-1.9311,-0.1529,0.5241,-0.2322,
5.299731,-0.1710,0.7275,-0.3205,0.5422,-2.3456,-1.9311,-0.0330,0.5768,-0.1886,
5.313415,-0.1710,0.7275,-0.3205,0.5422,-2.3456,-1.9311,0.1177,0.6487,-0.1683,
5.333735,-0.1979,0.5592,-0.3828,0.5422,-2.3456,-1.9311,0.1177,0.6487,-0.1683,
5.335949,-0.1979,0.5592,-0.3828,0.3160,-3.9771,-2.4708,0.1177,0.6487,-0.1683,
5.337810,-0.1979,0.5592,-0.3828,0.3160,-3.9771,-2.4708,0.2099,0.6653,-0.1981,
5.353845,-0.1979,0.5592,-0.3828,0.3160,-3.9771,-2.4708,0.1529,0.7675,-0.2626,
5.373814,-0.0640,0.8240,-0.0215,0.3160,-3.9771,-2.4708,0.1529,0.7675,-0.2626,
5.377803,-0.0640,0.8240,-0.0215,1.6762,-1.3511,1.2038,0.1529,0.7675,-0.2626,
5.379927,-0.0640,0.8240,-0.0215,1.6762,-1.3511,1.2038,0.1630,0.6924,-0.2269,
5.392778,-0.0640,0.8240,-0.0215,1.6762,-1.3511,1.2038,0.2775,0.8309,-0.2152,
5.413789,-0.1466,1.8997,-0.1950,1.6762,-1.3511,1.2038,0.2775,0.8309,-0.2152,
5.415811,-0.1466,1.8997,-0.1950,0.9048,9.2242,-0.3425,0.2775,0.8309,-0.2152,
5.417515,-0.1466,1.8997,-0.1950,0.9048,9.2242,-0.3425,0.5944,1.8791,0.0133,
5.433693,-0.1466,1.8997,-0.1950,0.9048,9.2242,-0.3425,0.0708,1.6144,0.1321,
5.452756,-0.4368,2.0390,-0.3046,0.9048,9.2242,-0.3425,0.0708,1.6144,0.1321,
5.454840,-0.4368,2.0390,-0.3046,-2.0877,10.6048,-1.1341,0.0708,1.6144,0.1321,
5.456844,-0.4368,2.0390,-0.3046,-2.0877,10.6048,-1.1341,-0.3393,0.7020,0.1198,
5.473504,-0.4368,2.0390,-0.3046,-2.0877,10.6048,-1.1341,-1.6437,-0.6898,0.1907,
5.493131,-0.4786,1.2699,0.2841,-2.0877,10.6048,-1.1341,-1.6437,-0.6898,0.1907,
5.495278,-0.4786,1.2699,0.2841,-2.5585,2.9880,4.2641,-1.6437,-0.6898,0.1907,
5.497031,-0.4786,1.2699,0.2841,-2.5585,2.9880,4.2641,-1.2490,0.5113,-0.1838,
5.512726,-0.4786,1.2699,0.2841,-2.5585,2.9880,4.2641,-0.5886,1.7705,-0.2173,
5.532977,-0.2331,1.1785,-0.0459,-2.5585,2.9880,4.2641,-0.5886,1.7705,-0.2173,
5.535005,-0.2331,1.1785,-0.0459,-0.1345,2.0608,0.7795,-0.5886,1.7705,-0.2173,
5.536712,-0.2331,1.1785,-0.0459,-0.1345,2.0608,0.7795,-0.3649,1.6805,-0.2599,
5.552898,-0.2331,1.1785,-0.0459,-0.1345,2.0608,0.7795,-0.5816,1.3332,-0.2647,
5.573005,0.0066,0.9929,-0.3015,-0.1345,2.0608,0.7795,-0.5816,1.3332,-0.2647,
5.575146,0.0066,0.9929,-0.3015,2.2402,0.2409,-1.7741,-0.5816,1.3332,-0.2647,
5.576791,0.0066,0.9929,-0.3015,2.2402,0.2409,-1.7741,-0.7436,1.2448,-0.2280,
5.593577,0.0066,0.9929,-0.3015,2.2402,0.2409,-1.7741,-0.7675,0.9619,-0.2498,
5.612215,-0.0247,0.7850,-0.1485,2.2402,0.2409,-1.7741,-0.7675,0.9619,-0.2498,
5.614429,-0.0247,0.7850,-0.1485,1.9428,-1.8150,-0.4535,-0.7675,0.9619,-0.2498,
5.616099,-0.0247,0.7850,-0.1485,1.9428,-1.8150,-0.4535,-0.6402,0.4916,-0.2125,
5.632843,-0.0247,0.7850,-0.1485,1.9428,-1.8150,-0.4535,-0.5092,0.1619,-0.1486,
5.652900,-0.0733,0.7300,-0.0537,1.9428,-1.8150,-0.4535,-0.5092,0.1619,-0.1486,
5.655058,-0.0733,0.7300,-0.0537,1.5217,-2.3589,0.2863,-0.5092,0.1619,-0.1486,
5.656772,-0.0733,0.7300,-0.0537,1.5217,-2.3589,0.2863,-0.4043,0.0085,-0.1513,
5.672961,-0.0733,0.7300,-0.0537,1.5217,-2.3589,0.2863,-0.3334,-0.0298,-0.1465,
5.692455,-0.1295,0.6836,-0.0579,1.5217,-2.3589,0.2863,-0.3334,-0.0298,-0.1465,
5.694491,-0.1295,0.6836,-0.0579,1.0278,-2.8112,0.1045,-0.3334,-0.0298,-0.1465,
5.696245,-0.1295,0.6836,-0.0579,1.0278,-2.8112,0.1045,-0.3164,0.0463,-0.0831,
5.712416,-0.1295,0.6836,-0.0579,1.0278,-2.8112,0.1045,-0.3063,0.2647,0.0325,
5.732716,-0.1561,0.7385,-0.0784,1.0278,-2.8112,0.1045,-0.3063,0.2647,0.0325,
5.734834,-0.1561,0.7385,-0.0784,0.7728,-2.2779,-0.2006,-0.3063,0.2647,0.0325,
5.736713,-0.1561,0.7385,-0.0784,0.7728,-2.2779,-0.2006,-0.2264,0.5209,0.1273,
5.752783,-0.1561,0.7385,-0.0784,0.7728,-2.2779,-0.2006,-0.0154,0.5593,0.1321,
5.772185,-0.1959,0.7559,-0.1703,0.7728,-2.2779,-0.2006,-0.0154,0.5593,0.1321,
5.774392,-0.1959,0.7559,-0.1703,0.3211,-2.1224,-1.0978,-0.0154,0.5593,0.1321,
5.776222,-0.1959,0.7559,-0.1703,0.3211,-2.1224,-1.0978,0.3329,0.3611,0.0932,
5.792875,-0.1959,0.7559,-0.1703,0.3211,-2.1224,-1.0978,0.6482,-0.0410,0.0346,
5.812840,-0.1967,0.6858,-0.1693,0.3211,-2.1224,-1.0978,0.6482,-0.0410,0.0346,
5.814991,-0.1967,0.6858,-0.1693,0.2858,-2.8019,-0.8873,0.6482,-0.0410,0.0346,
5.816877,-0.1967,0.6858,-0.1693,0.2858,-2.8019,-0.8873,0.7276,-0.2791,-0.0165,
5.832529,-0.1967,0.6858,-0.1693,0.2858,-2.8019,-0.8873,0.5864,-0.2402,-0.0490,
5.852749,-0.1722,0.6516,-0.0901,0.2858,-2.8019,-0.8873,0.5864,-0.2402,-0.0490,
5.856144,-0.1722,0.6516,-0.0901,0.5469,-3.1109,0.1151,0.5864,-0.2402,-0.0490,
5.857935,-0.1722,0.6516,-0.0901,0.5469,-3.1109,0.1151,0.3968,-0.0842,-0.0336,
5.872582,-0.1722,0.6516,-0.0901,0.5469,-3.1109,0.1151,0.3292,0.1145,0.0123,
5.893193,-0.1879,0.6589,-0.1385,0.5469,-3.1109,0.1151,0.3292,0.1145,0.0123,
5.895226,-0.1879,0.6589,-0.1385,0.3969,-3.0227,-0.2200,0.3292,0.1145,0.0123,
5.897073,-0.1879,0.6589,-0.1385,0.3969,-3.0227,-0.2200,0.3686,0.3888,0.0256,
5.913143,-0.1879,0.6589,-0.1385,0.3969,-3.0227,-0.2200,0.4218,0.6903,0.0224,
5.932353,-0.2326,0.7141,-0.1605,0.3969,-3.0227,-0.2200,0.4218,0.6903,0.0224,
5.934626,-0.2326,0.7141,-0.1605,-0.0772,-2.4643,-0.2381,0.4218,0.6903,0.0224,
5.936469,-0.2326,0.7141,-0.1605,-0.0772,-2.4643,-0.2381,0.4282,0.7936,0.0352,
5.952111,-0.2326,0.7141,-0.1605,-0.0772,-2.4643,-0.2381,0.3441,0.5854,0.0810,
5.972175,-0.1703,0.8768,0.0787,-0.0772,-2.4643,-0.2381,0.3441,0.5854,0.0810,
5.974431,-0.1703,0.8768,0.0787,0.4719,-0.8526,2.3115,0.3441,0.5854,0.0810,
5.975999,-0.1703,0.8768,0.0787,0.4719,-0.8526,2.3115,0.2354,0.3617,0.0703,
5.992213,-0.1703,0.8768,0.0787,0.4719,-0.8526,2.3115,0.1704,0.4346,-0.0629,
6.012403,-0.1571,1.5660,0.0818,0.4719,-0.8526,2.3115,0.1704,0.4346,-0.0629,
6.014684,-0.1571,1.5660,0.0818,0.5743,5.9141,2.4529,0.1704,0.4346,-0.0629,
6.016271,-0.1571,1.5660,0.0818,0.5743,5.9141,2.4529,0.2450,0.6972,-0.1635,
6.032183,-0.1571,1.5660,0.0818,0.5743,5.9141,2.4529,0.9236,1.6512,-0.0682,
6.052244,-0.1287,1.6461,-0.2311,0.5743,5.9141,2.4529,0.9236,1.6512,-0.0682,
6.054160,-0.1287,1.6461,-0.2311,0.8111,6.7515,-0.2958,0.9236,1.6512,-0.0682,
6.055764,-0.1287,1.6461,-0.2311,0.8111,6.7515,-0.2958,1.7710,2.9455,0.2658,
6.071875,-0.1287,1.6461,-0.2311,0.8111,6.7515,-0.2958,1.3151,2.6589,0.5044,
6.092381,0.1947,1.7426,-0.5560,0.8111,6.7515,-0.2958,1.3151,2.6589,0.5044,
6.094418,0.1947,1.7426,-0.5560,3.5715,7.8142,-2.6943,1.3151,2.6589,0.5044,
6.096117,0.1947,1.7426,-0.5560,3.5715,7.8142,-2.6943,0.7233,2.4357,0.7483,
6.111309,0.1947,1.7426,-0.5560,3.5715,7.8142,-2.6943,0.7057,2.0176,0.6519,
6.131645,0.2697,1.0036,-0.4908,3.5715,7.8142,-2.6943,0.7057,2.0176,0.6519,
6.133844,0.2697,1.0036,-0.4908,3.7859,0.6169,-1.6662,0.7057,2.0176,0.6519,
6.135531,0.2697,1.0036,-0.4908,3.7859,0.6169,-1.6662,0.6365,0.6264,0.1390,
6.152102,0.2697,1.0036,-0.4908,3.7859,0.6169,-1.6662,0.4565,-0.3569,-0.0543,
6.172757,-0.1234,0.8905,-0.5182,3.7859,0.6169,-1.6662,0.4565,-0.3569,-0.0543,
6.175087,-0.1234,0.8905,-0.5182,-0.0984,-0.4226,-1.7277,0.4565,-0.3569,-0.0543,
6.177186,-0.1234,0.8905,-0.5182,-0.0984,-0.4226,-1.7277,0.0655,-0.2258,-0.1614,
6.193211,-0.1234,0.8905,-0.5182,-0.0984,-0.4226,-1.7277,-0.3835,0.1736,-0.3169,
6.212484,0.0691,0.8829,-0.2673,-0.0984,-0.4226,-1.7277,-0.3835,0.1736,-0.3169,
6.214717,0.0691,0.8829,-0.2673,1.8683,-0.5081,0.6723,-0.3835,0.1736,-0.3169,
6.216509,0.0691,0.8829,-0.2673,1.8683,-0.5081,0.6723,-0.5758,0.0916,-0.4309,
6.231789,0.0691,0.8829,-0.2673,1.8683,-0.5081,0.6723,-0.5497,-0.3627,-0.4964,
6.252455,0.0757,0.7740,-0.2282,1.8683,-0.5081,0.6723,-0.5497,-0.3627,-0.4964,
6.256345,0.0757,0.7740,-0.2282,2.0709,-1.6303,0.8439,-0.5497,-0.3627,-0.4964,
6.258150,0.0757,0.7740,-0.2282,2.0709,-1.6303,0.8439,-0.4762,-0.7505,-0.4932,
6.271853,0.0757,0.7740,-0.2282,2.0709,-1.6303,0.8439,-0.5364,-1.1164,-0.5268,
6.291640,0.0479,0.6958,-0.2624,2.0709,-1.6303,0.8439,-0.5364,-1.1164,-0.5268,
6.293828,0.0479,0.6958,-0.2624,2.0961,-2.4263,0.2666,-0.5364,-1.1164,-0.5268,
6.295276,0.0479,0.6958,-0.2624,2.0961,-2.4263,0.2666,-0.6503,-1.2874,-0.5630,
6.312407,0.0479,0.6958,-0.2624,2.0961,-2.4263,0.2666,-0.7910,-1.2325,-0.6083,
6.331564,-0.0374,0.7224,-0.2866,2.0961,-2.4263,0.2666,-0.7910,-1.2325,-0.6083,
6.334109,-0.0374,0.7224,-0.2866,1.6115,-2.1996,-0.3277,-0.7910,-1.2325,-0.6083,
6.335866,-0.0374,0.7224,-0.2866,1.6115,-2.1996,-0.3277,-0.9641,-1.1100,-0.6589,
6.351374,-0.0374,0.7224,-0.2866,1.6115,-2.1996,-0.3277,-0.9518,-0.7015,-0.6285,
6.371932,-0.1876,0.6994,-0.3349,1.6115,-2.1996,-0.3277,-0.9518,-0.7015,-0.6285,
6.374307,-0.1876,0.6994,-0.3349,0.4608,-2.4560,-1.2345,-0.9518,-0.7015,-0.6285,
6.376128,-0.1876,0.6994,-0.3349,0.4608,-2.4560,-1.2345,-0.5896,0.0096,-0.5481,
6.392284,-0.1876,0.6994,-0.3349,0.4608,-2.4560,-1.2345,-0.0937,0.3920,-0.4240,
6.412393,-0.1366,0.6445,-0.2682,0.4608,-2.4560,-1.2345,-0.0937,0.3920,-0.4240,
6.414414,-0.1366,0.6445,-0.2682,1.1263,-2.9755,-0.6885,-0.0937,0.3920,-0.4240,
6.416282,-0.1366,0.6445,-0.2682,1.1263,-2.9755,-0.6885,0.1784,0.1411,-0.2450,
6.432358,-0.1366,0.6445,-0.2682,1.1263,-2.9755,-0.6885,0.1816,-0.0559,-0.2354,
6.451499,-0.1004,0.7669,-0.1974,1.1263,-2.9755,-0.6885,0.1816,-0.0559,-0.2354,
6.453685,-0.1004,0.7669,-0.1974,1.5664,-1.7378,0.0767,0.1816,-0.0559,-0.2354,
6.455286,-0.1004,0.7669,-0.1974,1.5664,-1.7378,0.0767,0.0623,-0.0218,-0.2850,
6.471393,-0.1004,0.7669,-0.1974,1.5664,-1.7378,0.0767,-0.0293,0.0586,-0.2977,
6.491575,-0.0662,0.6711,-0.1168,1.5664,-1.7378,0.0767,-0.0293,0.0586,-0.2977,
6.494991,-0.0662,0.6711,-0.1168,2.0076,-2.6447,0.8748,-0.0293,0.0586,-0.2977,
6.496986,-0.0662,0.6711,-0.1168,2.0076,-2.6447,0.8748,-0.0288,0.0644,-0.2360,
6.511364,-0.0662,0.6711,-0.1168,2.0076,-2.6447,0.8748,0.0442,0.0975,-0.1625,
6.531322,0.0274,0.6518,-0.2399,2.0076,-2.6447,0.8748,0.0442,0.0975,-0.1625,
6.533516,0.0274,0.6518,-0.2399,2.9913,-2.8118,-0.3203,0.0442,0.0975,-0.1625,
6.535355,0.0274,0.6518,-0.2399,2.9913,-2.8118,-0.3203,0.1198,0.1364,-0.1385,
6.551070,0.0274,0.6518,-0.2399,2.9913,-2.8118,-0.3203,0.1257,0.0735,-0.1310,
6.572510,-0.0596,1.1798,-0.3015,2.9913,-2.8118,-0.3203,0.1257,0.0735,-0.1310,
6.576333,-0.0596,1.1798,-0.3015,0.7933,2.1654,-0.5082,0.1257,0.0735,-0.1310,
6.578424,-0.0596,1.1798,-0.3015,0.7933,2.1654,-0.5082,-0.0788,-0.1278,-0.1790,
6.590983,-0.0596,1.1798,-0.3015,0.7933,2.1654,-0.5082,-0.4991,-0.4101,-0.2125,
6.611398,-0.2692,1.6053,-0.0159,0.7933,2.1654,-0.5082,-0.4991,-0.4101,-0.2125,
6.614141,-0.2692,1.6053,-0.0159,-1.1617,6.3197,2.1666,-0.4991,-0.4101,-0.2125,
6.616085,-0.2692,1.6053,-0.0159,-1.1617,6.3197,2.1666,-0.7675,-0.6871,-0.2136,
6.630950,-0.2692,1.6053,-0.0159,-1.1617,6.3197,2.1666,-0.8325,-0.9065,-0.1188,
6.651153,-0.5360,1.6315,0.0994,-1.1617,6.3197,2.1666,-0.8325,-0.9065,-0.1188,
6.653387,-0.5360,1.6315,0.0994,-3.6455,6.5174,2.9456,-0.8325,-0.9065,-0.1188,
6.654975,-0.5360,1.6315,0.0994,-3.6455,6.5174,2.9456,-0.6498,-0.4128,0.1635,
6.671424,-0.5360,1.6315,0.0994,-3.6455,6.5174,2.9456,-0.2812,1.0370,0.2668,
6.691339,-0.6095,1.4150,-0.3181,-3.6455,6.5174,2.9456,-0.2812,1.0370,0.2668,
6.693545,-0.6095,1.4150,-0.3181,-4.4698,4.3478,-1.3037,-0.2812,1.0370,0.2668,
6.695321,-0.6095,1.4150,-0.3181,-4.4698,4.3478,-1.3037,-0.0357,1.6586,0.0037,
6.711963,-0.6095,1.4150,-0.3181,-4.4698,4.3478,-1.3037,0.3968,0.7004,-0.1172,
6.731353,-0.3503,1.1380,-0.5580,-4.4698,4.3478,-1.3037,0.3968,0.7004,-0.1172,
6.733587,-0.3503,1.1380,-0.5580,-1.9955,1.6498,-3.5173,0.3968,0.7004,-0.1172,
6.735410,-0.3503,1.1380,-0.5580,-1.9955,1.6498,-3.5173,0.2882,-0.6722,-0.0149,
6.751017,-0.3503,1.1380,-0.5580,-1.9955,1.6498,-3.5173,-0.2157,-0.5076,-0.0879,
6.770981,-0.1979,1.0200,-0.2543,-1.9955,1.6498,-3.5173,-0.2157,-0.5076,-0.0879,
6.773061,-0.1979,1.0200,-0.2543,-0.4357,0.4993,-0.5620,-0.2157,-0.5076,-0.0879,
6.774847,-0.1979,1.0200,-0.2543,-0.4357,0.4993,-0.5620,-0.4751,0.0394,-0.0309,
6.790904,-0.1979,1.0200,-0.2543,-0.4357,0.4993,-0.5620,-0.3409,0.1555,0.0511,
6.811066,-0.1915,0.9020,-0.1290,-0.4357,0.4993,-0.5620,-0.3409,0.1555,0.0511,
6.813514,-0.1915,0.9020,-0.1290,-0.3844,-0.6879,0.5170,-0.3409,0.1555,0.0511,
6.815396,-0.1915,0.9020,-0.1290,-0.3844,-0.6879,0.5170,-0.1065,-0.0655,0.1119,
6.832101,-0.1915,0.9020,-0.1290,-0.3844,-0.6879,0.5170,0.0597,-0.2317,0.1470,
6.851701,-0.1796,0.7691,-0.1038,-0.3844,-0.6879,0.5170,0.0597,-0.2317,0.1470,
6.855665,-0.1796,0.7691,-0.1038,-0.2813,-1.9959,0.7456,0.0597,-0.2317,0.1470,
6.857453,-0.1796,0.7691,-0.1038,-0.2813,-1.9959,0.7456,0.2104,-0.0591,0.1246,
6.871319,-0.1796,0.7691,-0.1038,-0.2813,-1.9959,0.7456,0.3068,0.1113,0.0948,
6.891142,-0.2697,0.7280,-0.2150,-0.2813,-1.9959,0.7456,0.3068,0.1113,0.0948,
6.893679,-0.2697,0.7280,-0.2150,-1.2084,-2.3858,-0.2440,0.3068,0.1113,0.0948,
6.895572,-0.2697,0.7280,-0.2150,-1.2084,-2.3858,-0.2440,0.3601,0.1273,0.0655,
6.912258,-0.2697,0.7280,-0.2150,-1.2084,-2.3858,-0.2440,0.3643,0.1571,0.0543,
6.931861,-0.3210,0.7129,-0.2582,-1.2084,-2.3858,-0.2440,0.3643,0.1571,0.0543,
6.934323,-0.3210,0.7129,-0.2582,-1.7450,-2.5097,-0.5221,0.3643,0.1571,0.0543,
6.936238,-0.3210,0.7129,-0.2582,-1.7450,-2.5097,-0.5221,0.2706,0.1987,0.0362,
6.950755,-0.3210,0.7129,-0.2582,-1.7450,-2.5097,-0.5221,0.1177,0.2269,0.0165,
6.971018,-0.2910,0.6714,-0.1727,-1.7450,-2.5097,-0.5221,0.1177,0.2269,0.0165,
6.974051,-0.2910,0.6714,-0.1727,-1.4780,-2.9023,0.4012,0.1177,0.2269,0.0165,
6.975704,-0.2910,0.6714,-0.1727,-1.4780,-2.9023,0.4012,0.0309,0.2482,-0.0261,
6.990753,-0.2910,0.6714,-0.1727,-1.4780,-2.9023,0.4012,0.0751,0.2658,-0.0591,
7.010077,-0.2213,0.7268,-0.1710,-1.4780,-2.9023,0.4012,0.0751,0.2658,-0.0591,
7.011012,-0.2213,0.7268,-0.1710,-0.8012,-2.3520,0.4521,0.0751,0.2658,-0.0591,
7.011499,-0.2213,0.7268,-0.1710,-0.8012,-2.3520,0.4521,0.1427,0.3249,-0.0708,
7.031451,-0.2213,0.7268,-0.1710,-0.8012,-2.3520,0.4521,0.1225,0.3862,-0.0570,
7.051247,-0.1539,0.7754,-0.1029,-0.8012,-2.3520,0.4521,0.1225,0.3862,-0.0570,
7.054480,-0.1539,0.7754,-0.1029,-0.1469,-1.8606,1.1896,0.1225,0.3862,-0.0570,
7.056352,-0.1539,0.7754,-0.1029,-0.1469,-1.8606,1.1896,0.0410,0.3356,-0.0501,
7.070927,-0.1539,0.7754,-0.1029,-0.1469,-1.8606,1.1896,0.0426,0.5161,-0.0234,
7.091182,-0.2216,0.7649,-0.2128,-0.1469,-1.8606,1.1896,0.0426,0.5161,-0.0234,
7.093323,-0.2216,0.7649,-0.2128,-0.8340,-1.9579,0.1510,0.0426,0.5161,-0.0234,
7.095085,-0.2216,0.7649,-0.2128,-0.8340,-1.9579,0.1510,0.1278,0.5561,0.0325,
7.111516,-0.2216,0.7649,-0.2128,-0.8340,-1.9579,0.1510,0.1411,0.4085,0.0959,
7.131129,-0.1402,0.6823,0.0450,-0.8340,-1.9579,0.1510,0.1411,0.4085,0.0959,
7.133271,-0.1402,0.6823,0.0450,-0.1047,-2.7582,2.7529,0.1411,0.4085,0.0959,
7.135013,-0.1402,0.6823,0.0450,-0.1047,-2.7582,2.7529,0.0501,0.1619,0.1049,
7.151163,-0.1402,0.6823,0.0450,-0.1047,-2.7582,2.7529,-0.0373,0.3009,0.0751,
7.171018,-0.0660,0.6767,0.0359,-0.1047,-2.7582,2.7529,-0.0373,0.3009,0.0751,
7.173284,-0.0660,0.6767,0.0359,0.5677,-2.8171,2.6781,-0.0373,0.3009,0.0751,
7.174980,-0.0660,0.6767,0.0359,0.5677,-2.8171,2.6781,-0.0149,0.7585,0.0735,
7.191111,-0.0660,0.6767,0.0359,0.5677,-2.8171,2.6781,0.1417,1.1207,0.0389,
7.210908,-0.0772,1.2086,0.0388,0.5677,-2.8171,2.6781,0.1417,1.1207,0.0389,
7.213163,-0.0772,1.2086,0.0388,0.3489,2.3922,2.7493,0.1417,1.1207,0.0389,
7.214705,-0.0772,1.2086,0.0388,0.3489,2.3922,2.7493,0.6120,1.5223,-0.0240,
7.230638,-0.0772,1.2086,0.0388,0.3489,2.3922,2.7493,1.8914,2.9050,0.0506,
7.250709,-0.1182,1.6593,-0.6340,0.3489,2.3922,2.7493,1.8914,2.9050,0.0506,
7.253908,-0.1182,1.6593,-0.6340,-0.2903,6.9417,-3.2874,1.8914,2.9050,0.0506,
7.256130,-0.1182,1.6593,-0.6340,-0.2903,6.9417,-3.2874,1.8584,2.3622,0.2487,
7.270466,-0.1182,1.6593,-0.6340,-0.2903,6.9417,-3.2874,0.9119,1.0354,0.3483,
7.290760,0.1222,1.6869,-0.5636,-0.2903,6.9417,-3.2874,0.9119,1.0354,0.3483,
7.293116,0.1222,1.6869,-0.5636,1.7384,7.3817,-2.0377,0.9119,1.0354,0.3483,
7.294914,0.1222,1.6869,-0.5636,1.7384,7.3817,-2.0377,0.6434,0.5742,0.8133,
7.312937,0.1222,1.6869,-0.5636,1.7384,7.3817,-2.0377,0.6956,0.1507,0.7537,
7.329908,0.0567,0.7981,-0.4569,1.7384,7.3817,-2.0377,0.6956,0.1507,0.7537,
7.332239,0.0567,0.7981,-0.4569,0.7598,-1.2433,-0.7419,0.6956,0.1507,0.7537,
7.333741,0.0567,0.7981,-0.4569,0.7598,-1.2433,-0.7419,0.5752,-0.2434,0.1965,
7.350226,0.0567,0.7981,-0.4569,0.7598,-1.2433,-0.7419,0.3419,-0.3345,0.0069,
7.370110,-0.2433,0.9352,-0.5797,0.7598,-1.2433,-0.7419,0.3419,-0.3345,0.0069,
7.372395,-0.2433,0.9352,-0.5797,-2.1727,0.1690,-1.7830,0.3419,-0.3345,0.0069,
7.374073,-0.2433,0.9352,-0.5797,-2.1727,0.1690,-1.7830,-0.2216,-0.4884,-0.3451,
7.390005,-0.2433,0.9352,-0.5797,-2.1727,0.1690,-1.7830,-0.7489,-0.2099,-0.4346,
7.411051,-0.0833,0.9457,-0.4654,-2.1727,0.1690,-1.7830,-0.7489,-0.2099,-0.4346,
7.415628,-0.0833,0.9457,-0.4654,-0.4103,0.2030,-0.8417,-0.7489,-0.2099,-0.4346,
7.417270,-0.0833,0.9457,-0.4654,-0.4103,0.2030,-0.8417,-1.0514,-0.0474,-0.3249,
7.430812,-0.0833,0.9457,-0.4654,-0.4103,0.2030,-0.8417,-1.0152,-0.1923,-0.2908,
7.450409,0.0901,0.8597,-0.3777,-0.4103,0.2030,-0.8417,-1.0152,-0.1923,-0.2908,
7.452735,0.0901,0.8597,-0.3777,1.4089,-0.7737,-0.3436,-1.0152,-0.1923,-0.2908,
7.454143,0.0901,0.8597,-0.3777,1.4089,-0.7737,-0.3436,-0.7531,-0.3366,-0.3222,
7.470538,0.0901,0.8597,-0.3777,1.4089,-0.7737,-0.3436,-0.6216,-0.7851,-0.3718,
7.490240,0.0271,0.7068,-0.3415,1.4089,-0.7737,-0.3436,-0.6216,-0.7851,-0.3718,
7.492590,0.0271,0.7068,-0.3415,0.9811,-2.3485,-0.2433,-0.6216,-0.7851,-0.3718,
7.494212,0.0271,0.7068,-0.3415,0.9811,-2.3485,-0.2433,-0.6317,-1.4679,-0.4746,
7.510750,0.0271,0.7068,-0.3415,0.9811,-2.3485,-0.2433,-0.6796,-1.8067,-0.6344,
7.530476,-0.1808,0.6313,-0.3467,0.9811,-2.3485,-0.2433,-0.6796,-1.8067,-0.6344,
7.532685,-0.1808,0.6313,-0.3467,-0.6573,-3.1454,-0.5970,-0.6796,-1.8067,-0.6344,
7.534631,-0.1808,0.6313,-0.3467,-0.6573,-3.1454,-0.5970,-0.6216,-1.4253,-0.6450,
7.549979,-0.1808,0.6313,-0.3467,-0.6573,-3.1454,-0.5970,-0.3989,-0.7366,-0.5188,
7.570670,-0.1703,0.6328,-0.2489,-0.6573,-3.1454,-0.5970,-0.3989,-0.7366,-0.5188,
7.573084,-0.1703,0.6328,-0.2489,-0.2212,-3.1557,0.1153,-0.3989,-0.7366,-0.5188,
7.574969,-0.1703,0.6328,-0.2489,-0.2212,-3.1557,0.1153,-0.1875,-0.2519,-0.3238,
7.589230,-0.1703,0.6328,-0.2489,-0.2212,-3.1557,0.1153,-0.0783,-0.0778,-0.2205,
7.609951,-0.0997,0.6105,-0.1375,-0.2212,-3.1557,0.1153,-0.0783,-0.0778,-0.2205,
7.613122,-0.0997,0.6105,-0.1375,0.5891,-3.3706,1.1475,-0.0783,-0.0778,-0.2205,
7.614674,-0.0997,0.6105,-0.1375,0.5891,-3.3706,1.1475,-0.0282,-0.0804,-0.2083,
7.630146,-0.0997,0.6105,-0.1375,0.5891,-3.3706,1.1475,-0.0272,-0.1683,-0.2008,
7.649253,-0.0904,0.5651,-0.1036,0.5891,-3.3706,1.1475,-0.0272,-0.1683,-0.2008,
7.651165,-0.0904,0.5651,-0.1036,0.7688,-3.8055,1.4619,-0.0272,-0.1683,-0.2008,
7.652271,-0.0904,0.5651,-0.1036,0.7688,-3.8055,1.4619,-0.0421,-0.2834,-0.1635,
7.669222,-0.0904,0.5651,-0.1036,0.7688,-3.8055,1.4619,-0.0501,-0.2328,-0.1065,
7.689714,-0.0770,0.7779,-0.1918,0.7688,-3.8055,1.4619,-0.0501,-0.2328,-0.1065,
7.692443,-0.0770,0.7779,-0.1918,0.9762,-1.7155,0.5629,-0.0501,-0.2328,-0.1065,
7.694297,-0.0770,0.7779,-0.1918,0.9762,-1.7155,0.5629,-0.1033,-0.0676,-0.0740,
7.710100,-0.0770,0.7779,-0.1918,0.9762,-1.7155,0.5629,-0.2700,0.0149,-0.0937,
7.730123,-0.1849,1.3552,-0.1910,0.9762,-1.7155,0.5629,-0.2700,0.0149,-0.0937,
7.732171,-0.1849,1.3552,-0.1910,-0.0670,3.9211,0.4780,-0.2700,0.0149,-0.0937,
7.733830,-0.1849,1.3552,-0.1910,-0.0670,3.9211,0.4780,-0.6104,-0.1891,-0.1342,
7.749548,-0.1849,1.3552,-0.1910,-0.0670,3.9211,0.4780,-0.9657,-0.4208,-0.0341,
7.769480,-0.4610,2.1831,-0.2419,-0.0670,3.9211,0.4780,-0.9657,-0.4208,-0.0341,
7.771188,-0.4610,2.1831,-0.2419,-2.7143,11.9720,-0.3372,-0.9657,-0.4208,-0.0341,
7.772437,-0.4610,2.1831,-0.2419,-2.7143,11.9720,-0.3372,-0.8975,0.0309,0.2157,
7.790522,-0.4610,2.1831,-0.2419,-2.7143,11.9720,-0.3372,0.7329,1.9627,0.0831,
7.810067,-0.6242,1.3786,-0.2858,-2.7143,11.9720,-0.3372,0.7329,1.9627,0.0831,
7.813440,-0.6242,1.3786,-0.2858,-4.4484,4.0713,-0.7305,0.7329,1.9627,0.0831,
7.815024,-0.6242,1.3786,-0.2858,-4.4484,4.0713,-0.7305,0.5843,0.1566,0.4320,
7.829806,-0.6242,1.3786,-0.2858,-4.4484,4.0713,-0.7305,-0.0847,-0.8229,0.3622,
7.850341,-0.4551,1.0087,-0.3821,-4.4484,4.0713,-0.7305,-0.0847,-0.8229,0.3622,
7.852637,-0.4551,1.0087,-0.3821,-2.9123,0.4423,-1.6004,-0.0847,-0.8229,0.3622,
7.854410,-0.4551,1.0087,-0.3821,-2.9123,0.4423,-1.6004,-0.3585,-0.3920,0.0256,
7.869508,-0.4551,1.0087,-0.3821,-2.9123,0.4423,-1.6004,-0.2210,0.3483,-0.0964,
7.889805,-0.2599,1.1221,-0.2924,-2.9123,0.4423,-1.6004,-0.2210,0.3483,-0.0964,
7.892148,-0.2599,1.1221,-0.2924,-0.9838,1.5313,-0.8325,-0.2210,0.3483,-0.0964,
7.893851,-0.2599,1.1221,-0.2924,-0.9838,1.5313,-0.8325,-0.2013,0.1204,-0.0330,
7.910397,-0.2599,1.1221,-0.2924,-0.9838,1.5313,-0.8325,-0.2280,-0.1491,0.0357,
7.929893,-0.2155,0.7938,-0.0574,-0.9838,1.5313,-0.8325,-0.2280,-0.1491,0.0357,
7.932256,-0.2155,0.7938,-0.0574,-0.5404,-1.7027,1.3875,-0.2280,-0.1491,0.0357,
7.934069,-0.2155,0.7938,-0.0574,-0.5404,-1.7027,1.3875,-0.1454,-0.0027,0.0533,
7.950027,-0.2155,0.7938,-0.0574,-0.5404,-1.7027,1.3875,-0.0043,0.2173,0.0597,
7.969948,-0.2636,0.7764,-0.2121,-0.5404,-1.7027,1.3875,-0.0043,0.2173,0.0597,
7.972195,-0.2636,0.7764,-0.2121,-0.9992,-1.8743,-0.1461,-0.0043,0.2173,0.0597,
7.974189,-0.2636,0.7764,-0.2121,-0.9992,-1.8743,-0.1461,0.0437,0.2322,0.0799,
7.990553,-0.2636,0.7764,-0.2121,-0.9992,-1.8743,-0.1461,-0.0256,0.0884,0.1145,
8.010097,-0.2511,0.7894,-0.1703,-0.9992,-1.8743,-0.1461,-0.0256,0.0884,0.1145,
8.014272,-0.2511,0.7894,-0.1703,-0.9141,-1.7506,0.2774,-0.0256,0.0884,0.1145,
8.015902,-0.2511,0.7894,-0.1703,-0.9141,-1.7506,0.2774,-0.0804,0.0128,0.1332,
8.029496,-0.2511,0.7894,-0.1703,-0.9141,-1.7506,0.2774,-0.0405,0.0426,0.1593,
8.049555,-0.2336,0.7102,-0.1837,-0.9141,-1.7506,0.2774,-0.0405,0.0426,0.1593,
8.051637,-0.2336,0.7102,-0.1837,-0.7993,-2.5399,0.1245,-0.0405,0.0426,0.1593,
8.053561,-0.2336,0.7102,-0.1837,-0.7993,-2.5399,0.1245,0.0858,0.0772,0.1875,
8.069615,-0.2336,0.7102,-0.1837,-0.7993,-2.5399,0.1245,0.1933,0.0314,0.2003,
8.089420,-0.1891,0.7156,-0.2128,-0.7993,-2.5399,0.1245,0.1933,0.0314,0.2003,
8.091650,-0.1891,0.7156,-0.2128,-0.4413,-2.4875,-0.1043,0.1933,0.0314,0.2003,
8.093529,-0.1891,0.7156,-0.2128,-0.4413,-2.4875,-0.1043,0.2242,-0.0085,0.1838,
8.109032,-0.1891,0.7156,-0.2128,-0.4413,-2.4875,-0.1043,0.2477,-0.1497,0.1342,
8.130132,-0.1510,0.7471,-0.1273,-0.4413,-2.4875,-0.1043,0.2477,-0.1497,0.1342,
8.132435,-0.1510,0.7471,-0.1273,-0.1217,-2.1684,0.8189,0.2477,-0.1497,0.1342,
8.134237,-0.1510,0.7471,-0.1273,-0.1217,-2.1684,0.8189,0.2509,-0.2690,0.0714,
8.149033,-0.1510,0.7471,-0.1273,-0.1217,-2.1684,0.8189,0.2482,-0.2589,0.0234,
8.169798,-0.1529,0.7100,-0.1187,-0.1217,-2.1684,0.8189,0.2482,-0.2589,0.0234,
8.172673,-0.1529,0.7100,-0.1187,-0.1366,-2.5139,0.9828,0.2482,-0.2589,0.0234,
8.174590,-0.1529,0.7100,-0.1187,-0.1366,-2.5139,0.9828,0.2397,-0.1364,0.0005,
8.188685,-0.1529,0.7100,-0.1187,-0.1366,-2.5139,0.9828,0.2530,0.0570,-0.0112,
8.209332,-0.2169,0.6645,-0.1361,-0.1366,-2.5139,0.9828,0.2530,0.0570,-0.0112,
8.211592,-0.2169,0.6645,-0.1361,-0.7585,-2.9373,0.9038,0.2530,0.0570,-0.0112,
8.213478,-0.2169,0.6645,-0.1361,-0.7585,-2.9373,0.9038,0.2461,0.0639,0.0069,
8.229347,-0.2169,0.6645,-0.1361,-0.7585,-2.9373,0.9038,0.2120,0.0650,0.0138,
8.249896,-0.2380,0.6249,-0.1077,-0.7585,-2.9373,0.9038,0.2120,0.0650,0.0138,
8.252239,-0.2380,0.6249,-0.1077,-0.9742,-3.3049,1.2714,0.2120,0.0650,0.0138,
8.253970,-0.2380,0.6249,-0.1077,-0.9742,-3.3049,1.2714,0.1901,0.1774,0.0133,
8.268860,-0.2380,0.6249,-0.1077,-0.9742,-3.3049,1.2714,0.1854,0.3159,-0.0091,
8.289251,-0.2106,0.8570,-0.0173,-0.9742,-3.3049,1.2714,0.1854,0.3159,-0.0091,
8.291474,-0.2106,0.8570,-0.0173,-0.7302,-1.0127,2.2411,0.1854,0.3159,-0.0091,
8.293318,-0.2106,0.8570,-0.0173,-0.7302,-1.0127,2.2411,0.2083,0.3995,-0.0762,
8.308455,-0.2106,0.8570,-0.0173,-0.7302,-1.0127,2.2411,0.2658,0.3388,-0.1726,
8.329199,-0.1590,1.3422,0.0010,-0.7302,-1.0127,2.2411,0.2658,0.3388,-0.1726,
8.331424,-0.1590,1.3422,0.0010,-0.1991,3.7576,2.4663,0.2658,0.3388,-0.1726,
8.333161,-0.1590,1.3422,0.0010,-0.1991,3.7576,2.4663,0.5119,0.5646,-0.2407,
8.348863,-0.1590,1.3422,0.0010,-0.1991,3.7576,2.4663,1.2687,1.5851,-0.1182,
8.368777,-0.1439,1.5206,-0.3999,-0.1991,3.7576,2.4663,1.2687,1.5851,-0.1182,
8.372161,-0.1439,1.5206,-0.3999,-0.0977,5.6095,-1.0722,1.2687,1.5851,-0.1182,
8.374056,-0.1439,1.5206,-0.3999,-0.0977,5.6095,-1.0722,1.5851,1.9553,0.1987,
8.388806,-0.1439,1.5206,-0.3999,-0.0977,5.6095,-1.0722,1.2703,1.4781,0.3894,
8.408554,0.1268,1.7204,-0.6648,-0.0977,5.6095,-1.0722,1.2703,1.4781,0.3894,
8.411169,0.1268,1.7204,-0.6648,2.2313,7.7345,-3.0624,1.2703,1.4781,0.3894,
8.412754,0.1268,1.7204,-0.6648,2.2313,7.7345,-3.0624,0.8378,0.9614,0.5870,
8.428203,0.1268,1.7204,-0.6648,2.2313,7.7345,-3.0624,0.7585,0.5172,0.3787,
8.449774,-0.0938,0.8846,-0.7016,2.2313,7.7345,-3.0624,0.7585,0.5172,0.3787,
8.451822,-0.0938,0.8846,-0.7016,-0.2119,-0.3573,-3.1093,0.7585,0.5172,0.3787,
8.453806,-0.0938,0.8846,-0.7016,-0.2119,-0.3573,-3.1093,0.4762,0.0027,-0.1305,
8.468507,-0.0938,0.8846,-0.7016,-0.2119,-0.3573,-3.1093,0.0650,-0.3814,-0.2439,
8.489452,-0.3540,0.8883,-0.6093,-0.2119,-0.3573,-3.1093,0.0650,-0.3814,-0.2439,
8.491889,-0.3540,0.8883,-0.6093,-2.6652,-0.2745,-2.1128,0.0650,-0.3814,-0.2439,
8.493794,-0.3540,0.8883,-0.6093,-2.6652,-0.2745,-2.1128,-0.3148,-0.3643,-0.3553,
8.510221,-0.3540,0.8883,-0.6093,-2.6652,-0.2745,-2.1128,-0.7808,-0.0075,-0.3457,
8.529001,-0.1942,0.8795,-0.3772,-2.6652,-0.2745,-2.1128,-0.7808,-0.0075,-0.3457,
8.531130,-0.1942,0.8795,-0.3772,-0.9450,-0.4305,-0.0420,-0.7808,-0.0075,-0.3457,
8.533079,-0.1942,0.8795,-0.3772,-0.9450,-0.4305,-0.0420,-1.1073,0.1204,-0.2599,
8.548388,-0.1942,0.8795,-0.3772,-0.9450,-0.4305,-0.0420,-1.0935,-0.0623,-0.2093,
8.568824,-0.0049,0.8419,-0.2377,-0.9450,-0.4305,-0.0420,-1.0935,-0.0623,-0.2093,
8.571180,-0.0049,0.8419,-0.2377,0.9934,-0.9356,0.9420,-1.0935,-0.0623,-0.2093,
8.573014,-0.0049,0.8419,-0.2377,0.9934,-0.9356,0.9420,-0.8453,-0.1752,-0.2546,
8.588442,-0.0049,0.8419,-0.2377,0.9934,-0.9356,0.9420,-0.6732,-0.3052,-0.3590,
8.609048,-0.0533,0.7195,-0.3215,0.9934,-0.9356,0.9420,-0.6732,-0.3052,-0.3590,
8.612455,-0.0533,0.7195,-0.3215,0.6612,-2.2152,-0.1660,-0.6732,-0.3052,-0.3590,
8.614166,-0.0533,0.7195,-0.3215,0.6612,-2.2152,-0.1660,-0.6775,-0.5396,-0.4144,
8.628259,-0.0533,0.7195,-0.3215,0.6612,-2.2152,-0.1660,-0.7244,-0.6631,-0.4362,
8.649280,-0.1488,0.6977,-0.3950,0.6612,-2.2152,-0.1660,-0.7244,-0.6631,-0.4362,
8.651525,-0.1488,0.6977,-0.3950,-0.0489,-2.4858,-1.1781,-0.7244,-0.6631,-0.4362,
8.653503,-0.1488,0.6977,-0.3950,-0.0489,-2.4858,-1.1781,-0.6679,-0.5907,-0.4666,
8.668747,-0.1488,0.6977,-0.3950,-0.0489,-2.4858,-1.1781,-0.4879,-0.4549,-0.4357,
8.688362,-0.1759,0.7657,-0.2746,-0.0489,-2.4858,-1.1781,-0.4879,-0.4549,-0.4357,
8.690586,-0.1759,0.7657,-0.2746,-0.0927,-1.8522,-0.2451,-0.4879,-0.4549,-0.4357,
8.692544,-0.1759,0.7657,-0.2746,-0.0927,-1.8522,-0.2451,-0.3228,-0.3063,-0.3329,
8.708352,-0.1759,0.7657,-0.2746,-0.0927,-1.8522,-0.2451,-0.2184,-0.0794,-0.2551,
8.728228,-0.1097,0.6853,-0.1383,-0.0927,-1.8522,-0.2451,-0.2184,-0.0794,-0.2551,
8.730386,-0.1097,0.6853,-0.1383,0.6845,-2.6457,0.9768,-0.2184,-0.0794,-0.2551,
8.732147,-0.1097,0.6853,-0.1383,0.6845,-2.6457,0.9768,-0.1364,0.1023,-0.2413,
8.748922,-0.1097,0.6853,-0.1383,0.6845,-2.6457,0.9768,-0.0985,0.0937,-0.2296,
8.768639,-0.0914,0.7080,-0.1542,0.6845,-2.6457,0.9768,-0.0985,0.0937,-0.2296,
8.770930,-0.0914,0.7080,-0.1542,0.9430,-2.4170,0.7843,-0.0985,0.0937,-0.2296,
8.772664,-0.0914,0.7080,-0.1542,0.9430,-2.4170,0.7843,-0.1023,-0.1262,-0.1960,
8.789087,-0.0914,0.7080,-0.1542,0.9430,-2.4170,0.7843,-0.0602,-0.2850,-0.1433,
8.809153,-0.0845,0.7366,-0.2177,0.9430,-2.4170,0.7843,-0.0602,-0.2850,-0.1433,
8.813142,-0.0845,0.7366,-0.2177,1.0921,-2.1315,0.1159,-0.0602,-0.2850,-0.1433,
8.814685,-0.0845,0.7366,-0.2177,1.0921,-2.1315,0.1159,0.0858,-0.2290,-0.0868,
8.827887,-0.0845,0.7366,-0.2177,1.0921,-2.1315,0.1159,0.3164,-0.1284,-0.0421,
8.848760,-0.1754,1.0811,-0.3660,1.0921,-2.1315,0.1159,0.3164,-0.1284,-0.0421,
8.850922,-0.1754,1.0811,-0.3660,0.2345,1.2680,-1.2682,0.3164,-0.1284,-0.0421,
8.852577,-0.1754,1.0811,-0.3660,0.2345,1.2680,-1.2682,0.4325,-0.1880,-0.0229,
8.868167,-0.1754,1.0811,-0.3660,0.2345,1.2680,-1.2682,0.0602,-0.2253,-0.0671,
8.888306,-0.3359,1.5120,-0.1204,0.2345,1.2680,-1.2682,0.0602,-0.2253,-0.0671,
8.890392,-0.3359,1.5120,-0.1204,-1.3022,5.5182,1.2133,0.0602,-0.2253,-0.0671,
8.892187,-0.3359,1.5120,-0.1204,-1.3022,5.5182,1.2133,-0.3020,-0.3153,-0.0905,
8.907954,-0.3359,1.5120,-0.1204,-1.3022,5.5182,1.2133,-0.3515,-0.6019,-0.0602,
8.929374,-0.3897,1.2171,0.0613,-1.3022,5.5182,1.2133,-0.3515,-0.6019,-0.0602,
8.932668,-0.3897,1.2171,0.0613,-1.7586,2.6042,2.8359,-0.3515,-0.6019,-0.0602,
8.934498,-0.3897,1.2171,0.0613,-1.7586,2.6042,2.8359,-0.2631,-1.0482,0.1262,
8.947797,-0.3897,1.2171,0.0613,-1.7586,2.6042,2.8359,-0.2120,-0.8016,0.3302,
8.967683,-0.4520,1.3627,-0.2211,-1.7586,2.6042,2.8359,-0.2120,-0.8016,0.3302,
8.969635,-0.4520,1.3627,-0.2211,-2.3748,3.9919,-0.0970,-0.2120,-0.8016,0.3302,
8.970739,-0.4520,1.3627,-0.2211,-2.3748,3.9919,-0.0970,-0.1486,0.1071,0.2956,
8.987732,-0.4520,1.3627,-0.2211,-2.3748,3.9919,-0.0970,0.0490,0.4565,0.1614,
9.007432,-0.5111,1.0657,-0.3887,-2.3748,3.9919,-0.0970,0.0490,0.4565,0.1614,
9.009924,-0.5111,1.0657,-0.3887,-3.0630,1.0581,-1.7357,0.0490,0.4565,0.1614,
9.011694,-0.5111,1.0657,-0.3887,-3.0630,1.0581,-1.7357,0.3116,-0.1678,0.1609,
9.027389,-0.5111,1.0657,-0.3887,-3.0630,1.0581,-1.7357,0.3718,-0.4645,0.1475,
9.048615,-0.2780,1.0332,-0.4688,-3.0630,1.0581,-1.7357,0.3718,-0.4645,0.1475,
9.050833,-0.2780,1.0332,-0.4688,-0.8097,0.7569,-2.4173,0.3718,-0.4645,0.1475,
9.052682,-0.2780,1.0332,-0.4688,-0.8097,0.7569,-2.4173,0.1561,-0.1529,0.0724,
9.068352,-0.2780,1.0332,-0.4688,-0.8097,0.7569,-2.4173,-0.0714,-0.1278,0.0415,
9.088219,-0.2849,0.9193,-0.2348,-0.8097,0.7569,-2.4173,-0.0714,-0.1278,0.0415,
9.091447,-0.2849,0.9193,-0.2348,-0.8858,-0.3595,-0.1185,-0.0714,-0.1278,0.0415,
9.093287,-0.2849,0.9193,-0.2348,-0.8858,-0.3595,-0.1185,-0.0730,-0.4197,0.0767,
9.107477,-0.2849,0.9193,-0.2348,-0.8858,-0.3595,-0.1185,-0.0107,-0.3233,0.0969,
9.127634,-0.2851,0.8030,-0.1441,-0.8858,-0.3595,-0.1185,-0.0107,-0.3233,0.0969,
9.130274,-0.2851,0.8030,-0.1441,-0.8480,-1.5000,0.7303,-0.0107,-0.3233,0.0969,
9.132286,-0.2851,0.8030,-0.1441,-0.8480,-1.5000,0.7303,0.0144,-0.0293,0.1300,
9.147989,-0.2851,0.8030,-0.1441,-0.8480,-1.5000,0.7303,0.0336,0.0613,0.1742,
9.167672,-0.2763,0.7898,-0.2358,-0.8480,-1.5000,0.7303,0.0336,0.0613,0.1742,
9.170786,-0.2763,0.7898,-0.2358,-0.7971,-1.6329,-0.1519,0.0336,0.0613,0.1742,
9.173039,-0.2763,0.7898,-0.2358,-0.7971,-1.6329,-0.1519,0.0762,-0.0218,0.2008,
9.188444,-0.2763,0.7898,-0.2358,-0.7971,-1.6329,-0.1519,0.0783,-0.0154,0.2216,
9.208682,-0.2470,0.7945,-0.2050,-0.7971,-1.6329,-0.1519,0.0783,-0.0154,0.2216,
9.213316,-0.2470,0.7945,-0.2050,-0.5832,-1.5956,0.1780,0.0783,-0.0154,0.2216,
9.215311,-0.2470,0.7945,-0.2050,-0.5832,-1.5956,0.1780,0.0138,0.0005,0.2194,
9.229205,-0.2470,0.7945,-0.2050,-0.5832,-1.5956,0.1780,-0.0495,-0.0027,0.2216,
9.247796,-0.2788,0.7300,-0.1681,-0.5832,-1.5956,0.1780,-0.0495,-0.0027,0.2216,
9.250145,-0.2788,0.7300,-0.1681,-0.9771,-2.2450,0.5328,-0.0495,-0.0027,0.2216,
9.251955,-0.2788,0.7300,-0.1681,-0.9771,-2.2450,0.5328,-0.0064,0.0000,0.2184,
9.267375,-0.2788,0.7300,-0.1681,-0.9771,-2.2450,0.5328,0.1619,-0.0607,0.2141,
9.287689,-0.2614,0.6985,-0.2133,-0.9771,-2.2450,0.5328,0.1619,-0.0607,0.2141,
9.290342,-0.2614,0.6985,-0.2133,-0.8857,-2.5619,0.1170,0.1619,-0.0607,0.2141,
9.291999,-0.2614,0.6985,-0.2133,-0.8857,-2.5619,0.1170,0.2796,-0.0714,0.2184,
9.308165,-0.2614,0.6985,-0.2133,-0.8857,-2.5619,0.1170,0.2168,-0.0916,0.2178,
9.327751,-0.1673,0.6538,-0.0711,-0.8857,-2.5619,0.1170,0.2168,-0.0916,0.2178,
9.330024,-0.1673,0.6538,-0.0711,-0.0385,-2.9920,1.5984,0.2168,-0.0916,0.2178,
9.331792,-0.1673,0.6538,-0.0711,-0.0385,-2.9920,1.5984,0.0996,-0.2147,0.1912,
9.347849,-0.1673,0.6538,-0.0711,-0.0385,-2.9920,1.5984,0.1172,-0.0437,0.1470,
9.368189,-0.1749,0.6208,-0.1251,-0.0385,-2.9920,1.5984,0.1172,-0.0437,0.1470,
9.371811,-0.1749,0.6208,-0.1251,-0.1643,-3.3158,1.1018,0.1172,-0.0437,0.1470,
9.373539,-0.1749,0.6208,-0.1251,-0.1643,-3.3158,1.1018,0.2674,0.1262,0.1380,
9.387229,-0.1749,0.6208,-0.1251,-0.1643,-3.3158,1.1018,0.3702,0.1023,0.1656,
9.408287,-0.1781,0.5722,-0.1292,-0.1643,-3.3158,1.1018,0.3702,0.1023,0.1656,
9.410768,-0.1781,0.5722,-0.1292,-0.2633,-3.7710,1.1876,0.3702,0.1023,0.1656,
9.412638,-0.1781,0.5722,-0.1292,-0.2633,-3.7710,1.1876,0.3696,0.1193,0.2088,
9.427837,-0.1781,0.5722,-0.1292,-0.2633,-3.7710,1.1876,0.2929,-0.0437,0.2285,
9.448168,-0.1246,0.7046,0.0257,-0.2633,-3.7710,1.1876,0.2929,-0.0437,0.2285,
9.450520,-0.1246,0.7046,0.0257,0.1755,-2.4526,2.8317,0.2929,-0.0437,0.2285,
9.452292,-0.1246,0.7046,0.0257,0.1755,-2.4526,2.8317,0.1204,0.0415,0.1886,
9.467412,-0.1246,0.7046,0.0257,0.1755,-2.4526,2.8317,0.0091,0.2077,0.0623,
9.487585,-0.1077,1.3105,-0.0388,0.1755,-2.4526,2.8317,0.0091,0.2077,0.0623,
9.490595,-0.1077,1.3105,-0.0388,0.2836,3.4738,2.1893,0.0091,0.2077,0.0623,
9.492326,-0.1077,1.3105,-0.0388,0.2836,3.4738,2.1893,-0.0128,0.3952,-0.0810,
9.507263,-0.1077,1.3105,-0.0388,0.2836,3.4738,2.1893,1.2400,2.2877,-0.1076,
9.528331,-0.1666,1.7859,-0.6467,0.2836,3.4738,2.1893,1.2400,2.2877,-0.1076,
9.530492,-0.1666,1.7859,-0.6467,-0.4030,8.2047,-3.4694,1.2400,2.2877,-0.1076,
9.532381,-0.1666,1.7859,-0.6467,-0.4030,8.2047,-3.4694,2.2179,2.7851,0.1987,
9.547276,-0.1666,1.7859,-0.6467,-0.4030,8.2047,-3.4694,1.4557,1.1292,0.1987,
9.567261,0.1131,1.7114,-0.8473,-0.4030,8.2047,-3.4694,1.4557,1.1292,0.1987,
9.569779,0.1131,1.7114,-0.8473,2.0144,7.7049,-4.6770,1.4557,1.1292,0.1987,
9.571366,0.1131,1.7114,-0.8473,2.0144,7.7049,-4.6770,0.8346,0.2035,0.4011,
9.587021,0.1131,1.7114,-0.8473,2.0144,7.7049,-4.6770,0.6940,-0.0884,0.3228,
9.608205,-0.0606,0.9416,-0.5419,2.0144,7.7049,-4.6770,0.6940,-0.0884,0.3228,
9.610317,-0.0606,0.9416,-0.5419,0.1736,0.2637,-1.4069,0.6940,-0.0884,0.3228,
9.611418,-0.0606,0.9416,-0.5419,0.1736,0.2637,-1.4069,0.4346,-0.1204,-0.0357,
9.626875,-0.0606,0.9416,-0.5419,0.1736,0.2637,-1.4069,0.0559,-0.2514,-0.0927,
9.647257,-0.2905,0.8983,-0.5729,0.1736,0.2637,-1.4069,0.0559,-0.2514,-0.0927,
9.649294,-0.2905,0.8983,-0.5729,-2.0270,-0.1194,-1.6292,0.0559,-0.2514,-0.0927,
9.651074,-0.2905,0.8983,-0.5729,-2.0270,-0.1194,-1.6292,-0.3398,-0.2759,-0.0996,
9.666796,-0.2905,0.8983,-0.5729,-2.0270,-0.1194,-1.6292,-0.6269,0.0000,-0.1097,
9.686854,-0.0926,0.7703,-0.4634,-2.0270,-0.1194,-1.6292,-0.6269,0.0000,-0.1097,
9.689210,-0.0926,0.7703,-0.4634,-0.0278,-1.4446,-0.7322,-0.6269,0.0000,-0.1097,
9.691101,-0.0926,0.7703,-0.4634,-0.0278,-1.4446,-0.7322,-0.7846,-0.0192,-0.1502,
9.706866,-0.0926,0.7703,-0.4634,-0.0278,-1.4446,-0.7322,-0.8559,-0.2988,-0.1758,
9.727641,-0.0132,0.6613,-0.3545,-0.0278,-1.4446,-0.7322,-0.8559,-0.2988,-0.1758,
9.730254,-0.0132,0.6613,-0.3545,0.8294,-2.6187,0.0538,-0.8559,-0.2988,-0.1758,
9.731875,-0.0132,0.6613,-0.3545,0.8294,-2.6187,0.0538,-0.8277,-0.4895,-0.2429,
9.747513,-0.0132,0.6613,-0.3545,0.8294,-2.6187,0.0538,-0.8831,-0.5683,-0.3164,
9.766991,-0.0432,0.5900,-0.3897,0.8294,-2.6187,0.0538,-0.8831,-0.5683,-0.3164,
9.769614,-0.0432,0.5900,-0.3897,0.7082,-3.4209,-0.6258,-0.8831,-0.5683,-0.3164,
9.771206,-0.0432,0.5900,-0.3897,0.7082,-3.4209,-0.6258,-1.0077,-0.5513,-0.4586,
9.786679,-0.0432,0.5900,-0.3897,0.7082,-3.4209,-0.6258,-1.1100,-0.5641,-0.5715,
9.807646,-0.1559,0.6413,-0.3757,0.7082,-3.4209,-0.6258,-1.1100,-0.5641,-0.5715,
9.809642,-0.1559,0.6413,-0.3757,-0.1386,-3.0184,-0.9088,-1.1100,-0.5641,-0.5715,
9.811196,-0.1559,0.6413,-0.3757,-0.1386,-3.0184,-0.9088,-1.0541,-0.6115,-0.6493,
9.826723,-0.1559,0.6413,-0.3757,-0.1386,-3.0184,-0.9088,-0.8661,-0.6226,-0.6914,
9.846892,-0.2883,0.7236,-0.1605,-0.1386,-3.0184,-0.9088,-0.8661,-0.6226,-0.6914,
9.849533,-0.2883,0.7236,-0.1605,-1.1229,-2.2690,0.8045,-0.8661,-0.6226,-0.6914,
9.851099,-0.2883,0.7236,-0.1605,-1.1229,-2.2690,0.8045,-0.7627,-0.4490,-0.6482,
9.866954,-0.2883,0.7236,-0.1605,-1.1229,-2.2690,0.8045,-0.6248,-0.0671,-0.5156,
9.887197,-0.1698,0.6794,-0.0611,-1.1229,-2.2690,0.8045,-0.6248,-0.0671,-0.5156,
9.890213,-0.1698,0.6794,-0.0611,0.2796,-2.7218,1.5008,-0.6248,-0.0671,-0.5156,
9.891652,-0.1698,0.6794,-0.0611,0.2796,-2.7218,1.5008,-0.4245,0.3132,-0.4495,
9.907574,-0.1698,0.6794,-0.0611,0.2796,-2.7218,1.5008,-0.3068,0.4495,-0.4565,
9.926765,-0.0999,0.6894,-0.1356,0.2796,-2.7218,1.5008,-0.3068,0.4495,-0.4565,
9.928930,-0.0999,0.6894,-0.1356,1.1030,-2.6170,0.6644,-0.3068,0.4495,-0.4565,
9.930608,-0.0999,0.6894,-0.1356,1.1030,-2.6170,0.6644,-0.3047,0.3910,-0.4037,
9.946723,-0.0999,0.6894,-0.1356,1.1030,-2.6170,0.6644,-0.3265,0.2131,-0.3292,
9.967272,-0.0242,0.6533,-0.1515,1.1030,-2.6170,0.6644,-0.3265,0.2131,-0.3292,
9.969292,-0.0242,0.6533,-0.1515,1.9588,-2.9647,0.4164,-0.3265,0.2131,-0.3292,
9.970967,-0.0242,0.6533,-0.1515,1.9588,-2.9647,0.4164,-0.3169,0.0234,-0.2557,
9.986577,-0.0242,0.6533,-0.1515,1.9588,-2.9647,0.4164,-0.2599,-0.0655,-0.1901,
10.007727,-0.0276,1.0918,-0.2284,1.9588,-2.9647,0.4164,-0.2599,-0.0655,-0.1901,
10.010374,-0.0276,1.0918,-0.2284,2.0101,1.3316,-0.4476,-0.2599,-0.0655,-0.1901,
10.012152,-0.0276,1.0918,-0.2284,2.0101,1.3316,-0.4476,-0.2423,-0.0011,-0.1981,
10.027189,-0.0276,1.0918,-0.2284,2.0101,1.3316,-0.4476,-0.5412,-0.3153,-0.1875,
10.047356,-0.2844,1.6803,-0.0987,2.0101,1.3316,-0.4476,-0.5412,-0.3153,-0.1875,
10.050666,-0.2844,1.6803,-0.0987,-0.4233,7.0903,0.6622,-0.5412,-0.3153,-0.1875,
10.052785,-0.2844,1.6803,-0.0987,-0.4233,7.0903,0.6622,-0.9065,-0.6168,-0.0485,
10.067187,-0.2844,1.6803,-0.0987,-0.4233,7.0903,0.6622,-1.0290,-0.3521,0.1731,
10.086527,-0.6941,1.9906,0.1307,-0.4233,7.0903,0.6622,-1.0290,-0.3521,0.1731,
10.089656,-0.6941,1.9906,0.1307,-4.4338,10.0700,2.5007,-1.0290,-0.3521,0.1731,
10.091370,-0.6941,1.9906,0.1307,-4.4338,10.0700,2.5007,-0.5236,1.3401,0.4117,
10.106264,-0.6941,1.9906,0.1307,-4.4338,10.0700,2.5007,0.1044,2.7399,0.5497,
10.126492,-0.6310,1.2443,-0.1207,-4.4338,10.0700,2.5007,0.1044,2.7399,0.5497,
10.128698,-0.6310,1.2443,-0.1207,-4.0986,2.7029,0.1389,0.1044,2.7399,0.5497,
10.130309,-0.6310,1.2443,-0.1207,-4.0986,2.7029,0.1389,0.0634,2.1263,0.4037,
10.146658,-0.6310,1.2443,-0.1207,-4.0986,2.7029,0.1389,-0.0591,0.6908,-0.0591,
10.166557,-0.3007,1.1773,-0.5135,-4.0986,2.7029,0.1389,-0.0591,0.6908,-0.0591,
10.169723,-0.3007,1.1773,-0.5135,-1.0048,2.0330,-3.5977,-0.0591,0.6908,-0.0591,
10.172121,-0.3007,1.1773,-0.5135,-1.0048,2.0330,-3.5977,0.1135,-0.5092,-0.1033,
10.186730,-0.3007,1.1773,-0.5135,-1.0048,2.0330,-3.5977,-0.1236,-0.7734,0.0117,
10.207184,-0.1063,1.0170,-0.1419,-1.0048,2.0330,-3.5977,-0.1236,-0.7734,0.0117,
10.210455,-0.1063,1.0170,-0.1419,0.9547,0.4658,-0.0087,-0.1236,-0.7734,0.0117,
10.212364,-0.1063,1.0170,-0.1419,0.9547,0.4658,-0.0087,-0.5161,-0.8298,0.1699,
10.227777,-0.1063,1.0170,-0.1419,0.9547,0.4658,-0.0087,-0.6221,-0.8410,0.2514,
10.246398,-0.0227,0.7769,0.0660,0.9547,0.4658,-0.0087,-0.6221,-0.8410,0.2514,
10.249169,-0.0227,0.7769,0.0660,1.7251,-1.9354,1.7395,-0.6221,-0.8410,0.2514,
10.250793,-0.0227,0.7769,0.0660,1.7251,-1.9354,1.7395,-0.4400,-0.4666,0.2328,
10.265875,-0.0227,0.7769,0.0660,1.7251,-1.9354,1.7395,-0.0394,0.0767,0.2546,
10.286238,-0.1742,0.7593,-0.0406,1.7251,-1.9354,1.7395,-0.0394,0.0767,0.2546,
10.289047,-0.1742,0.7593,-0.0406,0.1555,-2.1364,0.5875,-0.0394,0.0767,0.2546,
10.290774,-0.1742,0.7593,-0.0406,0.1555,-2.1364,0.5875,0.3196,0.0080,0.2972,
10.306554,-0.1742,0.7593,-0.0406,0.1555,-2.1364,0.5875,0.4799,-0.3254,0.3404,
10.327104,-0.2651,0.7207,-0.1808,0.1555,-2.1364,0.5875,0.4799,-0.3254,0.3404,
10.329056,-0.2651,0.7207,-0.1808,-0.8502,-2.5208,-0.6450,0.4799,-0.3254,0.3404,
10.331054,-0.2651,0.7207,-0.1808,-0.8502,-2.5208,-0.6450,0.4692,-0.5593,0.3558,
10.346487,-0.2651,0.7207,-0.1808,-0.8502,-2.5208,-0.6450,0.4032,-0.5028,0.3766,
10.367174,-0.2643,0.7319,-0.2575,-0.8502,-2.5208,-0.6450,0.4032,-0.5028,0.3766,
10.371555,-0.2643,0.7319,-0.2575,-0.9579,-2.4146,-1.2657,0.4032,-0.5028,0.3766,
10.373719,-0.2643,0.7319,-0.2575,-0.9579,-2.4146,-1.2657,0.3910,-0.3446,0.3702,
10.385774,-0.2643,0.7319,-0.2575,-0.9579,-2.4146,-1.2657,0.4810,-0.4186,0.3233,
10.406998,-0.2333,0.8480,-0.2209,-0.9579,-2.4146,-1.2657,0.4810,-0.4186,0.3233,
10.409563,-0.2333,0.8480,-0.2209,-0.7664,-1.2760,-0.7635,0.4810,-0.4186,0.3233,
10.411864,-0.2333,0.8480,-0.2209,-0.7664,-1.2760,-0.7635,0.6056,-0.4783,0.3143,
10.426454,-0.2333,0.8480,-0.2209,-0.7664,-1.2760,-0.7635,0.6163,-0.4000,0.2940,
10.446429,-0.1451,0.7925,-0.0191,-0.7664,-1.2760,-0.7635,0.6163,-0.4000,0.2940,
10.448871,-0.1451,0.7925,-0.0191,0.0078,-1.8007,1.4220,0.6163,-0.4000,0.2940,
10.450606,-0.1451,0.7925,-0.0191,0.0078,-1.8007,1.4220,0.5630,-0.2961,0.2455,
10.466419,-0.1451,0.7925,-0.0191,0.0078,-1.8007,1.4220,0.5028,-0.0128,0.2013,
10.486345,-0.2077,0.6753,-0.1424,0.0078,-1.8007,1.4220,0.5028,-0.0128,0.2013,
10.489906,-0.2077,0.6753,-0.1424,-0.6801,-2.9261,0.4076,0.5028,-0.0128,0.2013,
10.492539,-0.2077,0.6753,-0.1424,-0.6801,-2.9261,0.4076,0.4373,0.2104,0.1742,
10.507461,-0.2077,0.6753,-0.1424,-0.6801,-2.9261,0.4076,0.3499,0.3531,0.1507,
10.526001,-0.3208,0.6354,-0.3928,-0.6801,-2.9261,0.4076,0.3499,0.3531,0.1507,
10.528656,-0.3208,0.6354,-0.3928,-1.8719,-3.2953,-1.8818,0.3499,0.3531,0.1507,
10.531175,-0.3208,0.6354,-0.3928,-1.8719,-3.2953,-1.8818,0.2306,0.5385,0.1411,
10.546324,-0.3208,0.6354,-0.3928,-1.8719,-3.2953,-1.8818,0.0948,0.4794,0.1774,
10.565959,-0.2856,0.6496,-0.0415,-1.8719,-3.2953,-1.8818,0.0948,0.4794,0.1774,
10.568934,-0.2856,0.6496,-0.0415,-1.6287,-3.1511,1.6478,0.0948,0.4794,0.1774,
10.570720,-0.2856,0.6496,-0.0415,-1.6287,-3.1511,1.6478,0.0059,0.3366,0.2104,
10.586040,-0.2856,0.6496,-0.0415,-1.6287,-3.1511,1.6478,0.0011,0.4591,0.1987,
10.606479,-0.2187,0.6447,0.1099,-1.6287,-3.1511,1.6478,0.0011,0.4591,0.1987,
10.608853,-0.2187,0.6447,0.1099,-1.0833,-3.2078,3.1512,0.0011,0.4591,0.1987,
10.610633,-0.2187,0.6447,0.1099,-1.0833,-3.2078,3.1512,0.1103,0.8123,0.1422,
10.626640,-0.2187,0.6447,0.1099,-1.0833,-3.2078,3.1512,0.2929,1.0152,0.1049,
10.646410,-0.1495,1.0735,0.0474,-1.0833,-3.2078,3.1512,0.2929,1.0152,0.1049,
10.648798,-0.1495,1.0735,0.0474,-0.5303,1.0062,2.6512,0.2929,1.0152,0.1049,
10.650491,-0.1495,1.0735,0.0474,-0.5303,1.0062,2.6512,0.7031,1.3502,0.0836,
10.666366,-0.1495,1.0735,0.0474,-0.5303,1.0062,2.6512,1.6085,2.1811,0.1348,
10.686440,-0.0403,1.7597,-0.6218,-0.5303,1.0062,2.6512,1.6085,2.1811,0.1348,
10.688954,-0.0403,1.7597,-0.6218,0.3280,7.8405,-3.4109,1.6085,2.1811,0.1348,
10.690628,-0.0403,1.7597,-0.6218,0.3280,7.8405,-3.4109,2.0133,2.2205,0.1949,
10.705617,-0.0403,1.7597,-0.6218,0.3280,7.8405,-3.4109,1.4040,1.3891,0.0900,
10.725912,0.1019,1.9625,-0.6604,0.3280,7.8405,-3.4109,1.4040,1.3891,0.0900,
10.729352,0.1019,1.9625,-0.6604,1.4513,10.0305,-3.1120,1.4040,1.3891,0.0900,
10.731313,0.1019,1.9625,-0.6604,1.4513,10.0305,-3.1120,0.6477,0.6157,0.2653,
10.746088,0.1019,1.9625,-0.6604,1.4513,10.0305,-3.1120,0.6237,0.9097,0.4969,
10.765663,0.2597,1.0960,-0.4857,1.4513,10.0305,-3.1120,0.6237,0.9097,0.4969,
10.769079,0.2597,1.0960,-0.4857,2.7522,1.6217,-1.1573,0.6237,0.9097,0.4969,
10.771374,0.2597,1.0960,-0.4857,2.7522,1.6217,-1.1573,0.2557,0.7920,0.1864,
10.785518,0.2597,1.0960,-0.4857,2.7522,1.6217,-1.1573,-0.0005,0.3867,-0.1800,
10.805376,-0.1495,0.9267,-0.4437,2.7522,1.6217,-1.1573,-0.0005,0.3867,-0.1800,
10.807856,-0.1495,0.9267,-0.4437,-1.3450,-0.0192,-0.6956,-0.0005,0.3867,-0.1800,
10.809880,-0.1495,0.9267,-0.4437,-1.3450,-0.0192,-0.6956,-0.2072,-0.0831,-0.2977,
10.827515,-0.1495,0.9267,-0.4437,-1.3450,-0.0192,-0.6956,-0.4565,-0.2344,-0.2647,
10.845512,-0.0523,0.7859,-0.4659,-1.3450,-0.0192,-0.6956,-0.4565,-0.2344,-0.2647,
10.848494,-0.0523,0.7859,-0.4659,-0.2669,-1.4438,-1.0356,-0.4565,-0.2344,-0.2647,
10.850324,-0.0523,0.7859,-0.4659,-0.2669,-1.4438,-1.0356,-0.7579,-0.2248,-0.2562,
10.865984,-0.0523,0.7859,-0.4659,-0.2669,-1.4438,-1.0356,-0.9752,-0.2493,-0.3846,
10.886435,-0.0210,0.6985,-0.3726,-0.2669,-1.4438,-1.0356,-0.9752,-0.2493,-0.3846,
10.889007,-0.0210,0.6985,-0.3726,0.1856,-2.4033,-0.4129,-0.9752,-0.2493,-0.3846,
10.890792,-0.0210,0.6985,-0.3726,0.1856,-2.4033,-0.4129,-0.9795,-0.0724,-0.5316,
10.905810,-0.0210,0.6985,-0.3726,0.1856,-2.4033,-0.4129,-0.9774,0.0927,-0.6860,
10.925219,-0.0911,0.6447,-0.3454,0.1856,-2.4033,-0.4129,-0.9774,0.0927,-0.6860,
10.927273,-0.0911,0.6447,-0.3454,-0.2761,-3.0371,-0.5104,-0.9774,0.0927,-0.6860,
10.929186,-0.0911,0.6447,-0.3454,-0.2761,-3.0371,-0.5104,-1.1654,-0.1193,-0.8234,
10.944853,-0.0911,0.6447,-0.3454,-0.2761,-3.0371,-0.5104,-1.3444,-0.5012,-0.9145,
10.966233,-0.1517,0.6714,-0.2685,-0.2761,-3.0371,-0.5104,-1.3444,-0.5012,-0.9145,
10.968751,-0.1517,0.6714,-0.2685,-0.5113,-2.8808,-0.2384,-1.3444,-0.5012,-0.9145,
10.970700,-0.1517,0.6714,-0.2685,-0.5113,-2.8808,-0.2384,-1.2405,-0.7047,-0.8629,
10.986112,-0.1517,0.6714,-0.2685,-0.5113,-2.8808,-0.2384,-0.8362,-0.5401,-0.7127,
11.006341,-0.1483,0.7207,-0.2238,-0.5113,-2.8808,-0.2384,-0.8362,-0.5401,-0.7127,
11.009633,-0.1483,0.7207,-0.2238,-0.1251,-2.4514,-0.2224,-0.8362,-0.5401,-0.7127,
11.011773,-0.1483,0.7207,-0.2238,-0.1251,-2.4514,-0.2224,-0.4218,-0.1364,-0.5641,
11.025011,-0.1483,0.7207,-0.2238,-0.1251,-2.4514,-0.2224,-0.2477,0.1305,-0.4927,
11.046456,-0.1173,0.7493,-0.1373,-0.1251,-2.4514,-0.2224,-0.2477,0.1305,-0.4927,
11.048950,-0.1173,0.7493,-0.1373,0.3802,-2.1666,0.4980,-0.2477,0.1305,-0.4927,
11.050532,-0.1173,0.7493,-0.1373,0.3802,-2.1666,0.4980,-0.2530,0.2535,-0.4469,
11.065547,-0.1173,0.7493,-0.1373,0.3802,-2.1666,0.4980,-0.3111,0.2104,-0.4229,
11.085733,-0.0645,0.7026,-0.0630,0.3802,-2.1666,0.4980,-0.3111,0.2104,-0.4229,
11.088545,-0.0645,0.7026,-0.0630,1.0457,-2.6163,1.1336,-0.3111,0.2104,-0.4229,
11.090416,-0.0645,0.7026,-0.0630,1.0457,-2.6163,1.1336,-0.3084,0.0735,-0.3979,
11.105386,-0.0645,0.7026,-0.0630,1.0457,-2.6163,1.1336,-0.2434,-0.0357,-0.3345,
11.125965,-0.0244,0.6538,-0.0750,1.0457,-2.6163,1.1336,-0.2434,-0.0357,-0.3345,
11.128207,-0.0244,0.6538,-0.0750,1.5760,-3.0883,0.9129,-0.2434,-0.0357,-0.3345,
11.129936,-0.0244,0.6538,-0.0750,1.5760,-3.0883,0.9129,-0.1662,-0.0900,-0.2578,
11.145643,-0.0244,0.6538,-0.0750,1.5760,-3.0883,0.9129,-0.1225,-0.1587,-0.1901,
11.165454,0.0132,0.8531,-0.1412,1.5760,-3.0883,0.9129,-0.1225,-0.1587,-0.1901,
11.167686,0.0132,0.8531,-0.1412,2.0376,-1.1273,0.2000,-0.1225,-0.1587,-0.1901,
11.169504,0.0132,0.8531,-0.1412,2.0376,-1.1273,0.2000,-0.1699,-0.2908,-0.1518,
11.185877,0.0132,0.8531,-0.1412,2.0376,-1.1273,0.2000,-0.2935,-0.4059,-0.1182,
11.205162,-0.1312,1.2592,-0.1102,2.0376,-1.1273,0.2000,-0.2935,-0.4059,-0.1182,
11.208353,-0.1312,1.2592,-0.1102,0.6534,2.8383,0.3806,-0.2935,-0.4059,-0.1182,
11.210168,-0.1312,1.2592,-0.1102,0.6534,2.8383,0.3806,-0.4698,-0.5816,0.0032,
11.226448,-0.1312,1.2592,-0.1102,0.6534,2.8383,0.3806,-0.6029,-0.5997,0.2040,
11.245682,-0.4693,2.1931,-0.1720,0.6534,2.8383,0.3806,-0.6029,-0.5997,0.2040,
11.247541,-0.4693,2.1931,-0.1720,-2.6679,11.9547,-0.4748,-0.6029,-0.5997,0.2040,
11.249634,-0.4693,2.1931,-0.1720,-2.6679,11.9547,-0.4748,-0.6791,-0.1752,0.3856,
11.264510,-0.4693,2.1931,-0.1720,-2.6679,11.9547,-0.4748,-0.5710,1.1452,0.5870,
11.284703,-0.8179,1.6872,0.0017,-2.6679,11.9547,-0.4748,-0.5710,1.1452,0.5870,
11.287013,-0.8179,1.6872,0.0017,-6.2902,6.9333,1.0229,-0.5710,1.1452,0.5870,
11.288706,-0.8179,1.6872,0.0017,-6.2902,6.9333,1.0229,-0.2961,2.5098,0.8826,
11.304986,-0.8179,1.6872,0.0017,-6.2902,6.9333,1.0229,-0.0570,2.6999,0.5140,
11.325232,-0.5167,1.0112,-0.3689,-6.2902,6.9333,1.0229,-0.0570,2.6999,0.5140,
11.327350,-0.5167,1.0112,-0.3689,-3.7151,0.2582,-2.5191,-0.0570,2.6999,0.5140,
11.329119,-0.5167,1.0112,-0.3689,-3.7151,0.2582,-2.5191,0.2370,0.7835,-0.1912,
11.344905,-0.5167,1.0112,-0.3689,-3.7151,0.2582,-2.5191,0.5214,-1.0317,-0.1779,
11.365596,-0.1165,0.9941,-0.3755,-3.7151,0.2582,-2.5191,0.5214,-1.0317,-0.1779,
11.370588,-0.1165,0.9941,-0.3755,0.2847,0.1186,-2.4453,0.5214,-1.0317,-0.1779,
11.373692,-0.1165,0.9941,-0.3755,0.2847,0.1186,-2.4453,0.2125,-1.1958,-0.0245,
11.385116,-0.1165,0.9941,-0.3755,0.2847,0.1186,-2.4453,-0.2072,-1.2826,0.0623,
11.405444,-0.0562,0.7087,0.1405,0.2847,0.1186,-2.4453,-0.2072,-1.2826,0.0623,
11.408132,-0.0562,0.7087,0.1405,0.9514,-2.6762,2.5326,-0.2072,-1.2826,0.0623,
11.410128,-0.0562,0.7087,0.1405,0.9514,-2.6762,2.5326,-0.2993,-1.4099,0.0964,
11.428815,-0.0562,0.7087,0.1405,0.9514,-2.6762,2.5326,-0.1848,-1.0866,0.0692,
11.445079,-0.0721,0.6330,0.1837,0.9514,-2.6762,2.5326,-0.1848,-1.0866,0.0692,
11.447161,-0.0721,0.6330,0.1837,0.8173,-3.4338,2.7878,-0.1848,-1.0866,0.0692,
11.448980,-0.0721,0.6330,0.1837,0.8173,-3.4338,2.7878,-0.0213,-0.5167,0.0218,
11.465050,-0.0721,0.6330,0.1837,0.8173,-3.4338,2.7878,0.0575,-0.0788,0.0831,
11.485433,-0.1637,0.7261,-0.0948,0.8173,-3.4338,2.7878,0.0575,-0.0788,0.0831,
11.487643,-0.1637,0.7261,-0.0948,-0.0891,-2.5241,0.0473,0.0575,-0.0788,0.0831,
11.489434,-0.1637,0.7261,-0.0948,-0.0891,-2.5241,0.0473,0.0453,0.1944,0.1678,
11.504871,-0.1637,0.7261,-0.0948,-0.0891,-2.5241,0.0473,0.1486,0.5513,0.2237,
11.525423,-0.3261,0.8060,-0.3950,-0.0891,-2.5241,0.0473,0.1486,0.5513,0.2237,
11.527770,-0.3261,0.8060,-0.3950,-1.7717,-1.7488,-2.8361,0.1486,0.5513,0.2237,
11.529863,-0.3261,0.8060,-0.3950,-1.7717,-1.7488,-2.8361,0.5497,0.6535,0.2711,
11.545161,-0.3261,0.8060,-0.3950,-1.7717,-1.7488,-2.8361,1.0008,-0.1587,0.2471,
11.564481,-0.2685,0.8133,-0.2846,-1.7717,-1.7488,-2.8361,1.0008,-0.1587,0.2471,
11.566629,-0.2685,0.8133,-0.2846,-1.3168,-1.6540,-1.4416,1.0008,-0.1587,0.2471,
11.568658,-0.2685,0.8133,-0.2846,-1.3168,-1.6540,-1.4416,0.9294,-0.9476,0.3041,
11.584489,-0.2685,0.8133,-0.2846,-1.3168,-1.6540,-1.4416,0.5710,-0.7569,0.3015,
11.605005,-0.2128,0.8013,-0.0564,-1.3168,-1.6540,-1.4416,0.5710,-0.7569,0.3015,
11.607857,-0.2128,0.8013,-0.0564,-0.8368,-1.7427,1.0389,0.5710,-0.7569,0.3015,
11.610160,-0.2128,0.8013,-0.0564,-0.8368,-1.7427,1.0389,0.3121,-0.1614,0.2322,
11.628569,-0.2128,0.8013,-0.0564,-0.8368,-1.7427,1.0389,0.2301,0.1635,0.1353,
11.644662,-0.2932,0.7258,-0.2240,-0.8368,-1.7427,1.0389,0.2301,0.1635,0.1353,
11.646986,-0.2932,0.7258,-0.2240,-1.6951,-2.4736,-0.4997,0.2301,0.1635,0.1353,
11.649030,-0.2932,0.7258,-0.2240,-1.6951,-2.4736,-0.4997,0.3121,0.0341,0.0128,
11.664289,-0.2932,0.7258,-0.2240,-1.6951,-2.4736,-0.4997,0.4788,-0.1358,-0.0458,
11.684138,-0.2890,0.7657,-0.3606,-1.6951,-2.4736,-0.4997,0.4788,-0.1358,-0.0458,
11.686419,-0.2890,0.7657,-0.3606,-1.6444,-2.0547,-1.6893,0.4788,-0.1358,-0.0458,
11.688343,-0.2890,0.7657,-0.3606,-1.6444,-2.0547,-1.6893,0.4586,-0.0224,-0.0511,
11.703771,-0.2890,0.7657,-0.3606,-1.6444,-2.0547,-1.6893,0.1246,0.3329,-0.0165,
11.724491,-0.2768,0.7119,-0.1517,-1.6444,-2.0547,-1.6893,0.1246,0.3329,-0.0165,
11.726921,-0.2768,0.7119,-0.1517,-1.5239,-2.5576,0.4764,0.1246,0.3329,-0.0165,
11.728795,-0.2768,0.7119,-0.1517,-1.5239,-2.5576,0.4764,-0.0671,0.5294,-0.0027,
11.743699,-0.2768,0.7119,-0.1517,-1.5239,-2.5576,0.4764,0.0272,0.5124,-0.0181,
11.764211,-0.2301,0.7942,-0.0191,-1.5239,-2.5576,0.4764,0.0272,0.5124,-0.0181,
11.767214,-0.2301,0.7942,-0.0191,-1.1036,-1.7518,1.7932,0.0272,0.5124,-0.0181,
11.768976,-0.2301,0.7942,-0.0191,-1.1036,-1.7518,1.7932,0.1427,0.4474,-0.0639,
11.784404,-0.2301,0.7942,-0.0191,-1.1036,-1.7518,1.7932,0.1055,0.5017,-0.1369,
11.804384,-0.1757,1.1297,-0.0674,-1.1036,-1.7518,1.7932,0.1055,0.5017,-0.1369,
11.807328,-0.1757,1.1297,-0.0674,0.5507,1.5901,0.3995,0.1055,0.5017,-0.1369,
11.808906,-0.1757,1.1297,-0.0674,0.5507,1.5901,0.3995,0.0256,0.6163,-0.2493,
11.826833,-0.1757,1.1297,-0.0674,0.5507,1.5901,0.3995,0.0905,0.7132,-0.3611,
11.843838,-0.2169,1.2120,-0.1691,0.5507,1.5901,0.3995,0.0905,0.7132,-0.3611,
11.845834,-0.2169,1.2120,-0.1691,0.2288,2.4269,-0.5127,0.0905,0.7132,-0.3611,
11.847498,-0.2169,1.2120,-0.1691,0.2288,2.4269,-0.5127,0.5076,1.2512,-0.3404,
11.864266,-0.2169,1.2120,-0.1691,0.2288,2.4269,-0.5127,1.0919,1.5872,-0.1294,
11.883975,-0.0965,1.6151,-0.5771,0.2288,2.4269,-0.5127,1.0919,1.5872,-0.1294,
11.886570,-0.0965,1.6151,-0.5771,1.4215,6.4434,-4.0757,1.0919,1.5872,-0.1294,
11.888155,-0.0965,1.6151,-0.5771,1.4215,6.4434,-4.0757,0.9353,1.0322,-0.0043,
11.904365,-0.0965,1.6151,-0.5771,1.4215,6.4434,-4.0757,0.3728,0.8000,-0.0810,
11.925135,-0.0762,1.4834,-0.3936,1.4215,6.4434,-4.0757,0.3728,0.8000,-0.0810,
11.927014,-0.0762,1.4834,-0.3936,1.5716,5.2023,-1.9477,0.3728,0.8000,-0.0810,
11.928672,-0.0762,1.4834,-0.3936,1.5716,5.2023,-1.9477,0.3574,1.1611,-0.0618,
11.944659,-0.0762,1.4834,-0.3936,1.5716,5.2023,-1.9477,0.6280,1.3145,-0.1475,
11.964243,-0.1881,0.7026,-0.3530,1.5716,5.2023,-1.9477,0.6280,1.3145,-0.1475,
11.966323,-0.1881,0.7026,-0.3530,0.4127,-2.3995,-1.2540,0.6280,1.3145,-0.1475,
11.968191,-0.1881,0.7026,-0.3530,0.4127,-2.3995,-1.2540,0.7814,1.0136,-0.2839,
11.983858,-0.1881,0.7026,-0.3530,0.4127,-2.3995,-1.2540,0.6226,0.5065,-0.3212,
12.004508,-0.3083,0.7278,-0.5487,0.4127,-2.3995,-1.2540,0.6226,0.5065,-0.3212,
12.007509,-0.3083,0.7278,-0.5487,-0.7292,-2.0515,-2.8134,0.6226,0.5065,-0.3212,
12.009460,-0.3083,0.7278,-0.5487,-0.7292,-2.0515,-2.8134,0.0778,0.1784,-0.2684,
12.026195,-0.3083,0.7278,-0.5487,-0.7292,-2.0515,-2.8134,-0.5124,0.4485,-0.4011,
12.044427,-0.2340,0.8289,-0.3980,-0.7292,-2.0515,-2.8134,-0.5124,0.4485,-0.4011,
12.046759,-0.2340,0.8289,-0.3980,0.0837,-1.0359,-1.3264,-0.5124,0.4485,-0.4011,
12.048541,-0.2340,0.8289,-0.3980,0.0837,-1.0359,-1.3264,-0.7563,1.0887,-0.4165,
12.063774,-0.2340,0.8289,-0.3980,0.0837,-1.0359,-1.3264,-0.8229,1.0866,-0.3015,
12.084132,0.0100,0.7246,-0.3007,0.0837,-1.0359,-1.3264,-0.8229,1.0866,-0.3015,
12.088169,0.0100,0.7246,-0.3007,2.4972,-2.1018,-0.5557,-0.8229,1.0866,-0.3015,
12.089990,0.0100,0.7246,-0.3007,2.4972,-2.1018,-0.5557,-0.8517,0.6306,-0.2679,
12.103576,0.0100,0.7246,-0.3007,2.4972,-2.1018,-0.5557,-0.9284,0.1230,-0.3430,
12.123967,-0.0608,0.6775,-0.5465,2.4972,-2.1018,-0.5557,-0.9284,0.1230,-0.3430,
12.126937,-0.0608,0.6775,-0.5465,1.8808,-2.6143,-3.2561,-0.9284,0.1230,-0.3430,
12.129025,-0.0608,0.6775,-0.5465,1.8808,-2.6143,-3.2561,-0.8778,0.4048,-0.4352,
12.144237,-0.0608,0.6775,-0.5465,1.8808,-2.6143,-3.2561,-0.5657,0.4064,-0.4698,
12.163851,-0.2025,0.7886,-0.2277,1.8808,-2.6143,-3.2561,-0.5657,0.4064,-0.4698,
12.166288,-0.2025,0.7886,-0.2277,0.6277,-1.5362,-0.3575,-0.5657,0.4064,-0.4698,
12.168201,-0.2025,0.7886,-0.2277,0.6277,-1.5362,-0.3575,-0.3174,-0.4224,-0.3973,
12.183790,-0.2025,0.7886,-0.2277,0.6277,-1.5362,-0.3575,-0.3238,-0.5055,-0.3483,
12.203783,-0.2196,0.7815,-0.0799,0.6277,-1.5362,-0.3575,-0.3238,-0.5055,-0.3483,
12.206392,-0.2196,0.7815,-0.0799,0.6309,-1.5884,0.9225,-0.3238,-0.5055,-0.3483,
12.208341,-0.2196,0.7815,-0.0799,0.6309,-1.5884,0.9225,-0.3878,0.0522,-0.2674,
12.223662,-0.2196,0.7815,-0.0799,0.6309,-1.5884,0.9225,-0.4309,0.6541,-0.1886,
12.244139,-0.1097,0.9440,-0.3584,0.6309,-1.5884,0.9225,-0.4309,0.6541,-0.1886,
12.246186,-0.1097,0.9440,-0.3584,1.7664,0.0023,-1.9139,-0.4309,0.6541,-0.1886,
12.247835,-0.1097,0.9440,-0.3584,1.7664,0.0023,-1.9139,-0.3494,1.2900,-0.1401,
12.263807,-0.1097,0.9440,-0.3584,1.7664,0.0023,-1.9139,0.0740,1.6165,-0.0394,
12.284003,-0.0300,0.7285,-0.6367,1.7664,0.0023,-1.9139,0.0740,1.6165,-0.0394,
12.286237,-0.0300,0.7285,-0.6367,2.4795,-2.1076,-4.5168,0.0740,1.6165,-0.0394,
12.288114,-0.0300,0.7285,-0.6367,2.4795,-2.1076,-4.5168,0.6876,0.4953,-0.0650,
12.303116,-0.0300,0.7285,-0.6367,2.4795,-2.1076,-4.5168,0.8037,-0.2423,-0.0687,
12.323644,-0.1671,0.9802,-0.2243,2.4795,-2.1076,-4.5168,0.8037,-0.2423,-0.0687,
12.325916,-0.1671,0.9802,-0.2243,1.1245,0.4204,-0.1550,0.8037,-0.2423,-0.0687,
12.327542,-0.1671,0.9802,-0.2243,1.1245,0.4204,-0.1550,0.5566,-0.2514,-0.0453,
12.344203,-0.1671,0.9802,-0.2243,1.1245,0.4204,-0.1550,0.6855,0.0932,-0.0740,
12.363511,-0.2834,1.8198,-0.4012,1.1245,0.4204,-0.1550,0.6855,0.0932,-0.0740,
12.365748,-0.2834,1.8198,-0.4012,0.0131,8.7091,-1.6700,0.6855,0.0932,-0.0740,
12.367472,-0.2834,1.8198,-0.4012,0.0131,8.7091,-1.6700,1.6293,1.3225,-0.1843,
12.383603,-0.2834,1.8198,-0.4012,0.0131,8.7091,-1.6700,-0.0879,-1.6544,-0.2621,
12.403035,-0.4058,1.3119,-0.0173,0.0131,8.7091,-1.6700,-0.0879,-1.6544,-0.2621,
12.405310,-0.4058,1.3119,-0.0173,-1.0851,3.8316,2.3505,-0.0879,-1.6544,-0.2621,
12.407134,-0.4058,1.3119,-0.0173,-1.0851,3.8316,2.3505,-1.3955,-2.7841,-0.0437,
12.422600,-0.4058,1.3119,-0.0173,-1.0851,3.8316,2.3505,-1.2006,-0.4980,-0.0485,
12.442631,-0.6157,1.2340,0.1195,-1.0851,3.8316,2.3505,-1.2006,-0.4980,-0.0485,
12.444484,-0.6157,1.2340,0.1195,-2.9768,2.9615,3.0257,-1.2006,-0.4980,-0.0485,
12.445543,-0.6157,1.2340,0.1195,-2.9768,2.9615,3.0257,-0.9358,1.9249,-0.1204,
12.463156,-0.6157,1.2340,0.1195,-2.9768,2.9615,3.0257,-1.1089,2.4858,-0.2370,
12.483942,-0.6169,1.2616,-0.0232,-2.9768,2.9615,3.0257,-1.1089,2.4858,-0.2370,
12.486184,-0.6169,1.2616,-0.0232,-3.0817,3.1800,1.5183,-1.1089,2.4858,-0.2370,
12.487838,-0.6169,1.2616,-0.0232,-3.0817,3.1800,1.5183,-1.2666,2.4506,-0.3894,
12.503421,-0.6169,1.2616,-0.0232,-3.0817,3.1800,1.5183,-1.2980,1.9036,-0.4852,
12.522998,-0.2844,1.0004,-0.0740,-3.0817,3.1800,1.5183,-1.2980,1.9036,-0.4852,
12.524938,-0.2844,1.0004,-0.0740,0.1937,0.5879,0.8064,-1.2980,1.9036,-0.4852,
12.526224,-0.2844,1.0004,-0.0740,0.1937,0.5879,0.8064,-1.2075,1.4749,-0.4570,
12.542876,-0.2844,1.0004,-0.0740,0.1937,0.5879,0.8064,-1.1217,1.2986,-0.3984,
12.562737,-0.1556,0.8722,-0.1407,0.1937,0.5879,0.8064,-1.1217,1.2986,-0.3984,
12.564680,-0.1556,0.8722,-0.1407,1.5325,-0.6840,-0.1125,-1.1217,1.2986,-0.3984,
12.566434,-0.1556,0.8722,-0.1407,1.5325,-0.6840,-0.1125,-1.0466,1.2224,-0.3329,
12.583457,-0.1556,0.8722,-0.1407,1.5325,-0.6840,-0.1125,-0.9774,1.0988,-0.2898,
12.603145,-0.1119,0.7512,-0.1170,1.5325,-0.6840,-0.1125,-0.9774,1.0988,-0.2898,
12.606266,-0.1119,0.7512,-0.1170,2.0086,-1.8819,-0.1094,-0.9774,1.0988,-0.2898,
12.608290,-0.1119,0.7512,-0.1170,2.0086,-1.8819,-0.1094,-0.9870,0.8858,-0.2509,
12.622740,-0.1119,0.7512,-0.1170,2.0086,-1.8819,-0.1094,-1.0392,0.8623,-0.1784,
12.642930,-0.1422,0.7610,-0.0254,2.0086,-1.8819,-0.1094,-1.0392,0.8623,-0.1784,
12.645073,-0.1422,0.7610,-0.0254,1.7593,-1.7959,0.5234,-1.0392,0.8623,-0.1784,
12.646745,-0.1422,0.7610,-0.0254,1.7593,-1.7959,0.5234,-1.0349,0.9294,-0.0884,
12.663152,-0.1422,0.7610,-0.0254,1.7593,-1.7959,0.5234,-0.9188,0.8304,0.0027,
12.682689,-0.2377,0.7901,0.0049,1.7593,-1.7959,0.5234,-0.9188,0.8304,0.0027,
12.685661,-0.2377,0.7901,0.0049,0.8162,-1.5309,0.5697,-0.9188,0.8304,0.0027,
12.687487,-0.2377,0.7901,0.0049,0.8162,-1.5309,0.5697,-0.7286,0.8756,0.1427,
12.702595,-0.2377,0.7901,0.0049,0.8162,-1.5309,0.5697,-0.5358,1.2043,0.2232,
12.724433,-0.3582,0.7720,-0.1363,0.8162,-1.5309,0.5697,-0.5358,1.2043,0.2232,
12.727620,-0.3582,0.7720,-0.1363,-0.4508,-1.7423,-0.9198,-0.5358,1.2043,0.2232,
12.729470,-0.3582,0.7720,-0.1363,-0.4508,-1.7423,-0.9198,-0.3633,1.3316,0.2338,
12.744231,-0.3582,0.7720,-0.1363,-0.4508,-1.7423,-0.9198,-0.0629,1.1340,0.2594,
12.763122,-0.3721,0.9565,-0.3218,-0.4508,-1.7423,-0.9198,-0.0629,1.1340,0.2594,
12.765667,-0.3721,0.9565,-0.3218,-0.6945,0.0353,-2.6449,-0.0629,1.1340,0.2594,
12.767457,-0.3721,0.9565,-0.3218,-0.6945,0.0353,-2.6449,0.3286,0.8527,0.2727,
12.782639,-0.3721,0.9565,-0.3218,-0.6945,0.0353,-2.6449,0.2232,0.5912,0.2700,
12.802744,-0.3433,1.1365,0.0718,-0.6945,0.0353,-2.6449,0.2232,0.5912,0.2700,
12.805245,-0.3433,1.1365,0.0718,-0.5257,1.7766,1.3989,0.2232,0.5912,0.2700,
12.806955,-0.3433,1.1365,0.0718,-0.5257,1.7766,1.3989,-0.0442,0.6237,0.2322,
12.822291,-0.3433,1.1365,0.0718,-0.5257,1.7766,1.3989,-0.0485,0.5033,0.2663,
12.842386,-0.1879,1.2098,0.0645,-0.5257,1.7766,1.3989,-0.0485,0.5033,0.2663,
12.844868,-0.1879,1.2098,0.0645,0.8875,2.4658,1.3725,-0.0485,0.5033,0.2663,
12.846499,-0.1879,1.2098,0.0645,0.8875,2.4658,1.3725,0.2589,0.3057,0.3233,
12.864156,-0.1879,1.2098,0.0645,0.8875,2.4658,1.3725,0.6493,0.4389,0.3824,
12.882846,-0.2360,1.6261,-0.1493,0.8875,2.4658,1.3725,0.6493,0.4389,0.3824,
12.884939,-0.2360,1.6261,-0.1493,0.2709,6.5235,-0.5125,0.6493,0.4389,0.3824,
12.886539,-0.2360,1.6261,-0.1493,0.2709,6.5235,-0.5125,0.7372,0.2850,0.3441,
12.902625,-0.2360,1.6261,-0.1493,0.2709,6.5235,-0.5125,0.5593,-0.2514,0.3931,
12.922772,-0.1566,0.8595,-0.0210,0.2709,6.5235,-0.5125,0.5593,-0.2514,0.3931,
12.924921,-0.1566,0.8595,-0.0210,0.9104,-0.9985,0.9901,0.5593,-0.2514,0.3931,
12.926591,-0.1566,0.8595,-0.0210,0.9104,-0.9985,0.9901,0.3563,-0.3601,0.4426,
12.944263,-0.1566,0.8595,-0.0210,0.9104,-0.9985,0.9901,0.2072,-0.1864,0.4389,
12.962815,-0.0687,0.7190,0.0376,0.9104,-0.9985,0.9901,0.2072,-0.1864,0.4389,
12.965040,-0.0687,0.7190,0.0376,1.6025,-2.4107,1.6182,0.2072,-0.1864,0.4389,
12.966670,-0.0687,0.7190,0.0376,1.6025,-2.4107,1.6182,0.0458,-0.0032,0.3047,
12.982920,-0.0687,0.7190,0.0376,1.6025,-2.4107,1.6182,-0.1113,0.2189,0.1209,
13.002646,-0.0914,0.9582,0.0388,1.6025,-2.4107,1.6182,-0.1113,0.2189,0.1209,
13.006491,-0.0914,0.9582,0.0388,1.2729,-0.0964,1.5956,-0.1113,0.2189,0.1209,
13.008372,-0.0914,0.9582,0.0388,1.2729,-0.0964,1.5956,-0.1406,0.4133,-0.0091,
13.022072,-0.0914,0.9582,0.0388,1.2729,-0.0964,1.5956,0.1662,0.6956,-0.0629,
13.043363,-0.2062,1.1583,0.0491,1.2729,-0.0964,1.5956,0.1662,0.6956,-0.0629,
13.045723,-0.2062,1.1583,0.0491,0.1220,1.8617,1.7202,0.1662,0.6956,-0.0629,
13.047191,-0.2062,1.1583,0.0491,0.1220,1.8617,1.7202,0.9145,1.4376,0.0314,
13.062648,-0.2062,1.1583,0.0491,0.1220,1.8617,1.7202,1.4599,1.7172,0.2674,
13.083080,-0.1011,0.9599,-0.2345,0.1220,1.8617,1.7202,1.4599,1.7172,0.2674,
13.085195,-0.1011,0.9599,-0.2345,0.9773,-0.0327,-0.5121,1.4599,1.7172,0.2674,
13.086901,-0.1011,0.9599,-0.2345,0.9773,-0.0327,-0.5121,1.2245,1.3508,0.3409,
13.102014,-0.1011,0.9599,-0.2345,0.9773,-0.0327,-0.5121,0.8064,1.1659,0.1630,
13.122505,-0.1371,0.7918,-0.1832,0.9773,-0.0327,-0.5121,0.8064,1.1659,0.1630,
13.124819,-0.1371,0.7918,-0.1832,0.4239,-1.6204,0.4544,0.8064,1.1659,0.1630,
13.126540,-0.1371,0.7918,-0.1832,0.4239,-1.6204,0.4544,0.5491,1.2251,-0.0080,
13.142298,-0.1371,0.7918,-0.1832,0.4239,-1.6204,0.4544,0.4005,1.2767,-0.0266,
13.163075,-0.0691,0.7930,-0.2084,0.4239,-1.6204,0.4544,0.4005,1.2767,-0.0266,
13.165327,-0.0691,0.7930,-0.2084,0.9766,-1.5622,0.4708,0.4005,1.2767,-0.0266,
13.167014,-0.0691,0.7930,-0.2084,0.9766,-1.5622,0.4708,0.2029,1.1015,0.0240,
13.182613,-0.0691,0.7930,-0.2084,0.9766,-1.5622,0.4708,0.0107,0.8485,0.0442,
13.202824,0.1204,0.7964,-0.2296,0.9766,-1.5622,0.4708,0.0107,0.8485,0.0442,
13.205001,0.1204,0.7964,-0.2296,2.7216,-1.5199,0.3645,0.0107,0.8485,0.0442,
13.206681,0.1204,0.7964,-0.2296,2.7216,-1.5199,0.3645,-0.1390,0.6365,-0.0341,
13.222185,0.1204,0.7964,-0.2296,2.7216,-1.5199,0.3645,-0.2951,0.4080,-0.2242,
13.242758,0.0303,0.7881,-0.2929,2.7216,-1.5199,0.3645,-0.2951,0.4080,-0.2242,
13.244927,0.0303,0.7881,-0.2929,1.8321,-1.6160,-0.3047,-0.2951,0.4080,-0.2242,
13.246656,0.0303,0.7881,-0.2929,1.8321,-1.6160,-0.3047,-0.4527,0.3521,-0.3590,
13.262126,0.0303,0.7881,-0.2929,1.8321,-1.6160,-0.3047,-0.6083,0.4453,-0.3712,
13.281746,-0.0713,0.7429,-0.2607,1.8321,-1.6160,-0.3047,-0.6083,0.4453,-0.3712,
13.283947,-0.0713,0.7429,-0.2607,0.9330,-2.0883,-0.1616,-0.6083,0.4453,-0.3712,
13.285768,-0.0713,0.7429,-0.2607,0.9330,-2.0883,-0.1616,-0.7846,0.3617,-0.4357,
13.301279,-0.0713,0.7429,-0.2607,0.9330,-2.0883,-0.1616,-0.7958,0.1827,-0.6040,
13.321793,-0.2267,0.7872,-0.2101,0.9330,-2.0883,-0.1616,-0.7958,0.1827,-0.6040,
13.323652,-0.2267,0.7872,-0.2101,-0.4195,-1.6906,0.0560,-0.7958,0.1827,-0.6040,
13.325360,-0.2267,0.7872,-0.2101,-0.4195,-1.6906,0.0560,-0.5720,0.0618,-0.7393,
13.341894,-0.2267,0.7872,-0.2101,-0.4195,-1.6906,0.0560,-0.3462,-0.0762,-0.6871,
13.361916,-0.1749,0.9066,-0.1700,-0.4195,-1.6906,0.0560,-0.3462,-0.0762,-0.6871,
13.364865,-0.1749,0.9066,-0.1700,0.3563,-0.5019,0.2756,-0.3462,-0.0762,-0.6871,
13.366529,-0.1749,0.9066,-0.1700,0.3563,-0.5019,0.2756,-0.3340,-0.0916,-0.5891,
13.382315,-0.1749,0.9066,-0.1700,0.3563,-0.5019,0.2756,-0.3792,0.0037,-0.5944,
13.402761,-0.0982,0.8895,-0.0782,0.3563,-0.5019,0.2756,-0.3792,0.0037,-0.5944,
13.406555,-0.0982,0.8895,-0.0782,1.3331,-0.6446,1.0385,-0.3792,0.0037,-0.5944,
13.408922,-0.0982,0.8895,-0.0782,1.3331,-0.6446,1.0385,-0.3531,0.0810,-0.6072,
13.424829,-0.0982,0.8895,-0.0782,1.3331,-0.6446,1.0385,-0.2381,0.0916,-0.5784,
13.441986,-0.0428,0.7307,-0.1016,1.3331,-0.6446,1.0385,-0.2381,0.0916,-0.5784,
13.443957,-0.0428,0.7307,-0.1016,2.0918,-2.1646,0.7066,-0.2381,0.0916,-0.5784,
13.445781,-0.0428,0.7307,-0.1016,2.0918,-2.1646,0.7066,-0.1023,0.0650,-0.5071,
13.461958,-0.0428,0.7307,-0.1016,2.0918,-2.1646,0.7066,-0.0192,0.0266,-0.4346,
13.482083,0.0193,0.7810,-0.2402,2.0918,-2.1646,0.7066,-0.0192,0.0266,-0.4346,
13.484136,0.0193,0.7810,-0.2402,2.8717,-1.6267,-0.6687,-0.0192,0.0266,-0.4346,
13.486013,0.0193,0.7810,-0.2402,2.8717,-1.6267,-0.6687,-0.0389,0.0543,-0.3931,
13.502407,0.0193,0.7810,-0.2402,2.8717,-1.6267,-0.6687,-0.1108,0.1614,-0.3984,
13.522236,-0.0012,0.6516,-0.2050,2.8717,-1.6267,-0.6687,-0.1108,0.1614,-0.3984,
13.524376,-0.0012,0.6516,-0.2050,2.8098,-2.8571,-0.3397,-0.1108,0.1614,-0.3984,
13.526203,-0.0012,0.6516,-0.2050,2.8098,-2.8571,-0.3397,-0.1119,0.2631,-0.3542,
13.542399,-0.0012,0.6516,-0.2050,2.8098,-2.8571,-0.3397,0.0549,0.2583,-0.2929,
13.562147,-0.0718,0.4945,-0.1534,2.8098,-2.8571,-0.3397,0.0549,0.2583,-0.2929,
13.564317,-0.0718,0.4945,-0.1534,2.2197,-4.3613,0.1849,0.0549,0.2583,-0.2929,
13.565968,-0.0718,0.4945,-0.1534,2.2197,-4.3613,0.1849,-0.0181,-0.2471,-0.3675,
13.582018,-0.0718,0.4945,-0.1534,2.2197,-4.3613,0.1849,-0.4021,-0.7095,-0.3984,
13.601604,-0.1832,0.9736,-0.1036,2.2197,-4.3613,0.1849,-0.4021,-0.7095,-0.3984,
13.603698,-0.1832,0.9736,-0.1036,1.2997,0.3661,0.5384,-0.4021,-0.7095,-0.3984,
13.605333,-0.1832,0.9736,-0.1036,1.2997,0.3661,0.5384,-0.8133,-0.7627,-0.4043,
13.621974,-0.1832,0.9736,-0.1036,1.2997,0.3661,0.5384,-1.2080,-0.6786,-0.3973,
13.643276,-0.5641,2.1638,0.1363,1.2997,0.3661,0.5384,-1.2080,-0.6786,-0.3973,
13.646487,-0.5641,2.1638,0.1363,-2.2473,12.0286,2.4273,-1.2080,-0.6786,-0.3973,
13.648683,-0.5641,2.1638,0.1363,-2.2473,12.0286,2.4273,-1.5297,-0.8021,-0.2642,
13.661158,-0.5641,2.1638,0.1363,-2.2473,12.0286,2.4273,-1.1297,-0.3505,0.2573,
13.681987,-0.6364,1.6750,0.3332,-2.2473,12.0286,2.4273,-1.1297,-0.3505,0.2573,
13.684398,-0.6364,1.6750,0.3332,-2.9355,7.1954,3.7925,-1.1297,-0.3505,0.2573,
13.686061,-0.6364,1.6750,0.3332,-2.9355,7.1954,3.7925,1.0349,2.6147,0.0442,
13.701063,-0.6364,1.6750,0.3332,-2.9355,7.1954,3.7925,0.7670,1.6719,0.2344,
13.721359,-0.4478,0.9396,-0.1783,-2.9355,7.1954,3.7925,0.7670,1.6719,0.2344,
13.723808,-0.4478,0.9396,-0.1783,-1.2092,0.0011,-0.6106,0.7670,1.6719,0.2344,
13.725651,-0.4478,0.9396,-0.1783,-1.2092,0.0011,-0.6106,-0.3515,0.5832,0.0378,
13.741098,-0.4478,0.9396,-0.1783,-1.2092,0.0011,-0.6106,-0.9135,0.2056,-0.1790,
13.761706,-0.3928,1.0850,-0.0315,-1.2092,0.0011,-0.6106,-0.9135,0.2056,-0.1790,
13.764768,-0.3928,1.0850,-0.0315,-0.6619,1.4079,0.6454,-0.9135,0.2056,-0.1790,
13.766745,-0.3928,1.0850,-0.0315,-0.6619,1.4079,0.6454,0.3702,1.3630,0.0426,
13.781965,-0.3928,1.0850,-0.0315,-0.6619,1.4079,0.6454,0.8107,0.7585,0.3297,
13.802222,-0.1901,0.9804,-0.3367,-0.6619,1.4079,0.6454,0.8107,0.7585,0.3297,
13.804844,-0.1901,0.9804,-0.3367,1.2104,0.3871,-1.9941,0.8107,0.7585,0.3297,
13.806597,-0.1901,0.9804,-0.3367,1.2104,0.3871,-1.9941,0.3739,-0.7009,0.2924,
13.821282,-0.1901,0.9804,-0.3367,1.2104,0.3871,-1.9941,0.0975,-1.0051,0.1364,
13.841584,-0.3205,0.6982,-0.0809,1.2104,0.3871,-1.9941,0.0975,-1.0051,0.1364,
13.845148,-0.3205,0.6982,-0.0809,-0.0995,-2.3911,0.4944,0.0975,-1.0051,0.1364,
13.846845,-0.3205,0.6982,-0.0809,-0.0995,-2.3911,0.4944,-0.0341,-0.6919,-0.0064,
13.861443,-0.3205,0.6982,-0.0809,-0.0995,-2.3911,0.4944,-0.0133,-0.1257,-0.0091,
13.881798,-0.2563,0.6748,-0.1197,-0.0995,-2.3911,0.4944,-0.0133,-0.1257,-0.0091,
13.883992,-0.2563,0.6748,-0.1197,0.5536,-2.6212,0.0552,-0.0133,-0.1257,-0.0091,
13.885811,-0.2563,0.6748,-0.1197,0.5536,-2.6212,0.0552,0.2882,0.4405,0.0117,
13.901586,-0.2563,0.6748,-0.1197,0.5536,-2.6212,0.0552,0.6908,0.4202,0.0431,
13.921969,-0.2419,0.6870,-0.1864,0.5536,-2.6212,0.0552,0.6908,0.4202,0.0431,
13.923941,-0.2419,0.6870,-0.1864,0.6619,-2.4784,-0.3656,0.6908,0.4202,0.0431,
13.925879,-0.2419,0.6870,-0.1864,0.6619,-2.4784,-0.3656,0.7665,0.0266,0.0075,
13.941594,-0.2419,0.6870,-0.1864,0.6619,-2.4784,-0.3656,0.5406,-0.0815,-0.0330,
13.961483,-0.2670,0.6472,-0.1219,0.6619,-2.4784,-0.3656,0.5406,-0.0815,-0.0330,
13.963646,-0.2670,0.6472,-0.1219,0.4219,-2.8259,0.5030,0.5406,-0.0815,-0.0330,
13.965455,-0.2670,0.6472,-0.1219,0.4219,-2.8259,0.5030,0.3430,0.2967,0.0197,
13.981027,-0.2670,0.6472,-0.1219,0.4219,-2.8259,0.5030,0.2360,0.8916,0.1465,
14.001540,-0.2824,0.6594,-0.0858,0.4219,-2.8259,0.5030,0.2360,0.8916,0.1465,
14.005137,-0.2824,0.6594,-0.0858,0.1978,-2.6956,1.0346,0.2360,0.8916,0.1465,
14.006802,-0.2824,0.6594,-0.0858,0.1978,-2.6956,1.0346,0.1433,1.2522,0.2386,
14.021010,-0.2824,0.6594,-0.0858,0.1978,-2.6956,1.0346,0.0229,1.3358,0.2306,
14.041066,-0.2966,0.6816,-0.0821,0.1978,-2.6956,1.0346,0.0229,1.3358,0.2306,
14.043065,-0.2966,0.6816,-0.0821,-0.1288,-2.4982,1.2494,0.0229,1.3358,0.2306,
14.045047,-0.2966,0.6816,-0.0821,-0.1288,-2.4982,1.2494,-0.0804,1.3513,0.1092,
14.060627,-0.2966,0.6816,-0.0821,-0.1288,-2.4982,1.2494,-0.0570,1.3779,-0.0064,
14.080010,-0.3093,0.7361,-0.0599,-0.1288,-2.4982,1.2494,-0.0570,1.3779,-0.0064,
14.081008,-0.3093,0.7361,-0.0599,-0.3874,-1.9757,1.5895,-0.0570,1.3779,-0.0064,
14.081728,-0.3093,0.7361,-0.0599,-0.3874,-1.9757,1.5895,0.1411,1.3492,-0.0272,
14.100163,-0.3093,0.7361,-0.0599,-0.3874,-1.9757,1.5895,0.2786,1.3097,0.0426,
14.120438,-0.1534,1.1758,0.0535,-0.3874,-1.9757,1.5895,0.2786,1.3097,0.0426,
14.122842,-0.1534,1.1758,0.0535,1.0161,2.3440,2.8828,0.2786,1.3097,0.0426,
14.124360,-0.1534,1.1758,0.0535,1.0161,2.3440,2.8828,0.2589,1.1302,0.0597,
14.141826,-0.1534,1.1758,0.0535,1.0161,2.3440,2.8828,0.2221,0.7739,0.0149,
14.160552,-0.0406,1.6791,0.0281,1.0161,2.3440,2.8828,0.2221,0.7739,0.0149,
14.162385,-0.0406,1.6791,0.0281,2.0155,7.2959,2.8157,0.2221,0.7739,0.0149,
14.163874,-0.0406,1.6791,0.0281,2.0155,7.2959,2.8157,0.8240,1.6320,0.1214,
14.180623,-0.0406,1.6791,0.0281,2.0155,7.2959,2.8157,1.4914,2.6605,0.2642,
14.200508,0.0809,1.8345,-0.5297,2.0155,7.2959,2.8157,1.4914,2.6605,0.2642,
14.202461,0.0809,1.8345,-0.5297,2.8914,8.9332,-2.0353,1.4914,2.6605,0.2642,
14.204088,0.0809,1.8345,-0.5297,2.8914,8.9332,-2.0353,1.2149,2.1406,0.4091,
14.220156,0.0809,1.8345,-0.5297,2.8914,8.9332,-2.0353,0.9401,1.6458,0.6141,
14.240272,0.2463,1.1331,-0.5165,2.8914,8.9332,-2.0353,0.9401,1.6458,0.6141,
14.242161,0.2463,1.1331,-0.5165,4.0699,2.1688,-1.3758,0.9401,1.6458,0.6141,
14.243410,0.2463,1.1331,-0.5165,4.0699,2.1688,-1.3758,0.7643,0.9998,0.3675,
14.260175,0.2463,1.1331,-0.5165,4.0699,2.1688,-1.3758,0.4985,0.1848,-0.0623,
14.281327,-0.1351,0.8578,-0.5152,4.0699,2.1688,-1.3758,0.4985,0.1848,-0.0623,
14.283322,-0.1351,0.8578,-0.5152,0.1886,-0.4429,-1.1024,0.4985,0.1848,-0.0623,
14.285172,-0.1351,0.8578,-0.5152,0.1886,-0.4429,-1.1024,0.1880,-0.2919,-0.2738,
14.301189,-0.1351,0.8578,-0.5152,0.1886,-0.4429,-1.1024,-0.2407,-0.2498,-0.4213,
14.320493,-0.1226,0.8878,-0.5003,0.1886,-0.4429,-1.1024,-0.2407,-0.2498,-0.4213,
14.322719,-0.1226,0.8878,-0.5003,0.4761,-0.1303,-0.9827,-0.2407,-0.2498,-0.4213,
14.324587,-0.1226,0.8878,-0.5003,0.4761,-0.1303,-0.9827,-0.6711,0.0117,-0.4192,
14.340541,-0.1226,0.8878,-0.5003,0.4761,-0.1303,-0.9827,-1.0866,-0.1907,-0.4820,
14.360628,0.0203,0.7806,-0.2353,0.4761,-0.1303,-0.9827,-1.0866,-0.1907,-0.4820,
14.362791,0.0203,0.7806,-0.2353,1.9934,-1.2929,1.2976,-1.0866,-0.1907,-0.4820,
14.364608,0.0203,0.7806,-0.2353,1.9934,-1.2929,1.2976,-1.3263,-0.6802,-0.6402,
14.380466,0.0203,0.7806,-0.2353,1.9934,-1.2929,1.2976,-1.3641,-1.0338,-0.8464,
14.401274,-0.0555,0.6816,-0.1852,1.9934,-1.2929,1.2976,-1.3641,-1.0338,-0.8464,
14.403641,-0.0555,0.6816,-0.1852,1.6318,-2.3827,1.2363,-1.3641,-1.0338,-0.8464,
14.405305,-0.0555,0.6816,-0.1852,1.6318,-2.3827,1.2363,-1.3598,-1.1702,-1.0131,
14.420122,-0.0555,0.6816,-0.1852,1.6318,-2.3827,1.2363,-1.3657,-0.9758,-0.9960,
14.441870,-0.1791,0.6318,-0.1669,1.6318,-2.3827,1.2363,-1.3657,-0.9758,-0.9960,
14.443937,-0.1791,0.6318,-0.1669,0.9037,-2.9237,0.8176,-1.3657,-0.9758,-0.9960,
14.445807,-0.1791,0.6318,-0.1669,0.9037,-2.9237,0.8176,-1.1814,-0.4160,-0.8155,
14.460584,-0.1791,0.6318,-0.1669,0.9037,-2.9237,0.8176,-0.8192,0.2125,-0.5747,
14.480261,-0.1759,0.6714,-0.2467,0.9037,-2.9237,0.8176,-0.8192,0.2125,-0.5747,
14.482255,-0.1759,0.6714,-0.2467,1.1984,-2.5484,-0.3404,-0.8192,0.2125,-0.5747,
14.483907,-0.1759,0.6714,-0.2467,1.1984,-2.5484,-0.3404,-0.4772,0.4815,-0.3558,
14.500223,-0.1759,0.6714,-0.2467,1.1984,-2.5484,-0.3404,-0.2860,0.3633,-0.2157,
14.520731,-0.1586,0.6740,-0.1796,1.1984,-2.5484,-0.3404,-0.2860,0.3633,-0.2157,
14.522875,-0.1586,0.6740,-0.1796,1.4383,-2.5193,0.2288,-0.2860,0.3633,-0.2157,
14.524595,-0.1586,0.6740,-0.1796,1.4383,-2.5193,0.2288,-0.1726,0.2253,-0.1688,
14.541947,-0.1586,0.6740,-0.1796,1.4383,-2.5193,0.2288,-0.1135,0.2226,-0.1747,
14.559979,-0.1774,0.6779,-0.1058,1.4383,-2.5193,0.2288,-0.1135,0.2226,-0.1747,
14.562105,-0.1774,0.6779,-0.1058,1.2988,-2.4716,0.9268,-0.1135,0.2226,-0.1747,
14.563773,-0.1774,0.6779,-0.1058,1.2988,-2.4716,0.9268,-0.0538,0.2647,-0.1683,
14.579951,-0.1774,0.6779,-0.1058,1.2988,-2.4716,0.9268,0.0133,0.1784,-0.1561,
14.600403,-0.1146,0.6640,-0.0960,1.2988,-2.4716,0.9268,0.0133,0.1784,-0.1561,
14.603179,-0.1146,0.6640,-0.0960,1.9557,-2.5898,1.0422,0.0133,0.1784,-0.1561,
14.604755,-0.1146,0.6640,-0.0960,1.9557,-2.5898,1.0422,0.0304,-0.0905,-0.1710,
14.619949,-0.1146,0.6640,-0.0960,1.9557,-2.5898,1.0422,-0.0043,-0.5800,-0.1891,
14.640318,-0.1182,0.9887,-0.0638,1.9557,-2.5898,1.0422,-0.0043,-0.5800,-0.1891,
14.642305,-0.1182,0.9887,-0.0638,2.0115,0.6156,1.3210,-0.0043,-0.5800,-0.1891,
14.643831,-0.1182,0.9887,-0.0638,2.0115,0.6156,1.3210,-0.0437,-1.0610,-0.2099,
14.660652,-0.1182,0.9887,-0.0638,2.0115,0.6156,1.3210,-0.0597,-1.4690,-0.2173,
14.680498,-0.2685,1.5946,0.0210,2.0115,0.6156,1.3210,-0.0597,-1.4690,-0.2173,
14.682322,-0.2685,1.5946,0.0210,0.7101,6.5771,1.9684,-0.0597,-1.4690,-0.2173,
14.683907,-0.2685,1.5946,0.0210,0.7101,6.5771,1.9684,-0.1140,-2.0890,-0.1017,
14.700173,-0.2685,1.5946,0.0210,0.7101,6.5771,1.9684,-0.1928,-2.7521,0.3079,
14.720531,-0.4588,1.8623,0.0366,0.7101,6.5771,1.9684,-0.1928,-2.7521,0.3079,
14.722501,-0.4588,1.8623,0.0366,-1.0403,9.1773,1.7357,-0.1928,-2.7521,0.3079,
14.724221,-0.4588,1.8623,0.0366,-1.0403,9.1773,1.7357,-0.1518,-2.5843,0.7638,
14.741482,-0.4588,1.8623,0.0366,-1.0403,9.1773,1.7357,0.0953,-0.3702,0.8815,
14.760127,-0.5072,1.4004,-0.0845,-1.0403,9.1773,1.7357,0.0953,-0.3702,0.8815,
14.762038,-0.5072,1.4004,-0.0845,-1.7400,4.5379,0.3369,0.0953,-0.3702,0.8815,
14.763624,-0.5072,1.4004,-0.0845,-1.7400,4.5379,0.3369,-0.0336,1.7619,0.6354,
14.780163,-0.5072,1.4004,-0.0845,-1.7400,4.5379,0.3369,-0.5577,2.9220,0.2642,
14.800294,-0.7168,1.1612,-0.1498,-1.7400,4.5379,0.3369,-0.5577,2.9220,0.2642,
14.803396,-0.7168,1.1612,-0.1498,-4.0789,2.1227,-0.1250,-0.5577,2.9220,0.2642,
14.805738,-0.7168,1.1612,-0.1498,-4.0789,2.1227,-0.1250,-0.7920,3.2469,-0.1486,
14.819470,-0.7168,1.1612,-0.1498,-4.0789,2.1227,-0.1250,-0.3270,2.8650,-0.3180,
14.840418,-0.6601,0.9125,-0.4424,-4.0789,2.1227,-0.1250,-0.3270,2.8650,-0.3180,
14.842649,-0.6601,0.9125,-0.4424,-3.6078,-0.3187,-2.8469,-0.3270,2.8650,-0.3180,
14.844689,-0.6601,0.9125,-0.4424,-3.6078,-0.3187,-2.8469,0.2253,0.6509,0.0666,
14.860801,-0.6601,0.9125,-0.4424,-3.6078,-0.3187,-2.8469,0.2226,-1.2123,0.2120,
14.880505,-0.1713,0.8155,-0.3110,-3.6078,-0.3187,-2.8469,0.2226,-1.2123,0.2120,
14.882829,-0.1713,0.8155,-0.3110,1.1492,-1.2711,-1.5074,0.2226,-1.2123,0.2120,
14.884696,-0.1713,0.8155,-0.3110,1.1492,-1.2711,-1.5074,-0.0415,-1.2655,0.0272,
14.900390,-0.1713,0.8155,-0.3110,1.1492,-1.2711,-1.5074,-0.2461,-0.7835,-0.1001,
14.919237,-0.1945,0.7434,-0.0203,1.1492,-1.2711,-1.5074,-0.2461,-0.7835,-0.1001,
14.921328,-0.1945,0.7434,-0.0203,1.0031,-1.9779,1.1788,-0.2461,-0.7835,-0.1001,
14.922966,-0.1945,0.7434,-0.0203,1.0031,-1.9779,1.1788,-0.2908,-0.3649,-0.0368,
14.941927,-0.1945,0.7434,-0.0203,1.0031,-1.9779,1.1788,-0.1465,-0.0868,0.0762,
14.960146,-0.1774,0.6767,0.0621,1.0031,-1.9779,1.1788,-0.1465,-0.0868,0.0762,
14.962121,-0.1774,0.6767,0.0621,1.1755,-2.6453,1.8783,-0.1465,-0.0868,0.0762,
14.963750,-0.1774,0.6767,0.0621,1.1755,-2.6453,1.8783,0.1609,0.2631,0.1411,
14.980244,-0.1774,0.6767,0.0621,1.1755,-2.6453,1.8783,0.4155,0.5470,0.1870,
15.000010,-0.2963,0.6640,-0.1928,1.1755,-2.6453,1.8783,0.4155,0.5470,0.1870,
15.002383,-0.2963,0.6640,-0.1928,-0.0731,-2.7731,-0.4656,0.4155,0.5470,0.1870,
15.004425,-0.2963,0.6640,-0.1928,-0.0731,-2.7731,-0.4656,0.5827,0.6248,0.2637,
15.019658,-0.2963,0.6640,-0.1928,-0.0731,-2.7731,-0.4656,0.7100,0.5140,0.3190,
15.039991,-0.2585,0.7073,-0.1981,-0.0731,-2.7731,-0.4656,0.7100,0.5140,0.3190,
15.042389,-0.2585,0.7073,-0.1981,0.1544,-2.3407,-0.2157,0.7100,0.5140,0.3190,
15.044188,-0.2585,0.7073,-0.1981,0.1544,-2.3407,-0.2157,0.6738,0.2285,0.3419,
15.059602,-0.2585,0.7073,-0.1981,0.1544,-2.3407,-0.2157,0.4671,0.0394,0.3206,
15.079105,-0.2240,0.7300,-0.0809,0.1544,-2.3407,-0.2157,0.4671,0.0394,0.3206,
15.081446,-0.2240,0.7300,-0.0809,0.3596,-2.1108,1.1588,0.4671,0.0394,0.3206,
15.083348,-0.2240,0.7300,-0.0809,0.3596,-2.1108,1.1588,0.3031,0.1822,0.2647,
15.099636,-0.2240,0.7300,-0.0809,0.3596,-2.1108,1.1588,0.2477,0.4575,0.1704,
15.119886,-0.2367,0.7065,-0.1263,0.3596,-2.1108,1.1588,0.2477,0.4575,0.1704,
15.122773,-0.2367,0.7065,-0.1263,0.1287,-2.3403,0.8472,0.2477,0.4575,0.1704,
15.124441,-0.2367,0.7065,-0.1263,0.1287,-2.3403,0.8472,0.2578,0.4991,0.0575,
15.139693,-0.2367,0.7065,-0.1263,0.1287,-2.3403,0.8472,0.2913,0.3680,0.0091,
15.159645,-0.2487,0.6970,-0.2069,0.1287,-2.3403,0.8472,0.2913,0.3680,0.0091,
15.161787,-0.2487,0.6970,-0.2069,-0.0382,-2.4132,0.2006,0.2913,0.3680,0.0091,
15.163616,-0.2487,0.6970,-0.2069,-0.0382,-2.4132,0.2006,0.3020,0.2605,0.0069,
15.179938,-0.2487,0.6970,-0.2069,-0.0382,-2.4132,0.2006,0.2988,0.3201,0.0405,
15.199119,-0.2338,0.6892,-0.1480,-0.0382,-2.4132,0.2006,0.2988,0.3201,0.0405,
15.201315,-0.2338,0.6892,-0.1480,0.0724,-2.4645,0.9160,0.2988,0.3201,0.0405,
15.202917,-0.2338,0.6892,-0.1480,0.0724,-2.4645,0.9160,0.2716,0.3888,0.0842,
15.219279,-0.2338,0.6892,-0.1480,0.0724,-2.4645,0.9160,0.2088,0.4027,0.0591,
15.239772,-0.2038,0.9926,-0.0501,0.0724,-2.4645,0.9160,0.2088,0.4027,0.0591,
15.242364,-0.2038,0.9926,-0.0501,0.3021,0.5257,2.0013,0.2088,0.4027,0.0591,
15.243779,-0.2038,0.9926,-0.0501,0.3021,0.5257,2.0013,0.0905,0.5353,-0.0517,
15.259566,-0.2038,0.9926,-0.0501,0.3021,0.5257,2.0013,-0.0820,0.6951,-0.1561,
15.279092,-0.2538,1.3989,-0.1229,0.3021,0.5257,2.0013,-0.0820,0.6951,-0.1561,
15.279945,-0.2538,1.3989,-0.1229,-0.2127,4.5171,1.3455,-0.0820,0.6951,-0.1561,
15.280572,-0.2538,1.3989,-0.1229,-0.2127,4.5171,1.3455,-0.1395,0.8437,-0.2205,
15.299425,-0.2538,1.3989,-0.1229,-0.2127,4.5171,1.3455,0.2951,1.5569,-0.3212,
15.319486,-0.2206,1.4937,-0.3454,-0.2127,4.5171,1.3455,0.2951,1.5569,-0.3212,
15.322380,-0.2206,1.4937,-0.3454,0.0875,5.4790,-0.6985,0.2951,1.5569,-0.3212,
15.324487,-0.2206,1.4937,-0.3454,0.0875,5.4790,-0.6985,0.8027,1.8424,-0.2961,
