
time,gFx,gFy,gFz,ax,ay,az,wx,wy,wz,
0.009162,0.0000,0.0000,0.0000,0.0000,0.0000,0.0000,0.0346,-0.6732,0.2855,
0.029924,-0.0774,0.0496,1.4778,0.0000,0.0000,0.0000,0.0346,-0.6732,0.2855,
0.031253,-0.0774,0.0496,1.4778,0.0000,0.0000,0.0000,0.0346,-0.6732,0.2855,
0.049875,-0.0774,0.0496,1.4778,0.0000,0.0000,0.0000,0.0346,-0.6732,0.2855,
0.069936,-0.0300,0.1014,1.0552,0.0000,0.0000,0.0000,0.0346,-0.6732,0.2855,
0.071504,-0.0300,0.1014,1.0552,-0.0166,0.0560,0.5828,0.0346,-0.6732,0.2855,
0.072866,-0.0300,0.1014,1.0552,-0.0166,0.0560,0.5828,0.0346,-0.6732,0.2855,
0.089141,-0.0300,0.1014,1.0552,-0.0166,0.0560,0.5828,1.1579,1.1356,-0.0959,
0.110944,-0.0911,0.1647,0.9655,-0.0166,0.0560,0.5828,1.1579,1.1356,-0.0959,
0.113205,-0.0911,0.1647,0.9655,-0.3552,0.3852,-0.2526,1.1579,1.1356,-0.0959,
0.114941,-0.0911,0.1647,0.9655,-0.3552,0.3852,-0.2526,1.2346,1.3838,-0.0895,
0.129838,-0.0911,0.1647,0.9655,-0.3552,0.3852,-0.2526,1.3822,1.3481,-0.1065,
0.149898,-0.0611,0.2245,0.8275,-0.3552,0.3852,-0.2526,1.3822,1.3481,-0.1065,
0.153049,-0.0611,0.2245,0.8275,0.0022,0.4524,-1.5218,1.3822,1.3481,-0.1065,
0.154623,-0.0611,0.2245,0.8275,0.0022,0.4524,-1.5218,1.4514,1.2448,-0.1843,
0.169431,-0.0611,0.2245,0.8275,0.0022,0.4524,-1.5218,1.4360,1.4717,-0.2322,
0.189671,-0.0721,0.3252,0.8311,0.0022,0.4524,-1.5218,1.4360,1.4717,-0.2322,
0.191997,-0.0721,0.3252,0.8311,-0.0243,0.6757,-1.3101,1.4360,1.4717,-0.2322,
0.193685,-0.0721,0.3252,0.8311,-0.0243,0.6757,-1.3101,1.6224,1.7827,-0.3031,
0.211354,-0.0721,0.3252,0.8311,-0.0243,0.6757,-1.3101,1.7811,1.9100,-0.3201,
0.230682,-0.1964,0.4065,0.7769,-0.0243,0.6757,-1.3101,1.7811,1.9100,-0.3201,
0.233744,-0.1964,0.4065,0.7769,-0.6139,0.6301,-1.5080,1.7811,1.9100,-0.3201,
0.235767,-0.1964,0.4065,0.7769,-0.6139,0.6301,-1.5080,1.8339,1.6283,-0.3473,
0.249414,-0.1964,0.4065,0.7769,-0.6139,0.6301,-1.5080,1.8690,1.2714,-0.4091,
0.269563,-0.2460,0.4940,0.7471,-0.6139,0.6301,-1.5080,1.8690,1.2714,-0.4091,
0.272765,-0.2460,0.4940,0.7471,-0.5230,0.6398,-1.3362,1.8690,1.2714,-0.4091,
0.274469,-0.2460,0.4940,0.7471,-0.5230,0.6398,-1.3362,2.0650,1.1856,-0.4751,
0.289313,-0.2460,0.4940,0.7471,-0.5230,0.6398,-1.3362,2.2466,1.1910,-0.5001,
0.309563,-0.4244,0.6073,0.4803,-0.5230,0.6398,-1.3362,2.2466,1.1910,-0.5001,
0.311735,-0.4244,0.6073,0.4803,-0.9718,0.4959,-2.7927,2.2466,1.1910,-0.5001,
0.313520,-0.4244,0.6073,0.4803,-0.9718,0.4959,-2.7927,2.1662,1.2000,-0.3867,
0.329062,-0.4244,0.6073,0.4803,-0.9718,0.4959,-2.7927,1.8765,1.0722,-0.3404,
0.349617,-0.4095,0.6054,0.4200,-0.9718,0.4959,-2.7927,1.8765,1.0722,-0.3404,
0.351726,-0.4095,0.6054,0.4200,-0.4161,-0.0550,-2.7677,1.8765,1.0722,-0.3404,
0.353597,-0.4095,0.6054,0.4200,-0.4161,-0.0550,-2.7677,1.6075,0.7867,-0.5172,
0.369897,-0.4095,0.6054,0.4200,-0.4161,-0.0550,-2.7677,1.3279,0.4495,-0.7084,
0.389625,-0.7104,0.6750,0.4454,-0.4161,-0.0550,-2.7677,1.3279,0.4495,-0.7084,
0.392135,-0.7104,0.6750,0.4454,-3.0346,0.3285,-2.0557,1.3279,0.4495,-0.7084,
0.393844,-0.7104,0.6750,0.4454,-3.0346,0.3285,-2.0557,1.1079,0.1891,-0.6322,
0.409603,-0.7104,0.6750,0.4454,-3.0346,0.3285,-2.0557,1.1542,0.2887,-0.3249,
0.429607,-0.6740,0.7273,0.4573,-3.0346,0.3285,-2.0557,1.1542,0.2887,-0.3249,
0.431665,-0.6740,0.7273,0.4573,-2.4347,0.6323,-1.5667,1.1542,0.2887,-0.3249,
0.433286,-0.6740,0.7273,0.4573,-2.4347,0.6323,-1.5667,1.2879,0.3649,-0.1374,
0.448955,-0.6740,0.7273,0.4573,-2.4347,0.6323,-1.5667,1.2053,-0.0027,-0.0852,
0.468986,-0.5223,0.7532,0.3552,-2.4347,0.6323,-1.5667,1.2053,-0.0027,-0.0852,
0.471414,-0.5223,0.7532,0.3552,-0.8302,0.6038,-2.1618,1.2053,-0.0027,-0.0852,
0.473082,-0.5223,0.7532,0.3552,-0.8302,0.6038,-2.1618,1.0179,-0.3952,-0.1720,
0.489440,-0.5223,0.7532,0.3552,-0.8302,0.6038,-2.1618,0.9406,-0.2903,-0.1864,
0.509436,-0.5319,0.8106,0.4837,-0.8302,0.6038,-2.1618,0.9406,-0.2903,-0.1864,
0.511250,-0.5319,0.8106,0.4837,-0.9218,0.9740,-0.6615,0.9406,-0.2903,-0.1864,
0.512708,-0.5319,0.8106,0.4837,-0.9218,0.9740,-0.6615,1.1409,0.2610,-0.1305,
0.528671,-0.5319,0.8106,0.4837,-0.9218,0.9740,-0.6615,1.2075,0.4730,-0.0863,
0.548530,-0.5680,0.8446,0.4019,-0.9218,0.9740,-0.6615,1.2075,0.4730,-0.0863,
0.550909,-0.5680,0.8446,0.4019,-1.1552,1.0778,-1.0502,1.2075,0.4730,-0.0863,
0.552608,-0.5680,0.8446,0.4019,-1.1552,1.0778,-1.0502,1.0621,0.2200,-0.1662,
0.568404,-0.5680,0.8446,0.4019,-1.1552,1.0778,-1.0502,0.8085,-0.1278,-0.3633,
0.588832,-0.6484,0.9306,0.4187,-1.1552,1.0778,-1.0502,0.8085,-0.1278,-0.3633,
0.590934,-0.6484,0.9306,0.4187,-1.8565,1.7870,-0.6054,0.8085,-0.1278,-0.3633,
0.592734,-0.6484,0.9306,0.4187,-1.8565,1.7870,-0.6054,0.7111,-0.1033,-0.3622,
0.608855,-0.6484,0.9306,0.4187,-1.8565,1.7870,-0.6054,0.7196,-0.0336,-0.2471,
0.628530,-0.4158,0.7337,0.7053,-1.8565,1.7870,-0.6054,0.7196,-0.0336,-0.2471,
0.630730,-0.4158,0.7337,0.7053,0.4998,-0.2190,2.4007,0.7196,-0.0336,-0.2471,
0.632416,-0.4158,0.7337,0.7053,0.4998,-0.2190,2.4007,1.0328,0.4384,-0.2125,
0.649362,-0.4158,0.7337,0.7053,0.4998,-0.2190,2.4007,1.8312,0.8559,-0.2615,
0.669189,-0.6560,0.8402,0.3110,0.4998,-0.2190,2.4007,1.8312,0.8559,-0.2615,
0.672746,-0.6560,0.8402,0.3110,-1.6722,0.6272,-0.9133,1.8312,0.8559,-0.2615,
0.674471,-0.6560,0.8402,0.3110,-1.6722,0.6272,-0.9133,1.9542,0.9476,-0.0501,
0.688489,-0.6560,0.8402,0.3110,-1.6722,0.6272,-0.9133,1.3454,0.4511,-0.0202,
0.708578,-0.4757,0.7031,0.3037,-1.6722,0.6272,-0.9133,1.3454,0.4511,-0.0202,
0.710691,-0.4757,0.7031,0.3037,0.2190,-0.9353,-0.3569,1.3454,0.4511,-0.0202,
0.712445,-0.4757,0.7031,0.3037,0.2190,-0.9353,-0.3569,0.9742,0.1848,-0.1278,
0.728755,-0.4757,0.7031,0.3037,0.2190,-0.9353,-0.3569,0.9513,0.5326,-0.1939,
0.748282,-0.5832,0.7537,0.3955,0.2190,-0.9353,-0.3569,0.9513,0.5326,-0.1939,
0.750269,-0.5832,0.7537,0.3955,-0.7267,-0.5117,0.8909,0.9513,0.5326,-0.1939,
0.751801,-0.5832,0.7537,0.3955,-0.7267,-0.5117,0.8909,1.0946,0.6743,-0.2242,
0.768662,-0.5832,0.7537,0.3955,-0.7267,-0.5117,0.8909,1.2794,0.2317,-0.1321,
0.789147,-0.5621,0.7112,0.1937,-0.7267,-0.5117,0.8909,1.2794,0.2317,-0.1321,
0.792822,-0.5621,0.7112,0.1937,-0.3975,-1.0066,-0.6361,1.2794,0.2317,-0.1321,
0.795373,-0.5621,0.7112,0.1937,-0.3975,-1.0066,-0.6361,0.9518,-0.2301,-0.2461,
0.810172,-0.5621,0.7112,0.1937,-0.3975,-1.0066,-0.6361,0.7824,-0.3382,-0.3782,
0.828745,-0.5949,0.7175,0.1586,-0.3975,-1.0066,-0.6361,0.7824,-0.3382,-0.3782,
0.831761,-0.5949,0.7175,0.1586,-0.6294,-0.9521,-0.7664,0.7824,-0.3382,-0.3782,
0.834436,-0.5949,0.7175,0.1586,-0.6294,-0.9521,-0.7664,0.7329,-0.1944,-0.3979,
0.848424,-0.5949,0.7175,0.1586,-0.6294,-0.9521,-0.7664,0.6354,-0.1800,-0.3047,
0.868899,-0.4605,0.7652,0.1339,-0.6294,-0.9521,-0.7664,0.6354,-0.1800,-0.3047,
0.871676,-0.4605,0.7652,0.1339,0.7850,-0.4712,-0.8286,0.6354,-0.1800,-0.3047,
0.873716,-0.4605,0.7652,0.1339,0.7850,-0.4712,-0.8286,0.4964,-0.4053,-0.1726,
0.889262,-0.4605,0.7652,0.1339,0.7850,-0.4712,-0.8286,0.3228,-0.7222,-0.1065,
0.908836,-0.3484,0.8099,0.1051,0.7850,-0.4712,-0.8286,0.3228,-0.7222,-0.1065,
0.910922,-0.3484,0.8099,0.1051,1.8794,-0.0393,-1.0989,0.3228,-0.7222,-0.1065,
0.912625,-0.3484,0.8099,0.1051,1.8794,-0.0393,-1.0989,0.1843,-0.7585,-0.1007,
0.928264,-0.3484,0.8099,0.1051,1.8794,-0.0393,-1.0989,0.2535,0.4911,-0.2487,
0.949470,-0.3371,0.9814,0.0694,1.8794,-0.0393,-1.0989,0.2535,0.4911,-0.2487,
0.951881,-0.3371,0.9814,0.0694,2.0066,1.6367,-1.3874,0.2535,0.4911,-0.2487,
0.953437,-0.3371,0.9814,0.0694,2.0066,1.6367,-1.3874,0.5678,2.9481,-0.7776,
0.968648,-0.3371,0.9814,0.0694,2.0066,1.6367,-1.3874,0.6003,2.1018,-0.4842,
0.988925,-0.3735,0.9701,0.1488,2.0066,1.6367,-1.3874,0.6003,2.1018,-0.4842,
0.991305,-0.3735,0.9701,0.1488,1.9549,1.5781,0.1309,0.6003,2.1018,-0.4842,
0.992829,-0.3735,0.9701,0.1488,1.9549,1.5781,0.1309,0.4533,-0.1827,0.4655,
1.009002,-0.3735,0.9701,0.1488,1.9549,1.5781,0.1309,0.8495,0.4394,0.6685,
1.028221,-0.5123,0.9218,0.2460,1.9549,1.5781,0.1309,0.8495,0.4394,0.6685,
1.030581,-0.5123,0.9218,0.2460,0.3867,0.9277,1.3022,0.8495,0.4394,0.6685,
1.032236,-0.5123,0.9218,0.2460,0.3867,0.9277,1.3022,1.2549,0.3803,0.8767,
1.048760,-0.5123,0.9218,0.2460,0.3867,0.9277,1.3022,1.5814,-0.7627,1.2208,
1.068283,-0.4121,0.7957,0.0054,0.3867,0.9277,1.3022,1.5814,-0.7627,1.2208,
1.070044,-0.4121,0.7957,0.0054,0.9995,-0.5870,-0.6382,1.5814,-0.7627,1.2208,
1.071879,-0.4121,0.7957,0.0054,0.9995,-0.5870,-0.6382,1.5825,-0.8426,0.9923,
1.088341,-0.4121,0.7957,0.0054,0.9995,-0.5870,-0.6382,1.2757,-0.9513,0.7334,
1.107946,-0.5753,0.7405,0.1683,0.9995,-0.5870,-0.6382,1.2757,-0.9513,0.7334,
1.109932,-0.5753,0.7405,0.1683,-0.9032,-1.3214,1.2467,1.2757,-0.9513,0.7334,
1.111803,-0.5753,0.7405,0.1683,-0.9032,-1.3214,1.2467,1.1585,-1.5058,0.6653,
1.128307,-0.5753,0.7405,0.1683,-0.9032,-1.3214,1.2467,1.1175,-1.6000,0.5135,
1.147887,-0.5629,0.7422,-0.0002,-0.9032,-1.3214,1.2467,1.1175,-1.6000,0.5135,
1.150246,-0.5629,0.7422,-0.0002,-0.9898,-1.4206,-0.3069,1.1175,-1.6000,0.5135,
1.151564,-0.5629,0.7422,-0.0002,-0.9898,-1.4206,-0.3069,0.7963,-1.2975,0.2088,
1.167925,-0.5629,0.7422,-0.0002,-0.9898,-1.4206,-0.3069,0.4346,-1.1425,0.0522,
1.188063,-0.6860,0.8292,0.0432,-0.9898,-1.4206,-0.3069,0.4346,-1.1425,0.0522,
1.191242,-0.6860,0.8292,0.0432,-2.2006,-0.5698,0.1027,0.4346,-1.1425,0.0522,
1.193276,-0.6860,0.8292,0.0432,-2.2006,-0.5698,0.1027,0.0959,-1.3374,-0.0469,
1.208411,-0.6860,0.8292,0.0432,-2.2006,-0.5698,0.1027,-0.2099,-1.6341,-0.1848,
1.227994,-0.7573,0.7332,0.1087,-2.2006,-0.5698,0.1027,-0.2099,-1.6341,-0.1848,
1.230262,-0.7573,0.7332,0.1087,-2.8242,-1.4551,0.4500,-0.2099,-1.6341,-0.1848,
1.232004,-0.7573,0.7332,0.1087,-2.8242,-1.4551,0.4500,-0.4426,-1.8195,-0.3585,
1.247996,-0.7573,0.7332,0.1087,-2.8242,-1.4551,0.4500,-0.2876,-1.8509,-0.4447,
1.267815,-0.9621,0.8287,0.2052,-2.8242,-1.4551,0.4500,-0.2876,-1.8509,-0.4447,
1.270213,-0.9621,0.8287,0.2052,-4.7553,-0.4325,0.9305,-0.2876,-1.8509,-0.4447,
1.272190,-0.9621,0.8287,0.2052,-4.7553,-0.4325,0.9305,0.0373,-1.6868,-0.4416,
1.287452,-0.9621,0.8287,0.2052,-4.7553,-0.4325,0.9305,0.2812,-1.7982,-0.6040,
1.308563,-1.1023,0.8346,0.1087,-4.7553,-0.4325,0.9305,0.2812,-1.7982,-0.6040,
1.310209,-1.1023,0.8346,0.1087,-6.0373,-0.2846,-0.2894,0.2812,-1.7982,-0.6040,
1.311788,-1.1023,0.8346,0.1087,-6.0373,-0.2846,-0.2894,0.3739,-1.9942,-0.7920,
1.328465,-1.1023,0.8346,0.1087,-6.0373,-0.2846,-0.2894,0.1470,-2.0554,-0.9326,
1.347842,-1.0139,0.6865,-0.2145,-6.0373,-0.2846,-0.2894,0.1470,-2.0554,-0.9326,
1.350640,-1.0139,0.6865,-0.2145,-5.0026,-1.5837,-3.7615,0.1470,-2.0554,-0.9326,
1.352411,-1.0139,0.6865,-0.2145,-5.0026,-1.5837,-3.7615,-0.3419,-1.7598,-1.4061,
1.368749,-1.0139,0.6865,-0.2145,-5.0026,-1.5837,-3.7615,-0.2029,-1.0301,-1.9569,
1.387290,-0.8497,0.6858,0.0095,-5.0026,-1.5837,-3.7615,-0.2029,-1.0301,-1.9569,
1.389084,-0.8497,0.6858,0.0095,-2.9504,-1.2250,-1.9390,-0.2029,-1.0301,-1.9569,
1.390693,-0.8497,0.6858,0.0095,-2.9504,-1.2250,-1.9390,0.3851,-0.6605,-2.1881,
1.408203,-0.8497,0.6858,0.0095,-2.9504,-1.2250,-1.9390,0.8043,-0.2898,-2.3297,
1.427284,-0.8123,0.7359,0.1024,-2.9504,-1.2250,-1.9390,0.8043,-0.2898,-2.3297,
1.429293,-0.8123,0.7359,0.1024,-1.9266,-0.2673,-0.9537,0.8043,-0.2898,-2.3297,
1.431278,-0.8123,0.7359,0.1024,-1.9266,-0.2673,-0.9537,1.0253,-0.2562,-2.4501,
1.447228,-0.8123,0.7359,0.1024,-1.9266,-0.2673,-0.9537,1.4951,0.1955,-2.5982,
1.467466,-0.4292,0.5917,0.0039,-1.9266,-0.2673,-0.9537,1.4951,0.1955,-2.5982,
1.469529,-0.4292,0.5917,0.0039,2.5574,-1.1258,-1.5331,1.4951,0.1955,-2.5982,
1.471367,-0.4292,0.5917,0.0039,2.5574,-1.1258,-1.5331,1.2629,0.1071,-2.4442,
1.487508,-0.4292,0.5917,0.0039,2.5574,-1.1258,-1.5331,1.0088,1.1127,-2.1050,
1.508725,-0.3484,0.8626,0.0562,2.5574,-1.1258,-1.5331,1.0088,1.1127,-2.1050,
1.510780,-0.3484,0.8626,0.0562,3.9688,2.0915,-0.5365,1.0088,1.1127,-2.1050,
1.512813,-0.3484,0.8626,0.0562,3.9688,2.0915,-0.5365,0.6935,1.7486,-1.3193,
1.528201,-0.3484,0.8626,0.0562,3.9688,2.0915,-0.5365,-0.0937,0.8709,0.0218,
1.547908,-0.4248,0.4344,0.0506,3.9688,2.0915,-0.5365,-0.0937,0.8709,0.0218,
1.549766,-0.4248,0.4344,0.0506,3.4255,-1.9232,-0.1233,-0.0937,0.8709,0.0218,
1.551602,-0.4248,0.4344,0.0506,3.4255,-1.9232,-0.1233,-0.4352,0.5401,0.6599,
1.568069,-0.4248,0.4344,0.0506,3.4255,-1.9232,-0.1233,0.0341,0.0756,0.6274,
1.587806,-0.6303,0.5187,0.2113,3.4255,-1.9232,-0.1233,0.0341,0.0756,0.6274,
1.590247,-0.6303,0.5187,0.2113,1.2582,-1.2854,1.4950,0.0341,0.0756,0.6274,
1.591786,-0.6303,0.5187,0.2113,1.2582,-1.2854,1.4950,0.6290,0.0692,0.4655,
1.608527,-0.6303,0.5187,0.2113,1.2582,-1.2854,1.4950,0.8043,0.1800,0.6503,
1.628176,-1.0151,0.2477,-0.0271,1.2582,-1.2854,1.4950,0.8043,0.1800,0.6503,
1.630107,-1.0151,0.2477,-0.0271,-2.6543,-4.1181,-0.6203,0.8043,0.1800,0.6503,
1.632069,-1.0151,0.2477,-0.0271,-2.6543,-4.1181,-0.6203,0.5124,0.0794,1.1057,
1.647321,-1.0151,0.2477,-0.0271,-2.6543,-4.1181,-0.6203,0.2381,-0.5065,1.7177,
1.667726,-1.1267,0.3005,0.0342,-2.6543,-4.1181,-0.6203,0.2381,-0.5065,1.7177,
1.669797,-1.1267,0.3005,0.0342,-4.0730,-3.9473,0.0178,0.2381,-0.5065,1.7177,
1.671757,-1.1267,0.3005,0.0342,-4.0730,-3.9473,0.0178,0.3409,-1.1484,2.0639,
1.687740,-1.1267,0.3005,0.0342,-4.0730,-3.9473,0.0178,0.9870,-1.5388,1.7896,
1.707200,-0.9648,0.4600,0.1402,-4.0730,-3.9473,0.0178,0.9870,-1.5388,1.7896,
1.709183,-0.9648,0.4600,0.1402,-3.0048,-2.8626,0.8847,0.9870,-1.5388,1.7896,
1.711053,-0.9648,0.4600,0.1402,-3.0048,-2.8626,0.8847,1.9697,-0.9305,1.5260,
1.727340,-0.9648,0.4600,0.1402,-3.0048,-2.8626,0.8847,2.4863,-0.9806,1.8280,
1.746900,-0.9252,0.3684,-0.3340,-3.0048,-2.8626,0.8847,2.4863,-0.9806,1.8280,
1.749379,-0.9252,0.3684,-0.3340,-3.0725,-4.1508,-3.3071,2.4863,-0.9806,1.8280,
1.751716,-0.9252,0.3684,-0.3340,-3.0725,-4.1508,-3.3071,2.1726,-2.1753,2.6562,
1.767397,-0.9252,0.3684,-0.3340,-3.0725,-4.1508,-3.3071,1.5542,-2.6174,3.3428,
1.787401,-0.1175,0.6479,-0.2446,-3.0725,-4.1508,-3.3071,1.5542,-2.6174,3.3428,
1.789525,-0.1175,0.6479,-0.2446,3.8755,-2.0707,-2.3598,1.5542,-2.6174,3.3428,
1.791370,-0.1175,0.6479,-0.2446,3.8755,-2.0707,-2.3598,1.1638,-1.8525,3.3130,
1.807114,-0.1175,0.6479,-0.2446,3.8755,-2.0707,-2.3598,1.4120,-0.7009,3.1814,
1.827079,-0.3242,1.0964,0.0496,3.8755,-2.0707,-2.3598,1.4120,-0.7009,3.1814,
1.829093,-0.3242,1.0964,0.0496,0.7232,1.7510,0.7380,1.4120,-0.7009,3.1814,
1.830447,-0.3242,1.0964,0.0496,0.7232,1.7510,0.7380,2.0267,-0.0916,3.1457,
1.846804,-0.3242,1.0964,0.0496,0.7232,1.7510,0.7380,3.3204,0.9779,3.1511,
1.866874,-0.5179,0.9262,-0.4466,0.7232,1.7510,0.7380,3.3204,0.9779,3.1511,
1.869621,-0.5179,0.9262,-0.4466,-2.2730,-0.2277,-3.0540,3.3204,0.9779,3.1511,
1.872106,-0.5179,0.9262,-0.4466,-2.2730,-0.2277,-3.0540,2.9311,0.0256,4.1870,
1.887246,-0.5179,0.9262,-0.4466,-2.2730,-0.2277,-3.0540,1.8381,-0.2839,4.8214,
1.907175,0.0445,1.5035,-0.8372,-2.2730,-0.2277,-3.0540,1.8381,-0.2839,4.8214,
1.909881,0.0445,1.5035,-0.8372,1.5566,5.2455,-5.9951,1.8381,-0.2839,4.8214,
1.912056,0.0445,1.5035,-0.8372,1.5566,5.2455,-5.9951,0.1310,-2.1050,3.7673,
1.927629,0.0445,1.5035,-0.8372,1.5566,5.2455,-5.9951,-0.0016,-1.5803,3.0078,
1.947119,0.1798,1.3224,-0.4586,1.5566,5.2455,-5.9951,-0.0016,-1.5803,3.0078,
1.949311,0.1798,1.3224,-0.4586,1.7551,3.4014,-2.3012,-0.0016,-1.5803,3.0078,
1.951161,0.1798,1.3224,-0.4586,1.7551,3.4014,-2.3012,0.3222,-0.3451,1.9729,
1.967053,0.1798,1.3224,-0.4586,1.7551,3.4014,-2.3012,-0.2333,0.0820,0.9731,
1.987130,0.3809,1.1658,-0.3090,1.7551,3.4014,-2.3012,-0.2333,0.0820,0.9731,
1.988963,0.3809,1.1658,-0.3090,3.1755,1.8871,-0.8183,-0.2333,0.0820,0.9731,
1.990622,0.3809,1.1658,-0.3090,3.1755,1.8871,-0.8183,-0.6418,0.3430,-0.2274,
2.006937,0.3809,1.1658,-0.3090,3.1755,1.8871,-0.8183,-0.6290,0.3201,-0.5374,
2.026967,-1.9955,-0.0603,0.8756,3.1755,1.8871,-0.8183,-0.6290,0.3201,-0.5374,
2.028790,-1.9955,-0.0603,0.8756,-19.9326,-10.1966,10.5217,-0.6290,0.3201,-0.5374,
2.030755,-1.9955,-0.0603,0.8756,-19.9326,-10.1966,10.5217,0.1257,-0.4661,0.8176,
2.046813,-1.9955,-0.0603,0.8756,-19.9326,-10.1966,10.5217,0.0554,-0.2903,2.0102,
2.066392,0.2844,1.1871,-0.1329,-19.9326,-10.1966,10.5217,0.0554,-0.2903,2.0102,
2.068572,0.2844,1.1871,-0.1329,1.9330,2.0642,0.6649,0.0554,-0.2903,2.0102,
2.070050,0.2844,1.1871,-0.1329,1.9330,2.0642,0.6649,0.1380,-0.6834,2.2924,
2.086397,0.2844,1.1871,-0.1329,1.9330,2.0642,0.6649,0.3068,-0.4868,2.1721,
2.106949,0.4307,1.1805,-0.2983,1.9330,2.0642,0.6649,0.3068,-0.4868,2.1721,
2.108754,0.4307,1.1805,-0.2983,2.6214,2.1128,-0.8750,0.3068,-0.4868,2.1721,
2.110476,0.4307,1.1805,-0.2983,2.6214,2.1128,-0.8750,0.0128,-0.4261,2.2030,
2.126710,0.4307,1.1805,-0.2983,2.6214,2.1128,-0.8750,0.1683,-0.1795,1.8046,
2.146631,0.4527,0.9626,-0.2196,2.6214,2.1128,-0.8750,0.1683,-0.1795,1.8046,
2.148962,0.4527,0.9626,-0.2196,2.1257,0.1339,-0.0654,0.1683,-0.1795,1.8046,
2.150723,0.4527,0.9626,-0.2196,2.1257,0.1339,-0.0654,0.2594,0.2690,0.9401,
2.166984,0.4527,0.9626,-0.2196,2.1257,0.1339,-0.0654,0.1103,0.2898,-0.1678,
2.187148,0.4613,0.9540,-0.2106,2.1257,0.1339,-0.0654,0.1103,0.2898,-0.1678,
2.189042,0.4613,0.9540,-0.2106,2.0316,0.1032,0.0540,0.1103,0.2898,-0.1678,
2.190696,0.4613,0.9540,-0.2106,2.0316,0.1032,0.0540,-0.1310,0.2019,-1.0914,
2.206776,0.4613,0.9540,-0.2106,2.0316,0.1032,0.0540,-0.6221,0.1822,-1.8408,
2.226840,-0.1290,0.6264,-0.1331,2.0316,0.1032,0.0540,-0.6221,0.1822,-1.8408,
2.228636,-0.1290,0.6264,-0.1331,-3.2224,-3.2684,0.6550,-0.6221,0.1822,-1.8408,
2.230504,-0.1290,0.6264,-0.1331,-3.2224,-3.2684,0.6550,-1.0024,0.6189,-1.7273,
2.246707,-0.1290,0.6264,-0.1331,-3.2224,-3.2684,0.6550,-1.0200,0.9023,-0.7420,
2.266804,0.1048,1.0659,-0.1659,-3.2224,-3.2684,0.6550,-1.0200,0.9023,-0.7420,
2.268721,0.1048,1.0659,-0.1659,-0.5092,0.8817,-0.0972,-1.0200,0.9023,-0.7420,
2.270479,0.1048,1.0659,-0.1659,-0.5092,0.8817,-0.0972,-0.5907,1.0317,0.0799,
2.287233,0.1048,1.0659,-0.1659,-0.5092,0.8817,-0.0972,0.1374,0.6514,0.0522,
2.306853,0.0999,0.9977,-0.4471,-0.5092,0.8817,-0.0972,0.1374,0.6514,0.0522,
2.308888,0.0999,0.9977,-0.4471,-0.6098,0.2090,-2.9389,0.1374,0.6514,0.0522,
2.310701,0.0999,0.9977,-0.4471,-0.6098,0.2090,-2.9389,0.3451,0.0575,0.0314,
2.325872,0.0999,0.9977,-0.4471,-0.6098,0.2090,-2.9389,0.0756,0.1103,0.0522,
2.346678,0.1148,0.8084,-0.2257,-0.6098,0.2090,-2.9389,0.0756,0.1103,0.0522,
2.349151,0.1148,0.8084,-0.2257,-0.4783,-1.6296,-0.6769,0.0756,0.1103,0.0522,
2.351100,0.1148,0.8084,-0.2257,-0.4783,-1.6296,-0.6769,-0.1028,0.3526,0.0586,
2.366456,0.1148,0.8084,-0.2257,-0.4783,-1.6296,-0.6769,-0.1625,0.5699,0.1635,
2.386242,0.1805,0.8670,0.0496,-0.4783,-1.6296,-0.6769,-0.1625,0.5699,0.1635,
2.389136,0.1805,0.8670,0.0496,0.0959,-1.0557,1.9406,-0.1625,0.5699,0.1635,
2.390774,0.1805,0.8670,0.0496,0.0959,-1.0557,1.9406,-0.0075,0.5646,0.0602,
2.407797,0.1805,0.8670,0.0496,0.0959,-1.0557,1.9406,0.4091,-0.1220,-0.0250,
2.426588,0.1143,0.8519,-0.2370,0.0959,-1.0557,1.9406,0.4091,-0.1220,-0.0250,
2.429261,0.1143,0.8519,-0.2370,-0.5724,-1.1911,-0.8062,0.4091,-0.1220,-0.0250,
2.431587,0.1143,0.8519,-0.2370,-0.5724,-1.1911,-0.8062,0.6775,1.0733,0.1598,
2.446557,0.1143,0.8519,-0.2370,-0.5724,-1.1911,-0.8062,0.5396,1.1276,0.0554,
2.466605,0.0496,0.8157,-0.4134,-0.5724,-1.1911,-0.8062,0.5396,1.1276,0.0554,
2.469970,0.0496,0.8157,-0.4134,-1.3182,-1.4992,-2.3805,0.5396,1.1276,0.0554,
2.472489,0.0496,0.8157,-0.4134,-1.3182,-1.4992,-2.3805,0.0165,0.3702,0.0218,
2.486948,0.0496,0.8157,-0.4134,-1.3182,-1.4992,-2.3805,0.2455,0.7324,0.1300,
2.506552,0.1121,0.9034,-0.2778,-1.3182,-1.4992,-2.3805,0.2455,0.7324,0.1300,
2.508665,0.1121,0.9034,-0.2778,-0.7650,-0.6247,-1.0326,0.2455,0.7324,0.1300,
2.511184,0.1121,0.9034,-0.2778,-0.7650,-0.6247,-1.0326,0.6418,0.8938,0.1321,
2.526530,0.1121,0.9034,-0.2778,-0.7650,-0.6247,-1.0326,0.7281,0.6120,0.0016,
2.546419,0.0870,0.9132,-0.3393,-0.7650,-0.6247,-1.0326,0.7281,0.6120,0.0016,
2.548529,0.0870,0.9132,-0.3393,-1.0741,-0.4737,-1.4120,0.7281,0.6120,0.0016,
2.550442,0.0870,0.9132,-0.3393,-1.0741,-0.4737,-1.4120,0.7132,0.5273,-0.0932,
2.567199,0.0870,0.9132,-0.3393,-1.0741,-0.4737,-1.4120,0.6573,0.5513,-0.1140,
2.586261,0.1060,0.9362,-0.4029,-1.0741,-0.4737,-1.4120,0.6573,0.5513,-0.1140,
2.588669,0.1060,0.9362,-0.4029,-0.8640,-0.1972,-1.7760,0.6573,0.5513,-0.1140,
2.590450,0.1060,0.9362,-0.4029,-0.8640,-0.1972,-1.7760,0.5523,0.4815,-0.1209,
2.606046,0.1060,0.9362,-0.4029,-0.8640,-0.1972,-1.7760,0.4176,0.3286,-0.1395,
2.626255,0.0862,0.8863,-0.4517,-0.8640,-0.1972,-1.7760,0.4176,0.3286,-0.1395,
2.629432,0.0862,0.8863,-0.4517,-1.0143,-0.6444,-2.0493,0.4176,0.3286,-0.1395,
2.632057,0.0862,0.8863,-0.4517,-1.0143,-0.6444,-2.0493,0.2940,0.2690,-0.1747,
2.645862,0.0862,0.8863,-0.4517,-1.0143,-0.6444,-2.0493,0.2248,0.1598,-0.1864,
2.666910,0.0989,0.8644,-0.5192,-1.0143,-0.6444,-2.0493,0.2248,0.1598,-0.1864,
2.669084,0.0989,0.8644,-0.5192,-0.8119,-0.8337,-2.5530,0.2248,0.1598,-0.1864,
2.671082,0.0989,0.8644,-0.5192,-0.8119,-0.8337,-2.5530,0.2200,0.0453,-0.2162,
2.686483,0.0989,0.8644,-0.5192,-0.8119,-0.8337,-2.5530,0.2061,0.0511,-0.2924,
2.706706,0.0349,0.9587,-0.6071,-0.8119,-0.8337,-2.5530,0.2061,0.0511,-0.2924,
2.708927,0.0349,0.9587,-0.6071,-1.3321,0.1030,-3.2985,0.2061,0.0511,-0.2924,
2.710867,0.0349,0.9587,-0.6071,-1.3321,0.1030,-3.2985,0.1790,0.0708,-0.3100,
2.726395,0.0349,0.9587,-0.6071,-1.3321,0.1030,-3.2985,0.1822,0.2376,-0.2482,
2.745747,-0.0054,1.1197,-0.6491,-1.3321,0.1030,-3.2985,0.1822,0.2376,-0.2482,
2.747834,-0.0054,1.1197,-0.6491,-1.6401,1.6820,-3.6532,0.1822,0.2376,-0.2482,
2.749725,-0.0054,1.1197,-0.6491,-1.6401,1.6820,-3.6532,0.1353,0.4724,-0.0831,
2.766382,-0.0054,1.1197,-0.6491,-1.6401,1.6820,-3.6532,-0.0847,0.7766,-0.0021,
2.785886,0.0435,1.0481,-0.6574,-1.6401,1.6820,-3.6532,-0.0847,0.7766,-0.0021,
2.788514,0.0435,1.0481,-0.6574,-1.2129,0.9805,-3.7653,-0.0847,0.7766,-0.0021,
2.790224,0.0435,1.0481,-0.6574,-1.2129,0.9805,-3.7653,-0.3537,1.0189,-0.0421,
2.805950,0.0435,1.0481,-0.6574,-1.2129,0.9805,-3.7653,-0.4325,0.9337,-0.0879,
2.825420,0.0767,1.4074,-0.4547,-1.2129,0.9805,-3.7653,-0.4325,0.9337,-0.0879,
2.827490,0.0767,1.4074,-0.4547,-0.9636,4.4577,-1.9899,-0.4325,0.9337,-0.0879,
2.828786,0.0767,1.4074,-0.4547,-0.9636,4.4577,-1.9899,-0.1917,0.7414,-0.0714,
2.845399,0.0767,1.4074,-0.4547,-0.9636,4.4577,-1.9899,-0.2392,0.1236,0.4139,
2.866153,0.4126,1.6298,-0.5790,-0.9636,4.4577,-1.9899,-0.2392,0.1236,0.4139,
2.868253,0.4126,1.6298,-0.5790,2.2226,6.6280,-3.3189,-0.2392,0.1236,0.4139,
2.869899,0.4126,1.6298,-0.5790,2.2226,6.6280,-3.3189,-1.0972,-0.2280,1.0290,
2.885548,0.4126,1.6298,-0.5790,2.2226,6.6280,-3.3189,-2.0501,0.5124,1.2852,
2.906017,0.5023,0.3657,0.1891,2.2226,6.6280,-3.3189,-2.0501,0.5124,1.2852,
2.908819,0.5023,0.3657,0.1891,2.6313,-5.7857,3.6215,-2.0501,0.5124,1.2852,
2.910822,0.5023,0.3657,0.1891,2.6313,-5.7857,3.6215,-2.2328,-0.1811,1.6815,
2.925281,0.5023,0.3657,0.1891,2.6313,-5.7857,3.6215,-1.8605,-1.6506,1.8818,
2.945685,0.4356,0.8382,0.1586,2.6313,-5.7857,3.6215,-1.8605,-1.6506,1.8818,
2.947568,0.4356,0.8382,0.1586,1.3318,-1.0781,2.6453,-1.8605,-1.6506,1.8818,
2.949228,0.4356,0.8382,0.1586,1.3318,-1.0781,2.6453,-1.3641,-2.6056,2.2019,
2.965591,0.4356,0.8382,0.1586,1.3318,-1.0781,2.6453,-1.0440,-2.5550,2.2493,
2.985908,1.0207,0.9572,-0.0274,1.3318,-1.0781,2.6453,-1.0440,-2.5550,2.2493,
2.987962,1.0207,0.9572,-0.0274,6.3548,0.3315,0.7204,-1.0440,-2.5550,2.2493,
2.989465,1.0207,0.9572,-0.0274,6.3548,0.3315,0.7204,-1.2746,-2.3164,1.8046,
3.006112,1.0207,0.9572,-0.0274,6.3548,0.3315,0.7204,-1.7028,-1.9052,1.1159,
3.025524,0.8822,0.8348,0.0601,6.3548,0.3315,0.7204,-1.7028,-1.9052,1.1159,
3.027966,0.8822,0.8348,0.0601,4.5519,-0.6958,1.3735,-1.7028,-1.9052,1.1159,
3.029860,0.8822,0.8348,0.0601,4.5519,-0.6958,1.3735,-2.0879,-1.0024,0.5976,
3.045338,0.8822,0.8348,0.0601,4.5519,-0.6958,1.3735,-2.4400,0.2317,0.4101,
3.066575,0.4725,0.7573,0.2189,4.5519,-0.6958,1.3735,-2.4400,0.2317,0.4101,
3.069212,0.4725,0.7573,0.2189,0.3327,-1.3927,2.1734,-2.4400,0.2317,0.4101,
3.071091,0.4725,0.7573,0.2189,0.3327,-1.3927,2.1734,-2.6451,0.6685,0.1747,
3.085744,0.4725,0.7573,0.2189,0.3327,-1.3927,2.1734,-2.6014,0.5433,-0.1284,
3.106608,0.3152,0.8399,0.4305,0.3327,-1.3927,2.1734,-2.6014,0.5433,-0.1284,
3.108563,0.3152,0.8399,0.4305,-1.2309,-0.5099,3.1676,-2.6014,0.5433,-0.1284,
3.110408,0.3152,0.8399,0.4305,-1.2309,-0.5099,3.1676,-2.2765,0.3148,-0.3143,
3.125507,0.3152,0.8399,0.4305,-1.2309,-0.5099,3.1676,-1.7215,0.2812,-0.2589,
3.144630,0.2702,0.8636,0.4500,-1.2309,-0.5099,3.1676,-1.7215,0.2812,-0.2589,
3.146144,0.2702,0.8636,0.4500,-1.5468,-0.2052,2.5586,-1.7215,0.2812,-0.2589,
3.147365,0.2702,0.8636,0.4500,-1.5468,-0.2052,2.5586,-1.1500,0.4687,-0.2077,
3.164550,0.2702,0.8636,0.4500,-1.5468,-0.2052,2.5586,-0.7681,0.5678,-0.2690,
3.185137,0.2704,0.7791,0.3156,-1.5468,-0.2052,2.5586,-0.7681,0.5678,-0.2690,
3.185982,0.2704,0.7791,0.3156,-1.4108,-0.9930,0.8058,-0.7681,0.5678,-0.2690,
3.186704,0.2704,0.7791,0.3156,-1.4108,-0.9930,0.8058,-0.6306,0.3238,-0.4309,
3.206530,0.2704,0.7791,0.3156,-1.4108,-0.9930,0.8058,-0.4394,-0.3398,-0.4091,
3.225560,0.3340,0.8433,0.2641,-1.4108,-0.9930,0.8058,-0.4394,-0.3398,-0.4091,
3.228176,0.3340,0.8433,0.2641,-0.6383,-0.3789,0.1060,-0.4394,-0.3398,-0.4091,
3.230031,0.3340,0.8433,0.2641,-0.6383,-0.3789,0.1060,-0.1593,-0.8495,-0.3233,
3.245635,0.3340,0.8433,0.2641,-0.6383,-0.3789,0.1060,0.0799,-0.9699,-0.4240,
3.265236,0.3491,0.8228,0.0960,-0.6383,-0.3789,0.1060,0.0799,-0.9699,-0.4240,
3.267962,0.3491,0.8228,0.0960,-0.4476,-0.6347,-1.4129,0.0799,-0.9699,-0.4240,
3.270489,0.3491,0.8228,0.0960,-0.4476,-0.6347,-1.4129,0.2477,-0.9103,-0.7499,
3.285242,0.3491,0.8228,0.0960,-0.4476,-0.6347,-1.4129,0.3814,-0.8527,-0.9944,
3.305351,0.2832,0.8109,0.0318,-0.4476,-0.6347,-1.4129,0.3814,-0.8527,-0.9944,
3.307638,0.2832,0.8109,0.0318,-0.8671,-0.9109,-1.7995,0.3814,-0.8527,-0.9944,
3.309484,0.2832,0.8109,0.0318,-0.8671,-0.9109,-1.7995,0.4458,-0.7691,-0.9417,
3.324722,0.2832,0.8109,0.0318,-0.8671,-0.9109,-1.7995,0.5071,-0.6333,-0.8698,
3.344690,0.3335,0.8658,-0.0242,-0.8671,-0.9109,-1.7995,0.5071,-0.6333,-0.8698,
3.346584,0.3335,0.8658,-0.0242,-0.1061,-0.5369,-2.0784,0.5071,-0.6333,-0.8698,
3.348421,0.3335,0.8658,-0.0242,-0.1061,-0.5369,-2.0784,0.5459,-0.4117,-0.9140,
3.365346,0.3335,0.8658,-0.0242,-0.1061,-0.5369,-2.0784,0.5523,-0.2099,-1.1569,
3.384768,0.3963,1.0422,-0.0037,-0.1061,-0.5369,-2.0784,0.5523,-0.2099,-1.1569,
3.387381,0.3963,1.0422,-0.0037,0.8453,1.0202,-1.5918,0.5523,-0.2099,-1.1569,
3.389012,0.3963,1.0422,-0.0037,0.8453,1.0202,-1.5918,0.5827,-0.2898,-1.5026,
3.405175,0.3963,1.0422,-0.0037,0.8453,1.0202,-1.5918,0.6440,-0.5459,-1.8504,
3.425680,0.1876,1.3083,-0.0156,0.8453,1.0202,-1.5918,0.6440,-0.5459,-1.8504,
3.427927,0.1876,1.3083,-0.0156,-0.5996,3.4093,-1.4360,0.6440,-0.5459,-1.8504,
3.429699,0.1876,1.3083,-0.0156,-0.5996,3.4093,-1.4360,0.6855,-0.6019,-2.0544,
3.444893,0.1876,1.3083,-0.0156,-0.5996,3.4093,-1.4360,0.6706,-0.3755,-1.7231,
3.464714,-0.3301,1.6850,0.0274,-0.5996,3.4093,-1.4360,0.6706,-0.3755,-1.7231,
3.467970,-0.3301,1.6850,0.0274,-4.9784,6.9127,-0.7158,0.6706,-0.3755,-1.7231,
3.469507,-0.3301,1.6850,0.0274,-4.9784,6.9127,-0.7158,0.5028,-0.3324,-0.8464,
3.484518,-0.3301,1.6850,0.0274,-4.9784,6.9127,-0.7158,0.1641,-0.0879,-0.0501,
3.504515,0.0809,1.3608,0.2937,-4.9784,6.9127,-0.7158,0.1641,-0.0879,-0.0501,
3.507198,0.0809,1.3608,0.2937,-0.7866,3.6937,2.0359,0.1641,-0.0879,-0.0501,
3.509198,0.0809,1.3608,0.2937,-0.7866,3.6937,2.0359,0.0937,0.0613,0.0751,
3.525314,0.0809,1.3608,0.2937,-0.7866,3.6937,2.0359,0.2397,-0.2551,-0.2008,
3.544390,0.2746,0.8492,0.3205,-0.7866,3.6937,2.0359,0.2397,-0.2551,-0.2008,
3.547082,0.2746,0.8492,0.3205,1.1332,-1.3291,2.3697,0.2397,-0.2551,-0.2008,
3.548937,0.2746,0.8492,0.3205,1.1332,-1.3291,2.3697,0.3111,-0.8005,-0.4559,
3.564820,0.2746,0.8492,0.3205,1.1332,-1.3291,2.3697,0.2786,-1.1398,-0.4772,
3.584748,0.3765,0.8223,0.2653,1.1332,-1.3291,2.3697,0.2786,-1.1398,-0.4772,
3.587975,0.3765,0.8223,0.2653,2.2700,-1.6241,1.9716,0.2786,-1.1398,-0.4772,
3.589866,0.3765,0.8223,0.2653,2.2700,-1.6241,1.9716,0.1848,-0.9545,-0.3068,
3.604758,0.3765,0.8223,0.2653,2.2700,-1.6241,1.9716,0.2248,-0.1726,0.0064,
3.625131,0.4551,0.9425,0.1593,2.2700,-1.6241,1.9716,0.2248,-0.1726,0.0064,
3.627312,0.4551,0.9425,0.1593,3.0508,-0.4526,1.0156,0.2248,-0.1726,0.0064,
3.628969,0.4551,0.9425,0.1593,3.0508,-0.4526,1.0156,0.3382,0.6445,0.3537,
3.645187,0.4551,0.9425,0.1593,3.0508,-0.4526,1.0156,0.6535,1.4184,0.4703,
3.664680,0.2893,1.0100,0.1339,3.0508,-0.4526,1.0156,0.6535,1.4184,0.4703,
3.668393,0.2893,1.0100,0.1339,1.2589,0.2283,0.8743,0.6535,1.4184,0.4703,
3.669905,0.2893,1.0100,0.1339,1.2589,0.2283,0.8743,1.5319,2.6381,0.2945,
3.684558,0.2893,1.0100,0.1339,1.2589,0.2283,0.8743,2.2450,2.9588,0.1230,
3.704853,0.0882,0.9047,-0.0340,1.2589,0.2283,0.8743,2.2450,2.9588,0.1230,
3.706866,0.0882,0.9047,-0.0340,-0.7891,-0.8002,-0.2521,2.2450,2.9588,0.1230,
3.708837,0.0882,0.9047,-0.0340,-0.7891,-0.8002,-0.2521,2.4757,2.0661,0.1779,
3.725610,0.0882,0.9047,-0.0340,-0.7891,-0.8002,-0.2521,2.3921,0.8964,0.3617,
3.745132,0.0559,0.8556,-0.2182,-0.7891,-0.8002,-0.2521,2.3921,0.8964,0.3617,
3.747497,0.0559,0.8556,-0.2182,-1.2312,-1.2161,-1.2253,2.3921,0.8964,0.3617,
3.749409,0.0559,0.8556,-0.2182,-1.2312,-1.2161,-1.2253,2.0474,-0.0980,0.4874,
3.765004,0.0559,0.8556,-0.2182,-1.2312,-1.2161,-1.2253,1.7476,-0.2589,0.5438,
3.784961,0.0579,0.6718,-0.3340,-1.2312,-1.2161,-1.2253,1.7476,-0.2589,0.5438,
3.787336,0.0579,0.6718,-0.3340,-1.3986,-2.8809,-1.6237,1.7476,-0.2589,0.5438,
3.789205,0.0579,0.6718,-0.3340,-1.3986,-2.8809,-1.6237,1.3843,-0.0256,0.6844,
3.804831,0.0579,0.6718,-0.3340,-1.3986,-2.8809,-1.6237,0.8309,-0.0314,0.7835,
3.823969,0.1925,0.5629,-0.3535,-1.3986,-2.8809,-1.6237,0.8309,-0.0314,0.7835,
3.827467,0.1925,0.5629,-0.3535,-0.3525,-3.8048,-1.3970,0.8309,-0.0314,0.7835,
3.829957,0.1925,0.5629,-0.3535,-0.3525,-3.8048,-1.3970,0.3345,0.1087,0.8027,
3.845012,0.1925,0.5629,-0.3535,-0.3525,-3.8048,-1.3970,0.0192,0.3281,0.7627,
3.864366,0.3240,0.6027,-0.2587,-0.3525,-3.8048,-1.3970,0.0192,0.3281,0.7627,
3.866928,0.3240,0.6027,-0.2587,0.6274,-3.3251,-0.4236,0.0192,0.3281,0.7627,
3.868617,0.3240,0.6027,-0.2587,0.6274,-3.3251,-0.4236,-0.2354,0.3095,0.6839,
3.884516,0.3240,0.6027,-0.2587,0.6274,-3.3251,-0.4236,-0.3702,0.3366,0.6131,
3.904235,0.4288,0.7258,-0.2172,0.6274,-3.3251,-0.4236,-0.3702,0.3366,0.6131,
3.906976,0.4288,0.7258,-0.2172,1.3896,-2.0736,-0.1626,-0.3702,0.3366,0.6131,
3.908895,0.4288,0.7258,-0.2172,1.3896,-2.0736,-0.1626,-0.4575,0.3398,0.5438,
3.924803,0.4288,0.7258,-0.2172,1.3896,-2.0736,-0.1626,-0.5140,0.3004,0.3521,
3.944607,0.3933,0.8631,-0.2800,1.3896,-2.0736,-0.1626,-0.5140,0.3004,0.3521,
3.946884,0.3933,0.8631,-0.2800,0.8544,-0.7121,-0.9932,-0.5140,0.3004,0.3521,
3.948620,0.3933,0.8631,-0.2800,0.8544,-0.7121,-0.9932,-0.2935,0.2743,0.0410,
3.964140,0.3933,0.8631,-0.2800,0.8544,-0.7121,-0.9932,-0.1262,-0.0996,-0.2802,
3.984187,0.2487,1.0591,-0.5592,0.8544,-0.7121,-0.9932,-0.1262,-0.0996,-0.2802,
3.987493,0.2487,1.0591,-0.5592,-0.5265,1.1930,-3.7466,-0.1262,-0.0996,-0.2802,
3.989616,0.2487,1.0591,-0.5592,-0.5265,1.1930,-3.7466,0.0234,-0.2647,-0.3377,
4.004349,0.2487,1.0591,-0.5592,-0.5265,1.1930,-3.7466,0.2029,0.0485,-0.2189,
4.024013,0.3222,1.3053,-0.4395,-0.5265,1.1930,-3.7466,0.2029,0.0485,-0.2189,
4.027532,0.3222,1.3053,-0.4395,0.3040,3.5820,-2.5191,0.2029,0.0485,-0.2189,
4.029381,0.3222,1.3053,-0.4395,0.3040,3.5820,-2.5191,-0.1870,-0.6258,-0.3052,
4.044983,0.3222,1.3053,-0.4395,0.3040,3.5820,-2.5191,-0.9236,-1.5548,-0.1119,
4.063725,0.3540,1.0024,-0.2692,0.3040,3.5820,-2.5191,-0.9236,-1.5548,-0.1119,
4.066099,0.3540,1.0024,-0.2692,0.7687,0.5510,-0.9353,-0.9236,-1.5548,-0.1119,
4.067731,0.3540,1.0024,-0.2692,0.7687,0.5510,-0.9353,-1.5915,-1.4930,0.1294,
4.083981,0.3540,1.0024,-0.2692,0.7687,0.5510,-0.9353,-1.5920,-0.5167,0.0687,
4.104376,0.4119,1.0793,-0.0591,0.7687,0.5510,-0.9353,-1.5920,-0.5167,0.0687,
4.106646,0.4119,1.0793,-0.0591,1.3608,1.2221,0.6391,-1.5920,-0.5167,0.0687,
4.108197,0.4119,1.0793,-0.0591,1.3608,1.2221,0.6391,-1.5579,-0.6237,-0.2210,
4.124112,0.4119,1.0793,-0.0591,1.3608,1.2221,0.6391,-1.6336,-1.2000,-0.4655,
4.144484,0.3655,0.9320,0.0291,1.3608,1.2221,0.6391,-1.6336,-1.2000,-0.4655,
4.146532,0.3655,0.9320,0.0291,1.0597,-0.3157,1.0022,-1.6336,-1.2000,-0.4655,
4.148216,0.3655,0.9320,0.0291,1.0597,-0.3157,1.0022,-1.8275,-1.4461,-0.7105,
4.163559,0.3655,0.9320,0.0291,1.0597,-0.3157,1.0022,-2.0932,-1.2533,-1.0999,
4.183962,0.3183,1.0090,0.1840,1.0597,-0.3157,1.0022,-2.0932,-1.2533,-1.0999,
4.186630,0.3183,1.0090,0.1840,0.9496,0.3250,1.8995,-2.0932,-1.2533,-1.0999,
4.188217,0.3183,1.0090,0.1840,0.9496,0.3250,1.8995,-2.3090,-0.6258,-1.4733,
4.204029,0.3183,1.0090,0.1840,0.9496,0.3250,1.8995,-2.2072,0.3574,-1.7225,
4.225096,-0.1559,1.0779,0.6486,0.9496,0.3250,1.8995,-2.2072,0.3574,-1.7225,
4.228223,-0.1559,1.0779,0.6486,-3.0789,0.9107,5.5863,-2.2072,0.3574,-1.7225,
4.229800,-0.1559,1.0779,0.6486,-3.0789,0.9107,5.5863,-1.5633,1.1878,-1.5340,
4.244127,-0.1559,1.0779,0.6486,-3.0789,0.9107,5.5863,-0.6637,1.5702,-0.8767,
4.264401,-0.2155,0.8968,0.3972,-3.0789,0.9107,5.5863,-0.6637,1.5702,-0.8767,
4.266643,-0.2155,0.8968,0.3972,-3.1061,-0.8770,2.5712,-0.6637,1.5702,-0.8767,
4.268526,-0.2155,0.8968,0.3972,-3.1061,-0.8770,2.5712,-0.0170,1.6591,-0.4224,
4.284000,-0.2155,0.8968,0.3972,-3.1061,-0.8770,2.5712,0.1949,1.5036,-0.3206,
4.304338,-0.1840,0.6926,0.1053,-3.1061,-0.8770,2.5712,0.1949,1.5036,-0.3206,
4.306768,-0.1840,0.6926,0.1053,-2.5688,-2.8965,-0.3109,0.1949,1.5036,-0.3206,
4.308639,-0.1840,0.6926,0.1053,-2.5688,-2.8965,-0.3109,0.1332,1.0924,-0.3254,
4.324960,-0.1840,0.6926,0.1053,-2.5688,-2.8965,-0.3109,-0.0080,0.6482,-0.2498,
4.344325,-0.0479,0.6745,0.0332,-2.5688,-2.8965,-0.3109,-0.0080,0.6482,-0.2498,
4.346742,-0.0479,0.6745,0.0332,-1.0774,-3.0849,-1.0169,-0.0080,0.6482,-0.2498,
4.348663,-0.0479,0.6745,0.0332,-1.0774,-3.0849,-1.0169,-0.1193,0.2226,-0.1214,
4.363333,-0.0479,0.6745,0.0332,-1.0774,-3.0849,-1.0169,-0.1326,-0.1204,-0.1726,
4.383292,0.0696,0.7173,-0.0054,-1.0774,-3.0849,-1.0169,-0.1326,-0.1204,-0.1726,
4.385584,0.0696,0.7173,-0.0054,0.1339,-2.6624,-1.4453,-0.1326,-0.1204,-0.1726,
4.387437,0.0696,0.7173,-0.0054,0.1339,-2.6624,-1.4453,-0.0485,-0.1933,-0.2434,
4.403829,0.0696,0.7173,-0.0054,0.1339,-2.6624,-1.4453,-0.0043,-0.2796,-0.1779,
4.423991,0.1116,0.8394,-0.0647,0.1339,-2.6624,-1.4453,-0.0043,-0.2796,-0.1779,
4.426231,0.1116,0.8394,-0.0647,0.6141,-1.4681,-2.0325,-0.0043,-0.2796,-0.1779,
4.427963,0.1116,0.8394,-0.0647,0.6141,-1.4681,-2.0325,0.0208,-0.2349,0.0037,
4.444369,0.1116,0.8394,-0.0647,0.6141,-1.4681,-2.0325,-0.0138,0.1459,0.1502,
4.464207,0.0235,0.9142,-0.0750,0.6141,-1.4681,-2.0325,-0.0138,0.1459,0.1502,
4.467755,0.0235,0.9142,-0.0750,-0.2825,-0.7342,-2.1309,-0.0138,0.1459,0.1502,
4.469832,0.0235,0.9142,-0.0750,-0.2825,-0.7342,-2.1309,-0.1321,0.5955,0.1939,
4.483851,0.0235,0.9142,-0.0750,-0.2825,-0.7342,-2.1309,-0.2658,0.8240,0.1816,
4.503489,-0.1168,1.1478,0.0716,-0.2825,-0.7342,-2.1309,-0.2658,0.8240,0.1816,
4.507211,-0.1168,1.1478,0.0716,-1.6635,1.5630,-0.7484,-0.2658,0.8240,0.1816,
4.509787,-0.1168,1.1478,0.0716,-1.6635,1.5630,-0.7484,-0.2807,0.8149,0.1348,
4.524593,-0.1168,1.1478,0.0716,-1.6635,1.5630,-0.7484,-0.1747,0.6530,0.1364,
4.543420,-0.2450,1.3205,0.1615,-1.6635,1.5630,-0.7484,-0.1747,0.6530,0.1364,
4.546514,-0.2450,1.3205,0.1615,-2.9288,3.2722,0.0293,-0.1747,0.6530,0.1364,
4.548325,-0.2450,1.3205,0.1615,-2.9288,3.2722,0.0293,-0.0048,0.4501,0.1971,
4.563398,-0.2450,1.3205,0.1615,-2.9288,3.2722,0.0293,0.2519,0.1774,0.2285,
4.583779,-0.0994,1.3425,0.2057,-2.9288,3.2722,0.0293,0.2519,0.1774,0.2285,
4.586474,-0.0994,1.3425,0.2057,-1.5646,3.4848,0.5035,0.2519,0.1774,0.2285,
4.588144,-0.0994,1.3425,0.2057,-1.5646,3.4848,0.5035,0.6173,-0.2583,0.1017,
4.603637,-0.0994,1.3425,0.2057,-1.5646,3.4848,0.5035,0.8250,-0.6972,0.0772,
4.622861,-0.0581,1.2892,0.0476,-1.5646,3.4848,0.5035,0.8250,-0.6972,0.0772,
4.624783,-0.0581,1.2892,0.0476,-1.2203,2.9257,-0.7545,0.8250,-0.6972,0.0772,
4.626708,-0.0581,1.2892,0.0476,-1.2203,2.9257,-0.7545,0.6013,-0.7814,0.0581,
4.642732,-0.0581,1.2892,0.0476,-1.2203,2.9257,-0.7545,0.0714,-0.5454,0.0394,
4.662742,0.1676,1.3185,0.2441,-1.2203,2.9257,-0.7545,0.0714,-0.5454,0.0394,
4.665278,0.1676,1.3185,0.2441,0.9432,3.1988,1.3190,0.0714,-0.5454,0.0394,
4.666777,0.1676,1.3185,0.2441,0.9432,3.1988,1.3190,-0.2328,-0.4740,0.0346,
4.683084,0.1676,1.3185,0.2441,0.9432,3.1988,1.3190,-0.1257,-0.6642,-0.0756,
4.703121,0.2634,0.8993,0.3054,0.9432,3.1988,1.3190,-0.1257,-0.6642,-0.0756,
4.706264,0.2634,0.8993,0.3054,1.8645,-0.9023,1.8666,-0.1257,-0.6642,-0.0756,
4.708433,0.2634,0.8993,0.3054,1.8645,-0.9023,1.8666,0.1236,-0.8357,-0.0522,
4.725070,0.2634,0.8993,0.3054,1.8645,-0.9023,1.8666,0.3249,-0.6679,0.1390,
4.742714,0.3743,0.8521,0.1661,1.8645,-0.9023,1.8666,0.3249,-0.6679,0.1390,
4.744643,0.3743,0.8521,0.1661,2.8719,-1.3683,0.5928,0.3249,-0.6679,0.1390,
4.746428,0.3743,0.8521,0.1661,2.8719,-1.3683,0.5928,0.4506,-0.2301,0.3659,
4.763020,0.3743,0.8521,0.1661,2.8719,-1.3683,0.5928,0.5848,0.2924,0.4352,
4.782959,0.3816,1.0244,0.0349,2.8719,-1.3683,0.5928,0.5848,0.2924,0.4352,
4.785066,0.3816,1.0244,0.0349,2.7610,0.3175,-0.4991,0.5848,0.2924,0.4352,
4.786822,0.3816,1.0244,0.0349,2.7610,0.3175,-0.4991,0.7718,0.8432,0.3127,
4.803445,0.3816,1.0244,0.0349,2.7610,0.3175,-0.4991,1.4030,2.1577,0.0762,
4.823505,0.0020,1.1436,0.0237,2.7610,0.3175,-0.4991,1.4030,2.1577,0.0762,
4.825690,0.0020,1.1436,0.0237,-0.9998,1.4656,-0.2492,1.4030,2.1577,0.0762,
4.827536,0.0020,1.1436,0.0237,-0.9998,1.4656,-0.2492,2.3883,3.7215,-0.2338,
4.842635,0.0020,1.1436,0.0237,-0.9998,1.4656,-0.2492,2.9257,3.8568,-0.1150,
4.863039,-0.0542,0.8771,-0.1639,-0.9998,1.4656,-0.2492,2.9257,3.8568,-0.1150,
4.865175,-0.0542,0.8771,-0.1639,-1.4674,-1.1584,-1.2042,2.9257,3.8568,-0.1150,
4.867281,-0.0542,0.8771,-0.1639,-1.4674,-1.1584,-1.2042,2.6994,2.5811,0.3132,
4.883104,-0.0542,0.8771,-0.1639,-1.4674,-1.1584,-1.2042,2.1987,1.0626,0.4980,
4.903104,-0.0044,0.8331,-0.1830,-1.4674,-1.1584,-1.2042,2.1987,1.0626,0.4980,
4.905627,-0.0044,0.8331,-0.1830,-1.1848,-1.4919,-0.5177,2.1987,1.0626,0.4980,
4.907758,-0.0044,0.8331,-0.1830,-1.1848,-1.4919,-0.5177,2.0160,0.3004,0.5246,
4.922673,-0.0044,0.8331,-0.1830,-1.1848,-1.4919,-0.5177,1.9542,0.1119,0.5981,
4.944246,0.0467,0.6775,-0.3689,-1.1848,-1.4919,-0.5177,1.9542,0.1119,0.5981,
4.946753,0.0467,0.6775,-0.3689,-0.9121,-2.8579,-1.5901,1.9542,0.1119,0.5981,
4.948708,0.0467,0.6775,-0.3689,-0.9121,-2.8579,-1.5901,1.5617,-0.0660,0.7222,
4.962811,0.0467,0.6775,-0.3689,-0.9121,-2.8579,-1.5901,0.9326,-0.0762,0.7340,
4.983254,0.0889,0.6313,-0.4964,-0.9121,-2.8579,-1.5901,0.9326,-0.0762,0.7340,
4.986975,0.0889,0.6313,-0.4964,-0.7651,-3.1540,-2.3661,0.9326,-0.0762,0.7340,
4.989056,0.0889,0.6313,-0.4964,-0.7651,-3.1540,-2.3661,0.3174,0.2024,0.6839,
5.002571,0.0889,0.6313,-0.4964,-0.7651,-3.1540,-2.3661,-0.2061,0.4666,0.7515,
5.023096,0.0914,0.6445,-0.3154,-0.7651,-3.1540,-2.3661,-0.2061,0.4666,0.7515,
5.025495,0.0914,0.6445,-0.3154,-1.0418,-2.9680,-0.5955,-0.2061,0.4666,0.7515,
5.027503,0.0914,0.6445,-0.3154,-1.0418,-2.9680,-0.5955,-0.4985,0.4559,0.7633,
5.042843,0.0914,0.6445,-0.3154,-1.0418,-2.9680,-0.5955,-0.5832,0.2338,0.8799,
5.062563,0.3037,0.5998,-0.2094,-1.0418,-2.9680,-0.5955,-0.5832,0.2338,0.8799,
5.065969,0.3037,0.5998,-0.2094,0.7013,-3.3883,0.2146,-0.5832,0.2338,0.8799,
5.067734,0.3037,0.5998,-0.2094,0.7013,-3.3883,0.2146,-0.6466,0.0879,0.9348,
5.082940,0.3037,0.5998,-0.2094,0.7013,-3.3883,0.2146,-0.6807,0.1641,0.6685,
5.102351,0.5910,0.6611,-0.2853,0.7013,-3.3883,0.2146,-0.6807,0.1641,0.6685,
5.105052,0.5910,0.6611,-0.2853,3.2099,-2.7663,-0.7877,-0.6807,0.1641,0.6685,
5.107195,0.5910,0.6611,-0.2853,3.2099,-2.7663,-0.7877,-0.6844,0.1385,0.1880,
5.125648,0.5910,0.6611,-0.2853,3.2099,-2.7663,-0.7877,-0.5071,0.0559,-0.1257,
5.142012,0.2790,0.8648,-0.4556,3.2099,-2.7663,-0.7877,-0.5071,0.0559,-0.1257,
5.144582,0.2790,0.8648,-0.4556,0.1337,-0.8114,-2.6868,-0.5071,0.0559,-0.1257,
5.146179,0.2790,0.8648,-0.4556,0.1337,-0.8114,-2.6868,-0.2663,-0.1513,-0.1465,
5.162256,0.2790,0.8648,-0.4556,0.1337,-0.8114,-2.6868,0.2727,-0.3393,-0.2376,
5.182860,0.0708,1.6007,-0.6652,0.1337,-0.8114,-2.6868,0.2727,-0.3393,-0.2376,
5.185815,0.0708,1.6007,-0.6652,-1.8175,6.3807,-4.7147,0.2727,-0.3393,-0.2376,
5.187810,0.0708,1.6007,-0.6652,-1.8175,6.3807,-4.7147,0.6647,-0.8783,-0.4964,
5.202971,0.0708,1.6007,-0.6652,-1.8175,6.3807,-4.7147,0.1198,-1.1686,-0.1854,
5.222631,0.2284,1.1289,-0.3134,-1.8175,6.3807,-4.7147,0.1198,-1.1686,-0.1854,
5.225983,0.2284,1.1289,-0.3134,-0.0667,1.7544,-1.0237,0.1198,-1.1686,-0.1854,
5.227992,0.2284,1.1289,-0.3134,-0.0667,1.7544,-1.0237,-0.6599,-1.4195,-0.1385,
5.242011,0.2284,1.1289,-0.3134,-0.0667,1.7544,-1.0237,-0.9646,-0.2519,0.6173,
5.261768,0.6362,0.9249,-0.2438,-0.0667,1.7544,-1.0237,-0.9646,-0.2519,0.6173,
5.263693,0.6362,0.9249,-0.2438,3.9068,-0.2863,-0.5686,-0.9646,-0.2519,0.6173,
5.264786,0.6362,0.9249,-0.2438,3.9068,-0.2863,-0.5686,-0.8948,0.2109,0.4032,
5.282540,0.6362,0.9249,-0.2438,3.9068,-0.2863,-0.5686,-0.9300,-0.0948,-0.1497,
5.302059,0.4012,1.0214,-0.1639,3.9068,-0.2863,-0.5686,-0.9300,-0.0948,-0.1497,
5.305007,0.4012,1.0214,-0.1639,1.5519,0.6114,-0.1324,-0.9300,-0.0948,-0.1497,
5.306942,0.4012,1.0214,-0.1639,1.5519,0.6114,-0.1324,-1.1553,-1.0759,-0.4794,
5.324101,0.4012,1.0214,-0.1639,1.5519,0.6114,-0.1324,-1.4195,-1.6863,-0.4735,
5.343004,0.2494,1.0979,-0.0757,1.5519,0.6114,-0.1324,-1.4195,-1.6863,-0.4735,
5.345219,0.2494,1.0979,-0.0757,0.3156,1.2515,0.3694,-1.4195,-1.6863,-0.4735,
5.346728,0.2494,1.0979,-0.0757,0.3156,1.2515,0.3694,-1.5004,-1.5622,-0.5103,
5.362338,0.2494,1.0979,-0.0757,0.3156,1.2515,0.3694,-1.6213,-1.5153,-0.8309,
5.382330,0.2152,0.8819,0.0066,0.3156,1.2515,0.3694,-1.6213,-1.5153,-0.8309,
5.384780,0.2152,0.8819,0.0066,0.2649,-0.9668,0.7124,-1.6213,-1.5153,-0.8309,
5.386569,0.2152,0.8819,0.0066,0.2649,-0.9668,0.7124,-1.9356,-1.6027,-1.1116,
5.402144,0.2152,0.8819,0.0066,0.2649,-0.9668,0.7124,-2.2323,-1.3103,-1.2879,
5.422791,0.0799,0.9775,0.1102,0.2649,-0.9668,0.7124,-2.2323,-1.3103,-1.2879,
5.425045,0.0799,0.9775,0.1102,-0.6015,-0.1291,1.0240,-2.2323,-1.3103,-1.2879,
5.427018,0.0799,0.9775,0.1102,-0.6015,-0.1291,1.0240,-2.3500,-0.5609,-1.3364,
5.442109,0.0799,0.9775,0.1102,-0.6015,-0.1291,1.0240,-2.1976,0.2578,-1.2357,
5.462233,-0.2663,1.1653,0.3684,-0.6015,-0.1291,1.0240,-2.1976,0.2578,-1.2357,
5.465148,-0.2663,1.1653,0.3684,-3.4837,1.6976,2.6755,-2.1976,0.2578,-1.2357,
5.466840,-0.2663,1.1653,0.3684,-3.4837,1.6976,2.6755,-1.8131,0.6413,-0.9310,
5.482036,-0.2663,1.1653,0.3684,-3.4837,1.6976,2.6755,-1.3140,0.5827,-0.4117,
5.502761,-0.3430,0.8719,0.3491,-3.4837,1.6976,2.6755,-1.3140,0.5827,-0.4117,
5.504828,-0.3430,0.8719,0.3491,-3.8779,-1.1193,1.8382,-1.3140,0.5827,-0.4117,
5.507279,-0.3430,0.8719,0.3491,-3.8779,-1.1193,1.8382,-0.8016,0.5188,0.0053,
5.522042,-0.3430,0.8719,0.3491,-3.8779,-1.1193,1.8382,-0.4043,0.5715,0.1268,
5.542460,-0.2096,0.6496,0.1742,-3.8779,-1.1193,1.8382,-0.4043,0.5715,0.1268,
5.544736,-0.2096,0.6496,0.1742,-2.5584,-3.2557,-0.1194,-0.4043,0.5715,0.1268,
5.546648,-0.2096,0.6496,0.1742,-2.5584,-3.2557,-0.1194,-0.1236,0.5561,0.0501,
5.561813,-0.2096,0.6496,0.1742,-2.5584,-3.2557,-0.1194,0.0341,0.3899,-0.0368,
5.581793,-0.0799,0.7056,0.0699,-2.5584,-3.2557,-0.1194,0.0341,0.3899,-0.0368,
5.584606,-0.0799,0.7056,0.0699,-1.2548,-2.7040,-1.1682,0.0341,0.3899,-0.0368,
5.586546,-0.0799,0.7056,0.0699,-1.2548,-2.7040,-1.1682,0.1044,0.0501,-0.0740,
5.601711,-0.0799,0.7056,0.0699,-1.2548,-2.7040,-1.1682,0.1880,-0.1603,-0.1023,
5.622091,-0.0061,0.7249,0.0044,-1.2548,-2.7040,-1.1682,0.1880,-0.1603,-0.1023,
5.624457,-0.0061,0.7249,0.0044,-0.5018,-2.5271,-1.7527,0.1880,-0.1603,-0.1023,
5.626454,-0.0061,0.7249,0.0044,-0.5018,-2.5271,-1.7527,0.2423,-0.2732,-0.0815,
5.641497,-0.0061,0.7249,0.0044,-0.5018,-2.5271,-1.7527,0.2152,-0.3622,0.0453,
5.661930,0.0862,0.8304,-0.0354,-0.5018,-2.5271,-1.7527,0.2152,-0.3622,0.0453,
5.664941,0.0862,0.8304,-0.0354,0.3880,-1.5091,-2.0492,0.2152,-0.3622,0.0453,
5.666641,0.0862,0.8304,-0.0354,0.3880,-1.5091,-2.0492,0.1486,-0.2727,0.2104,
5.681423,0.0862,0.8304,-0.0354,0.3880,-1.5091,-2.0492,0.0666,-0.0272,0.2855,
5.701338,0.0577,0.9716,-0.0029,0.3880,-1.5091,-2.0492,0.0666,-0.0272,0.2855,
5.704176,0.0577,0.9716,-0.0029,0.0022,-0.1274,-1.6864,0.0666,-0.0272,0.2855,
5.705868,0.0577,0.9716,-0.0029,0.0022,-0.1274,-1.6864,0.0085,0.3617,0.3084,
5.721076,0.0577,0.9716,-0.0029,0.0022,-0.1274,-1.6864,-0.0208,0.6844,0.3425,
5.741581,-0.0818,1.2013,0.1051,0.0022,-0.1274,-1.6864,-0.0208,0.6844,0.3425,
5.743867,-0.0818,1.2013,0.1051,-1.4245,2.1227,-0.6039,-0.0208,0.6844,0.3425,
5.745646,-0.0818,1.2013,0.1051,-1.4245,2.1227,-0.6039,-0.0123,0.7430,0.3302,
5.761835,-0.0818,1.2013,0.1051,-1.4245,2.1227,-0.6039,0.0767,0.5997,0.3015,
5.781498,-0.1700,1.3657,0.1754,-1.4245,2.1227,-0.6039,0.0767,0.5997,0.3015,
5.785186,-0.1700,1.3657,0.1754,-2.3666,3.7402,0.0804,0.0767,0.5997,0.3015,
5.787161,-0.1700,1.3657,0.1754,-2.3666,3.7402,0.0804,0.2562,0.3398,0.3180,
5.801744,-0.1700,1.3657,0.1754,-2.3666,3.7402,0.0804,0.5278,-0.0932,0.2514,
5.821455,-0.0652,1.3244,0.1549,-2.3666,3.7402,0.0804,0.5278,-0.0932,0.2514,
5.824372,-0.0652,1.3244,0.1549,-1.4411,3.3195,0.0269,0.5278,-0.0932,0.2514,
5.825833,-0.0652,1.3244,0.1549,-1.4411,3.3195,0.0269,0.7201,-0.5167,0.2051,
5.841298,-0.0652,1.3244,0.1549,-1.4411,3.3195,0.0269,0.5518,-0.7531,0.1497,
5.861088,0.0897,1.2574,0.1319,-1.4411,3.3195,0.0269,0.5518,-0.7531,0.1497,
5.863320,0.0897,1.2574,0.1319,-0.0256,2.6350,0.0694,0.5518,-0.7531,0.1497,
5.864331,0.0897,1.2574,0.1319,-0.0256,2.6350,0.0694,0.1593,-0.7222,0.0527,
5.881520,0.0897,1.2574,0.1319,-0.0256,2.6350,0.0694,-0.1449,-0.7920,-0.0208,
5.902230,0.2810,1.1890,0.3142,-0.0256,2.6350,0.0694,-0.1449,-0.7920,-0.0208,
5.905153,0.2810,1.1890,0.3142,1.8068,1.9649,1.8863,-0.1449,-0.7920,-0.0208,
5.906891,0.2810,1.1890,0.3142,1.8068,1.9649,1.8863,-0.2147,-0.9944,-0.1656,
5.921990,0.2810,1.1890,0.3142,1.8068,1.9649,1.8863,-0.0490,-0.9758,-0.2429,
5.941424,0.2802,0.9269,0.3176,1.8068,1.9649,1.8863,-0.0490,-0.9758,-0.2429,
5.943514,0.2802,0.9269,0.3176,1.8311,-0.6054,1.9056,-0.0490,-0.9758,-0.2429,
5.945131,0.2802,0.9269,0.3176,1.8311,-0.6054,1.9056,0.1965,-0.7244,-0.1411,
5.962056,0.2802,0.9269,0.3176,1.8311,-0.6054,1.9056,0.3782,-0.3499,0.0266,
5.981103,0.3269,0.8768,0.1229,1.8311,-0.6054,1.9056,0.3782,-0.3499,0.0266,
5.984069,0.3269,0.8768,0.1229,2.2570,-1.1068,0.1120,0.3782,-0.3499,0.0266,
5.985912,0.3269,0.8768,0.1229,2.2570,-1.1068,0.1120,0.4751,0.0543,0.0655,
6.001476,0.3269,0.8768,0.1229,2.2570,-1.1068,0.1120,0.5694,0.4389,-0.0117,
6.021743,0.2375,0.9997,-0.0112,2.2570,-1.1068,0.1120,0.5694,0.4389,-0.0117,
6.023775,0.2375,0.9997,-0.0112,1.3438,0.0817,-1.0128,0.5694,0.4389,-0.0117,
6.025467,0.2375,0.9997,-0.0112,1.3438,0.0817,-1.0128,0.6993,0.7436,-0.0863,
6.041976,0.2375,0.9997,-0.0112,1.3438,0.0817,-1.0128,0.8879,1.3172,-0.0629,
6.061021,-0.0110,1.0307,-0.0836,1.3438,0.0817,-1.0128,0.8879,1.3172,-0.0629,
6.063035,-0.0110,1.0307,-0.0836,-1.0423,0.3589,-1.4402,0.8879,1.3172,-0.0629,
6.064902,-0.0110,1.0307,-0.0836,-1.0423,0.3589,-1.4402,1.3508,2.3915,-0.1369,
6.081166,-0.0110,1.0307,-0.0836,-1.0423,0.3589,-1.4402,1.9633,3.1351,-0.3196,
6.101725,-0.1715,0.8639,-0.0809,-1.0423,0.3589,-1.4402,1.9633,3.1351,-0.3196,
6.104094,-0.1715,0.8639,-0.0809,-2.4720,-1.3086,-0.8588,1.9633,3.1351,-0.3196,
6.105938,-0.1715,0.8639,-0.0809,-2.4720,-1.3086,-0.8588,2.3308,2.9018,-0.0197,
6.122224,-0.1715,0.8639,-0.0809,-2.4720,-1.3086,-0.8588,2.1753,1.6144,0.4783,
6.141273,-0.0056,0.7239,-0.1080,-2.4720,-1.3086,-0.8588,2.1753,1.6144,0.4783,
6.143844,-0.0056,0.7239,-0.1080,-0.9610,-2.6427,-0.3194,2.1753,1.6144,0.4783,
6.145694,-0.0056,0.7239,-0.1080,-0.9610,-2.6427,-0.3194,1.8195,0.0218,0.7462,
6.160940,-0.0056,0.7239,-0.1080,-0.9610,-2.6427,-0.3194,1.6810,-0.6711,0.7760,
6.181729,-0.0726,0.7268,-0.1600,-0.9610,-2.6427,-0.3194,1.6810,-0.6711,0.7760,
6.184303,-0.0726,0.7268,-0.1600,-1.8950,-2.5065,-0.1375,1.6810,-0.6711,0.7760,
6.186095,-0.0726,0.7268,-0.1600,-1.8950,-2.5065,-0.1375,1.5196,-0.5859,0.8384,
6.201507,-0.0726,0.7268,-0.1600,-1.8950,-2.5065,-0.1375,1.0935,-0.1965,0.9763,
6.221267,-0.0821,0.7610,-0.1456,-1.8950,-2.5065,-0.1375,1.0935,-0.1965,0.9763,
6.224297,-0.0821,0.7610,-0.1456,-2.3090,-2.0343,0.5234,1.0935,-0.1965,0.9763,
6.227092,-0.0821,0.7610,-0.1456,-2.3090,-2.0343,0.5234,0.6216,0.4027,1.1180,
6.241898,-0.0821,0.7610,-0.1456,-2.3090,-2.0343,0.5234,0.3995,0.9502,1.2735,
6.260962,0.2494,0.5800,-0.3828,-2.3090,-2.0343,0.5234,0.3995,0.9502,1.2735,
6.264001,0.2494,0.5800,-0.3828,0.4341,-3.6833,-1.6574,0.3995,0.9502,1.2735,
6.265832,0.2494,0.5800,-0.3828,0.4341,-3.6833,-1.6574,0.1704,0.8943,1.3545,
6.281035,0.2494,0.5800,-0.3828,0.4341,-3.6833,-1.6574,-0.4048,0.4772,1.1446,
6.300384,0.6408,0.7004,-0.4192,0.4341,-3.6833,-1.6574,-0.4048,0.4772,1.1446,
6.302772,0.6408,0.7004,-0.4192,3.7481,-2.3987,-2.1189,-0.4048,0.4772,1.1446,
6.304785,0.6408,0.7004,-0.4192,3.7481,-2.3987,-2.1189,-0.5475,0.6195,0.6477,
6.321012,0.6408,0.7004,-0.4192,3.7481,-2.3987,-2.1189,-0.3915,0.2141,0.2621,
6.341930,0.2871,0.9860,-0.3633,3.7481,-2.3987,-2.1189,-0.3915,0.2141,0.2621,
6.345633,0.2871,0.9860,-0.3633,0.0738,0.4201,-1.7615,-0.3915,0.2141,0.2621,
6.347547,0.2871,0.9860,-0.3633,0.0738,0.4201,-1.7615,-0.2642,0.1039,0.0336,
6.360735,0.2871,0.9860,-0.3633,0.0738,0.4201,-1.7615,-0.0692,0.1033,-0.1417,
6.380857,0.1368,1.0613,-0.6010,0.0738,0.4201,-1.7615,-0.0692,0.1033,-0.1417,
6.384017,0.1368,1.0613,-0.6010,-1.3778,1.1458,-4.1203,-0.0692,0.1033,-0.1417,
6.385696,0.1368,1.0613,-0.6010,-1.3778,1.1458,-4.1203,0.1603,-0.3473,-0.3846,
6.401143,0.1368,1.0613,-0.6010,-1.3778,1.1458,-4.1203,-0.1694,-0.7569,-0.3739,
6.420918,0.2316,1.3056,-0.3137,-1.3778,1.1458,-4.1203,-0.1694,-0.7569,-0.3739,
6.424011,0.2316,1.3056,-0.3137,-0.2684,3.4997,-1.2487,-0.1694,-0.7569,-0.3739,
6.425657,0.2316,1.3056,-0.3137,-0.2684,3.4997,-1.2487,-0.2019,-0.6370,-0.0261,
6.440861,0.2316,1.3056,-0.3137,-0.2684,3.4997,-1.2487,0.0362,-0.2328,0.2951,
6.460063,0.4236,1.1316,-0.3955,-0.2684,3.4997,-1.2487,0.0362,-0.2328,0.2951,
6.462252,0.4236,1.1316,-0.3955,1.5952,1.8026,-2.0377,0.0362,-0.2328,0.2951,
6.463597,0.4236,1.1316,-0.3955,1.5952,1.8026,-2.0377,-1.2373,-1.8035,0.0304,
6.481950,0.4236,1.1316,-0.3955,1.5952,1.8026,-2.0377,-1.5121,-0.4996,0.4906,
6.501293,0.7151,0.9328,-0.1397,1.5952,1.8026,-2.0377,-1.5121,-0.4996,0.4906,
6.504980,0.7151,0.9328,-0.1397,4.4338,-0.2111,0.0733,-1.5121,-0.4996,0.4906,
6.507959,0.7151,0.9328,-0.1397,4.4338,-0.2111,0.0733,-1.0530,0.4346,0.0245,
6.522577,0.7151,0.9328,-0.1397,4.4338,-0.2111,0.0733,-1.2528,-0.7686,-0.6402,
6.541288,0.3283,0.9289,-0.0677,4.4338,-0.2111,0.0733,-1.2528,-0.7686,-0.6402,
6.543374,0.3283,0.9289,-0.0677,0.7592,-0.3347,0.3666,-1.2528,-0.7686,-0.6402,
6.545048,0.3283,0.9289,-0.0677,0.7592,-0.3347,0.3666,-1.4578,-1.4775,-0.9092,
6.560478,0.3283,0.9289,-0.0677,0.7592,-0.3347,0.3666,-1.5553,-1.5185,-0.9561,
6.581102,0.2851,0.9660,-0.0054,0.7592,-0.3347,0.3666,-1.5553,-1.5185,-0.9561,
6.583414,0.2851,0.9660,-0.0054,0.7104,-0.0971,0.5495,-1.5553,-1.5185,-0.9561,
6.584940,0.2851,0.9660,-0.0054,0.7104,-0.0971,0.5495,-1.6533,-1.2773,-1.0844,
6.600370,0.2851,0.9660,-0.0054,0.7104,-0.0971,0.5495,-1.8605,-1.1713,-1.3151,
6.621171,0.1845,0.9772,0.0733,0.7104,-0.0971,0.5495,-1.8605,-1.1713,-1.3151,
6.623504,0.1845,0.9772,0.0733,0.1637,-0.0910,0.7456,-1.8605,-1.1713,-1.3151,
6.625098,0.1845,0.9772,0.0733,0.1637,-0.0910,0.7456,-2.1247,-1.0504,-1.4983,
6.640498,0.1845,0.9772,0.0733,0.1637,-0.0910,0.7456,-2.2232,-0.6258,-1.5606,
6.660835,-0.2184,1.0938,0.3723,0.1637,-0.0910,0.7456,-2.2232,-0.6258,-1.5606,
6.664397,-0.2184,1.0938,0.3723,-3.1921,1.0002,2.8665,-2.2232,-0.6258,-1.5606,
6.666437,-0.2184,1.0938,0.3723,-3.1921,1.0002,2.8665,-1.9382,-0.1150,-1.2996,
6.680692,-0.2184,1.0938,0.3723,-3.1921,1.0002,2.8665,-1.4056,0.4256,-0.7505,
6.700761,-0.3748,0.9464,0.4031,-3.1921,1.0002,2.8665,-1.4056,0.4256,-0.7505,
6.703053,-0.3748,0.9464,0.4031,-4.2685,-0.4035,2.4876,-1.4056,0.4256,-0.7505,
6.704814,-0.3748,0.9464,0.4031,-4.2685,-0.4035,2.4876,-0.7558,0.9076,-0.1699,
6.721217,-0.3748,0.9464,0.4031,-4.2685,-0.4035,2.4876,-0.3052,1.2128,0.0698,
6.740558,-0.1893,0.7068,0.1600,-4.2685,-0.4035,2.4876,-0.3052,1.2128,0.0698,
6.742991,-0.1893,0.7068,0.1600,-2.3573,-2.7200,-0.1242,-0.3052,1.2128,0.0698,
6.745013,-0.1893,0.7068,0.1600,-2.3573,-2.7200,-0.1242,-0.0953,1.0669,0.0256,
6.760288,-0.1893,0.7068,0.1600,-2.3573,-2.7200,-0.1242,-0.0186,0.6205,-0.0783,
6.780943,-0.0730,0.6997,0.0789,-2.3573,-2.7200,-0.1242,-0.0186,0.6205,-0.0783,
6.783395,-0.0730,0.6997,0.0789,-1.1498,-2.7860,-0.9570,-0.0186,0.6205,-0.0783,
6.785293,-0.0730,0.6997,0.0789,-1.1498,-2.7860,-0.9570,0.0027,0.0410,-0.1103,
6.800428,-0.0730,0.6997,0.0789,-1.1498,-2.7860,-0.9570,0.0250,-0.3798,-0.1486,
6.820617,0.0090,0.7153,0.0332,-1.1498,-2.7860,-0.9570,0.0250,-0.3798,-0.1486,
6.822811,0.0090,0.7153,0.0332,-0.3071,-2.6359,-1.3967,0.0250,-0.3798,-0.1486,
6.824681,0.0090,0.7153,0.0332,-0.3071,-2.6359,-1.3967,0.0858,-0.5326,-0.1699,
6.840878,0.0090,0.7153,0.0332,-0.3071,-2.6359,-1.3967,0.0943,-0.5971,-0.1055,
6.860512,0.0809,0.7642,-0.0239,-0.3071,-2.6359,-1.3967,0.0943,-0.5971,-0.1055,
6.864761,0.0809,0.7642,-0.0239,0.4115,-2.1653,-1.9135,0.0943,-0.5971,-0.1055,
6.866554,0.0809,0.7642,-0.0239,0.4115,-2.1653,-1.9135,0.0607,-0.4341,0.0442,
6.881623,0.0809,0.7642,-0.0239,0.4115,-2.1653,-1.9135,-0.0229,0.0889,0.1507,
6.900668,0.0364,0.9093,-0.0230,0.4115,-2.1653,-1.9135,-0.0229,0.0889,0.1507,
6.903030,0.0364,0.9093,-0.0230,-0.0734,-0.7428,-1.8940,-0.0229,0.0889,0.1507,
6.905002,0.0364,0.9093,-0.0230,-0.0734,-0.7428,-1.8940,-0.1870,0.6924,0.2067,
6.921103,0.0364,0.9093,-0.0230,-0.0734,-0.7428,-1.8940,-0.3148,1.0195,0.2770,
6.940337,-0.0906,1.1969,0.1427,-0.0734,-0.7428,-1.8940,-0.3148,1.0195,0.2770,
6.943635,-0.0906,1.1969,0.1427,-1.3259,2.0888,-0.3456,-0.3148,1.0195,0.2770,
6.945443,-0.0906,1.1969,0.1427,-1.3259,2.0888,-0.3456,-0.2647,1.0743,0.3084,
6.960888,-0.0906,1.1969,0.1427,-1.3259,2.0888,-0.3456,-0.0469,0.9529,0.3318,
6.980557,-0.1725,1.4018,0.1573,-1.3259,2.0888,-0.3456,-0.0469,0.9529,0.3318,
6.984541,-0.1725,1.4018,0.1573,-2.1785,4.1145,-0.2806,-0.0469,0.9529,0.3318,
6.986210,-0.1725,1.4018,0.1573,-2.1785,4.1145,-0.2806,0.2322,0.7430,0.3451,
7.001011,-0.1725,1.4018,0.1573,-2.1785,4.1145,-0.2806,0.4938,0.4772,0.2945,
7.020927,-0.0647,1.3930,0.1275,-2.1785,4.1145,-0.2806,0.4938,0.4772,0.2945,
7.023265,-0.0647,1.3930,0.1275,-1.2023,4.0095,-0.4458,0.4938,0.4772,0.2945,
7.024982,-0.0647,1.3930,0.1275,-1.2023,4.0095,-0.4458,0.7430,0.0330,0.1790,
7.040776,-0.0647,1.3930,0.1275,-1.2023,4.0095,-0.4458,0.8373,-0.4730,0.1332,
7.060472,0.0545,1.4431,0.1065,-1.2023,4.0095,-0.4458,0.8373,-0.4730,0.1332,
7.062763,0.0545,1.4431,0.1065,-0.1070,4.4554,-0.3412,0.8373,-0.4730,0.1332,
7.064467,0.0545,1.4431,0.1065,-0.1070,4.4554,-0.3412,0.5747,-0.8378,0.0250,
7.079555,0.0545,1.4431,0.1065,-0.1070,4.4554,-0.3412,0.2754,-1.0125,0.0112,
7.099727,0.2966,1.1707,0.2707,-0.1070,4.4554,-0.3412,0.2754,-1.0125,0.0112,
7.101527,0.2966,1.1707,0.2707,2.2116,1.7644,1.4571,0.2754,-1.0125,0.0112,
7.102905,0.2966,1.1707,0.2707,2.2116,1.7644,1.4571,0.1443,-0.8740,-0.0767,
7.123914,0.2966,1.1707,0.2707,2.2116,1.7644,1.4571,0.1662,-0.5220,-0.1459,
7.140581,0.3379,0.8573,0.3342,2.2116,1.7644,1.4571,0.1662,-0.5220,-0.1459,
7.142832,0.3379,0.8573,0.3342,2.6270,-1.3176,2.1592,0.1662,-0.5220,-0.1459,
7.144536,0.3379,0.8573,0.3342,2.6270,-1.3176,2.1592,0.2551,-0.1854,-0.0639,
7.159472,0.3379,0.8573,0.3342,2.6270,-1.3176,2.1592,0.3542,-0.0064,0.0905,
7.180162,0.4126,0.9066,0.2060,2.6270,-1.3176,2.1592,0.3542,-0.0064,0.0905,
7.183401,0.4126,0.9066,0.2060,3.3328,-0.8442,1.0136,0.3542,-0.0064,0.0905,
7.185030,0.4126,0.9066,0.2060,3.3328,-0.8442,1.0136,0.4394,0.0463,0.1443,
7.199506,0.4126,0.9066,0.2060,3.3328,-0.8442,1.0136,0.4703,0.1784,0.0613,
7.219385,0.2287,0.9799,0.0156,3.3328,-0.8442,1.0136,0.4703,0.1784,0.0613,
7.221476,0.2287,0.9799,0.0156,1.4523,-0.1354,-0.6890,0.4703,0.1784,0.0613,
7.223388,0.2287,0.9799,0.0156,1.4523,-0.1354,-0.6890,0.4543,0.4400,0.0032,
7.239335,0.2287,0.9799,0.0156,1.4523,-0.1354,-0.6890,0.5582,0.9566,0.0911,
7.259448,0.0044,1.0063,0.0276,1.4523,-0.1354,-0.6890,0.5582,0.9566,0.0911,
7.262455,0.0044,1.0063,0.0276,-0.7668,0.1118,-0.4033,0.5582,0.9566,0.0911,
7.264532,0.0044,1.0063,0.0276,-0.7668,0.1118,-0.4033,0.9806,1.8514,0.0320,
7.280230,0.0044,1.0063,0.0276,-0.7668,0.1118,-0.4033,1.8243,2.8022,-0.1337,
7.299952,-0.2035,0.8673,-0.0012,-0.7668,0.1118,-0.4033,1.8243,2.8022,-0.1337,
7.302376,-0.2035,0.8673,-0.0012,-2.7294,-1.2775,-0.2177,1.8243,2.8022,-0.1337,
7.304317,-0.2035,0.8673,-0.0012,-2.7294,-1.2775,-0.2177,2.2754,2.3148,0.1960,
7.320544,-0.2035,0.8673,-0.0012,-2.7294,-1.2775,-0.2177,2.2589,1.1590,0.5822,
7.339747,-0.0943,0.6535,-0.0880,-2.7294,-1.2775,-0.2177,2.2589,1.1590,0.5822,
7.342005,-0.0943,0.6535,-0.0880,-1.8204,-3.3411,-0.2372,2.2589,1.1590,0.5822,
7.343973,-0.0943,0.6535,-0.0880,-1.8204,-3.3411,-0.2372,2.0687,0.1641,0.8229,
7.359577,-0.0943,0.6535,-0.0880,-1.8204,-3.3411,-0.2372,1.7657,-0.3947,1.1010,
7.379578,-0.1087,0.6889,-0.1732,-1.8204,-3.3411,-0.2372,1.7657,-0.3947,1.1010,
7.382039,-0.1087,0.6889,-0.1732,-2.3271,-2.8761,-0.3244,1.7657,-0.3947,1.1010,
7.383865,-0.1087,0.6889,-0.1732,-2.3271,-2.8761,-0.3244,1.5036,-0.3004,1.3385,
7.399943,-0.1087,0.6889,-0.1732,-2.3271,-2.8761,-0.3244,1.1659,0.0538,1.4770,
7.420141,-0.0381,0.6894,-0.2243,-2.3271,-2.8761,-0.3244,1.1659,0.0538,1.4770,
7.422606,-0.0381,0.6894,-0.2243,-2.1645,-2.6985,-0.3091,1.1659,0.0538,1.4770,
7.424563,-0.0381,0.6894,-0.2243,-2.1645,-2.6985,-0.3091,0.7254,0.3867,1.6602,
7.439624,-0.0381,0.6894,-0.2243,-2.1645,-2.6985,-0.3091,0.2413,0.5875,1.6501,
7.459596,0.6205,0.6357,-0.4280,-2.1645,-2.6985,-0.3091,0.2413,0.5875,1.6501,
7.461926,0.6205,0.6357,-0.4280,3.6324,-3.0471,-2.1664,0.2413,0.5875,1.6501,
7.463861,0.6205,0.6357,-0.4280,3.6324,-3.0471,-2.1664,-0.1065,0.7377,1.3113,
7.479921,0.6205,0.6357,-0.4280,3.6324,-3.0471,-2.1664,-0.3217,0.6248,0.6892,
7.499591,0.5326,0.6579,-0.3367,3.6324,-3.0471,-2.1664,-0.3217,0.6248,0.6892,
7.501864,0.5326,0.6579,-0.3367,2.3481,-2.7396,-1.4227,-0.3217,0.6248,0.6892,
7.504261,0.5326,0.6579,-0.3367,2.3481,-2.7396,-1.4227,-0.4847,0.1726,0.0991,
7.518938,0.5326,0.6579,-0.3367,2.3481,-2.7396,-1.4227,-0.6179,0.0730,-0.0250,
7.539853,0.3503,0.9767,-0.4368,2.3481,-2.7396,-1.4227,-0.6179,0.0730,-0.0250,
7.542148,0.3503,0.9767,-0.4368,0.5221,0.3632,-2.5797,-0.6179,0.0730,-0.0250,
7.543876,0.3503,0.9767,-0.4368,0.5221,0.3632,-2.5797,-0.5593,0.2722,-0.1049,
7.559965,0.3503,0.9767,-0.4368,0.5221,0.3632,-2.5797,-0.1987,0.1417,-0.3611,
7.579992,0.2353,1.0075,-0.7312,0.5221,0.3632,-2.5797,-0.1987,0.1417,-0.3611,
7.583953,0.2353,1.0075,-0.7312,-0.5337,0.6178,-5.6046,-0.1987,0.1417,-0.3611,
7.585991,0.2353,1.0075,-0.7312,-0.5337,0.6178,-5.6046,0.3457,-0.1310,-0.4959,
7.601882,0.2353,1.0075,-0.7312,-0.5337,0.6178,-5.6046,0.1119,-0.6045,-0.2461,
7.618700,0.3738,1.1443,-0.4002,-0.5337,0.6178,-5.6046,0.1119,-0.6045,-0.2461,
7.620989,0.3738,1.1443,-0.4002,0.9854,1.9323,-2.2357,0.1119,-0.6045,-0.2461,
7.622899,0.3738,1.1443,-0.4002,0.9854,1.9323,-2.2357,-0.2088,-1.0264,-0.1603,
7.638821,0.3738,1.1443,-0.4002,0.9854,1.9323,-2.2357,-0.7563,-1.3891,-0.0948,
7.658915,0.3955,1.4067,-0.2937,0.9854,1.9323,-2.2357,-0.7563,-1.3891,-0.0948,
7.661560,0.3955,1.4067,-0.2937,1.3268,4.4581,-1.2454,-0.7563,-1.3891,-0.0948,
7.663387,0.3955,1.4067,-0.2937,1.3268,4.4581,-1.2454,-1.5532,-1.3555,0.1076,
7.678926,0.3955,1.4067,-0.2937,1.3268,4.4581,-1.2454,-1.5004,-0.3670,-0.1385,
7.699293,0.4549,0.9462,-0.0567,1.3268,4.4581,-1.2454,-1.5004,-0.3670,-0.1385,
7.702973,0.4549,0.9462,-0.0567,1.9651,-0.1420,0.5927,-1.5004,-0.3670,-0.1385,
7.705304,0.4549,0.9462,-0.0567,1.9651,-0.1420,0.5927,-1.5137,-0.9476,-0.6232,
7.721077,0.4549,0.9462,-0.0567,1.9651,-0.1420,0.5927,-1.6591,-1.8285,-0.8693,
7.738232,0.3799,0.9374,0.0164,1.9651,-0.1420,0.5927,-1.6591,-1.8285,-0.8693,
7.739419,0.3799,0.9374,0.0164,1.5596,-0.3546,0.8368,-1.6591,-1.8285,-0.8693,
7.740182,0.3799,0.9374,0.0164,1.5596,-0.3546,0.8368,-1.8488,-2.3846,-1.0994,
7.757916,0.3799,0.9374,0.0164,1.5596,-0.3546,0.8368,-2.0219,-2.5433,-1.4120,
7.779201,0.2460,1.0356,0.1075,1.5596,-0.3546,0.8368,-2.0219,-2.5433,-1.4120,
7.780977,0.2460,1.0356,0.1075,0.7564,0.4838,1.1767,-2.0219,-2.5433,-1.4120,
7.782217,0.2460,1.0356,0.1075,0.7564,0.4838,1.1767,-2.2301,-2.3676,-1.7119,
7.799113,0.2460,1.0356,0.1075,0.7564,0.4838,1.1767,-2.4506,-1.8647,-1.7918,
7.819177,-0.2871,1.1944,0.5297,0.7564,0.4838,1.1767,-2.4506,-1.8647,-1.7918,
7.821745,-0.2871,1.1944,0.5297,-3.8082,1.9723,4.5201,-2.4506,-1.8647,-1.7918,
7.823644,-0.2871,1.1944,0.5297,-3.8082,1.9723,4.5201,-2.2546,-0.8804,-1.4072,
7.838651,-0.2871,1.1944,0.5297,-3.8082,1.9723,4.5201,-1.4440,0.5635,-0.6003,
7.858993,-0.3188,1.0087,0.5490,-3.8082,1.9723,4.5201,-1.4440,0.5635,-0.6003,
7.861190,-0.3188,1.0087,0.5490,-3.7310,0.1957,3.9986,-1.4440,0.5635,-0.6003,
7.862893,-0.3188,1.0087,0.5490,-3.7310,0.1957,3.9986,-0.2216,1.7050,0.1965,
7.879625,-0.3188,1.0087,0.5490,-3.7310,0.1957,3.9986,0.2748,1.6591,0.2216,
7.899320,-0.1571,0.6376,0.1593,-3.7310,0.1957,3.9986,0.2748,1.6591,0.2216,
7.903184,-0.1571,0.6376,0.1593,-2.1112,-3.4365,0.1339,0.2748,1.6591,0.2216,
7.905217,-0.1571,0.6376,0.1593,-2.1112,-3.4365,0.1339,0.3707,1.0653,0.0133,
7.921423,-0.1571,0.6376,0.1593,-2.1112,-3.4365,0.1339,0.2663,0.3526,-0.1651,
7.939478,-0.1739,0.6054,0.0357,-2.1112,-3.4365,0.1339,0.2663,0.3526,-0.1651,
7.941636,-0.1739,0.6054,0.0357,-2.2079,-3.7716,-0.9698,0.2663,0.3526,-0.1651,
7.943660,-0.1739,0.6054,0.0357,-2.2079,-3.7716,-0.9698,0.0671,-0.1981,-0.2392,
7.958860,-0.1739,0.6054,0.0357,-2.2079,-3.7716,-0.9698,-0.1395,-0.5838,-0.2253,
7.978640,-0.0261,0.6464,0.0374,-2.2079,-3.7716,-0.9698,-0.1395,-0.5838,-0.2253,
7.981592,-0.0261,0.6464,0.0374,-0.6898,-3.3718,-0.9600,-0.1395,-0.5838,-0.2253,
7.983711,-0.0261,0.6464,0.0374,-0.6898,-3.3718,-0.9600,-0.2812,-0.8570,-0.2759,
7.998138,-0.0261,0.6464,0.0374,-0.6898,-3.3718,-0.9600,-0.2791,-0.8448,-0.2855,
8.019040,0.0376,0.7483,0.0640,-0.6898,-3.3718,-0.9600,-0.2791,-0.8448,-0.2855,
8.021358,0.0376,0.7483,0.0640,-0.0028,-2.3626,-0.7939,-0.2791,-0.8448,-0.2855,
8.023381,0.0376,0.7483,0.0640,-0.0028,-2.3626,-0.7939,-0.2194,-0.7654,-0.2317,
8.039057,0.0376,0.7483,0.0640,-0.0028,-2.3626,-0.7939,-0.1193,-0.6621,-0.0644,
8.058763,0.0814,0.9438,0.0259,-0.0028,-2.3626,-0.7939,-0.1193,-0.6621,-0.0644,
8.062897,0.0814,0.9438,0.0259,0.4416,-0.4395,-1.2228,-0.1193,-0.6621,-0.0644,
8.064498,0.0814,0.9438,0.0259,0.4416,-0.4395,-1.2228,-0.0005,-0.3579,0.1257,
8.078423,0.0814,0.9438,0.0259,0.4416,-0.4395,-1.2228,0.0362,0.1161,0.2823,
8.098983,-0.0220,1.0588,-0.0034,0.4416,-0.4395,-1.2228,0.0362,0.1161,0.2823,
8.103130,-0.0220,1.0588,-0.0034,-0.6530,0.6887,-1.4915,0.0362,0.1161,0.2823,
8.105045,-0.0220,1.0588,-0.0034,-0.6530,0.6887,-1.4915,-0.0261,0.5864,0.3862,
8.118683,-0.0220,1.0588,-0.0034,-0.6530,0.6887,-1.4915,-0.0927,0.8016,0.4245,
8.138489,-0.1317,1.2169,0.0662,-0.6530,0.6887,-1.4915,-0.0927,0.8016,0.4245,
8.140715,-0.1317,1.2169,0.0662,-1.8227,2.2450,-0.8259,-0.0927,0.8016,0.4245,
8.142498,-0.1317,1.2169,0.0662,-1.8227,2.2450,-0.8259,-0.0879,0.8027,0.4314,
8.158623,-0.1317,1.2169,0.0662,-1.8227,2.2450,-0.8259,0.0213,0.6962,0.4400,
8.178083,-0.1862,1.3615,0.0745,-1.8227,2.2450,-0.8259,0.0213,0.6962,0.4400,
8.181318,-0.1862,1.3615,0.0745,-2.4802,3.6747,-0.7750,0.0213,0.6962,0.4400,
8.183239,-0.1862,1.3615,0.0745,-2.4802,3.6747,-0.7750,0.2296,0.5886,0.4266,
8.198728,-0.1862,1.3615,0.0745,-2.4802,3.6747,-0.7750,0.4794,0.4953,0.3979,
8.217849,-0.0963,1.5367,0.1180,-2.4802,3.6747,-0.7750,0.4794,0.4953,0.3979,
8.220093,-0.0963,1.5367,0.1180,-1.7268,5.3827,-0.2274,0.4794,0.4953,0.3979,
8.221178,-0.0963,1.5367,0.1180,-1.7268,5.3827,-0.2274,0.7281,0.1965,0.2839,
8.238369,-0.0963,1.5367,0.1180,-1.7268,5.3827,-0.2274,0.8629,-0.5332,0.1427,
8.258495,0.0247,1.3623,0.1791,-1.7268,5.3827,-0.2274,0.8629,-0.5332,0.1427,
8.261427,0.0247,1.3623,0.1791,-0.6314,3.6411,0.6851,0.8629,-0.5332,0.1427,
8.263367,0.0247,1.3623,0.1791,-0.6314,3.6411,0.6851,0.7691,-1.4461,0.0927,
8.278153,0.0247,1.3623,0.1791,-0.6314,3.6411,0.6851,0.6141,-1.9430,0.0032,
8.298225,0.2682,1.0129,0.2265,-0.6314,3.6411,0.6851,0.6141,-1.9430,0.0032,
8.301457,0.2682,1.0129,0.2265,1.6769,0.1940,1.4803,0.6141,-1.9430,0.0032,
8.303320,0.2682,1.0129,0.2265,1.6769,0.1940,1.4803,0.4623,-1.7135,-0.1108,
8.321538,0.2682,1.0129,0.2265,1.6769,0.1940,1.4803,0.3270,-1.1031,-0.1113,
8.338945,0.3709,0.8878,0.2570,1.6769,0.1940,1.4803,0.3270,-1.1031,-0.1113,
8.341607,0.3709,0.8878,0.2570,2.6899,-1.0460,1.9867,0.3270,-1.1031,-0.1113,
8.343498,0.3709,0.8878,0.2570,2.6899,-1.0460,1.9867,0.2413,-0.4357,-0.0053,
8.358672,0.3709,0.8878,0.2570,2.6899,-1.0460,1.9867,0.1981,0.0202,0.1145,
8.378157,0.4393,0.9183,0.1586,2.6899,-1.0460,1.9867,0.1981,0.0202,0.1145,
8.381120,0.4393,0.9183,0.1586,3.3084,-0.7454,1.0973,0.1981,0.0202,0.1145,
8.382894,0.4393,0.9183,0.1586,3.3084,-0.7454,1.0973,0.1683,0.2003,0.0921,
8.398373,0.4393,0.9183,0.1586,3.3084,-0.7454,1.0973,0.1236,0.2637,-0.0181,
8.417910,0.1910,0.9247,-0.0198,3.3084,-0.7454,1.0973,0.1236,0.2637,-0.0181,
8.420181,0.1910,0.9247,-0.0198,0.8092,-0.6774,-0.6233,0.1236,0.2637,-0.0181,
8.421944,0.1910,0.9247,-0.0198,0.8092,-0.6774,-0.6233,0.0692,0.4906,0.0091,
8.437414,0.1910,0.9247,-0.0198,0.8092,-0.6774,-0.6233,0.1140,0.8980,0.0463,
8.458102,0.0210,0.8937,-0.0547,0.8092,-0.6774,-0.6233,0.1140,0.8980,0.0463,
8.460351,0.0210,0.8937,-0.0547,-0.8670,-0.9807,-0.9577,0.1140,0.8980,0.0463,
8.462227,0.0210,0.8937,-0.0547,-0.8670,-0.9807,-0.9577,0.3297,1.4179,0.0181,
8.478057,0.0210,0.8937,-0.0547,-0.8670,-0.9807,-0.9577,1.1707,2.7585,-0.3473,
8.498087,-0.3479,0.9518,0.0169,-0.8670,-0.9807,-0.9577,1.1707,2.7585,-0.3473,
8.500384,-0.3479,0.9518,0.0169,-4.3612,-0.4301,-0.0516,1.1707,2.7585,-0.3473,
8.502798,-0.3479,0.9518,0.0169,-4.3612,-0.4301,-0.0516,1.9830,3.0877,-0.1859,
8.517886,-0.3479,0.9518,0.0169,-4.3612,-0.4301,-0.0516,2.2994,2.1396,0.2013,
8.537584,-0.1390,0.5876,-0.0601,-4.3612,-0.4301,-0.0516,2.2994,2.1396,0.2013,
8.540034,-0.1390,0.5876,-0.0601,-2.3275,-3.9871,-0.0687,2.2994,2.1396,0.2013,
8.541821,-0.1390,0.5876,-0.0601,-2.3275,-3.9871,-0.0687,2.3111,0.9747,0.5832,
8.558187,-0.1390,0.5876,-0.0601,-2.3275,-3.9871,-0.0687,1.8861,-0.3441,1.0280,
8.577807,-0.0738,0.6907,-0.2108,-2.3275,-3.9871,-0.0687,1.8861,-0.3441,1.0280,
8.580877,-0.0738,0.6907,-0.2108,-2.0065,-2.8637,-0.7449,1.8861,-0.3441,1.0280,
8.582917,-0.0738,0.6907,-0.2108,-2.0065,-2.8637,-0.7449,1.4749,-0.6456,1.1792,
8.598393,-0.0738,0.6907,-0.2108,-2.0065,-2.8637,-0.7449,1.0589,-0.0096,1.2224,
8.617451,-0.1043,0.7749,-0.2118,-2.0065,-2.8637,-0.7449,1.0589,-0.0096,1.2224,
8.620026,-0.1043,0.7749,-0.2118,-2.7449,-1.8860,-0.2523,1.0589,-0.0096,1.2224,
8.621761,-0.1043,0.7749,-0.2118,-2.7449,-1.8860,-0.2523,0.6732,0.7649,1.4083,
8.637592,-0.1043,0.7749,-0.2118,-2.7449,-1.8860,-0.2523,0.2791,1.1318,1.6144,
8.657783,0.5402,0.6332,-0.4290,-2.7449,-1.8860,-0.2523,0.2791,1.1318,1.6144,
8.661033,0.5402,0.6332,-0.4290,2.9315,-3.1156,-2.2796,0.2791,1.1318,1.6144,
8.663183,0.5402,0.6332,-0.4290,2.9315,-3.1156,-2.2796,-0.1401,0.8783,1.4472,
8.677267,0.5402,0.6332,-0.4290,2.9315,-3.1156,-2.2796,-0.4735,0.6578,0.7702,
8.697849,0.6293,0.6775,-0.3051,2.9315,-3.1156,-2.2796,-0.4735,0.6578,0.7702,
8.701698,0.6293,0.6775,-0.3051,3.3382,-2.5896,-1.2593,-0.4735,0.6578,0.7702,
8.703778,0.6293,0.6775,-0.3051,3.3382,-2.5896,-1.2593,-0.5795,0.3846,0.1097,
8.717695,0.6293,0.6775,-0.3051,3.3382,-2.5896,-1.2593,-0.4677,0.1060,-0.1097,
8.737938,0.2260,0.8658,-0.3435,3.3382,-2.5896,-1.2593,-0.4677,0.1060,-0.1097,
8.740301,0.2260,0.8658,-0.3435,-0.6307,-0.7775,-1.8564,-0.4677,0.1060,-0.1097,
8.742221,0.2260,0.8658,-0.3435,-0.6307,-0.7775,-1.8564,-0.4346,0.0463,-0.2621,
8.758165,0.2260,0.8658,-0.3435,-0.6307,-0.7775,-1.8564,-0.1811,-0.0597,-0.5028,
8.777440,0.2023,0.9504,-0.4461,-0.6307,-0.7775,-1.8564,-0.1811,-0.0597,-0.5028,
8.779927,0.2023,0.9504,-0.4461,-0.7222,-0.0004,-2.9199,-0.1811,-0.0597,-0.5028,
8.781737,0.2023,0.9504,-0.4461,-0.7222,-0.0004,-2.9199,0.1678,-0.5587,-0.6562,
8.797407,0.2023,0.9504,-0.4461,-0.7222,-0.0004,-2.9199,0.1587,-0.8581,-0.4458,
8.817245,0.2367,1.5330,-0.4415,-0.7222,-0.0004,-2.9199,0.1587,-0.8581,-0.4458,
8.819736,0.2367,1.5330,-0.4415,-0.1360,5.6628,-2.7411,0.1587,-0.8581,-0.4458,
8.821102,0.2367,1.5330,-0.4415,-0.1360,5.6628,-2.7411,0.2280,-0.3638,0.2232,
8.837548,0.2367,1.5330,-0.4415,-0.1360,5.6628,-2.7411,0.3047,0.5001,0.2647,
8.857700,0.3743,1.1399,-0.3999,-0.1360,5.6628,-2.7411,0.3047,0.5001,0.2647,
8.860031,0.3743,1.1399,-0.3999,1.1160,1.8523,-2.2419,0.3047,0.5001,0.2647,
8.861680,0.3743,1.1399,-0.3999,1.1160,1.8523,-2.2419,-1.1776,-1.9596,-0.5230,
8.877752,0.3743,1.1399,-0.3999,1.1160,1.8523,-2.2419,-1.9079,-1.9505,-0.1534,
8.897353,0.5876,1.0271,-0.1644,1.1160,1.8523,-2.2419,-1.9079,-1.9505,-0.1534,
8.899592,0.5876,1.0271,-0.1644,3.4511,0.6211,-0.3240,-1.9079,-1.9505,-0.1534,
8.901366,0.5876,1.0271,-0.1644,3.4511,0.6211,-0.3240,-1.3417,-0.3659,-0.2280,
8.917109,0.5876,1.0271,-0.1644,3.4511,0.6211,-0.3240,-1.6506,-1.4669,-0.5390,
8.938018,0.4334,0.9772,-0.0347,3.4511,0.6211,-0.3240,-1.6506,-1.4669,-0.5390,
8.941184,0.4334,0.9772,-0.0347,2.1215,0.0369,0.4609,-1.6506,-1.4669,-0.5390,
8.943135,0.4334,0.9772,-0.0347,2.1215,0.0369,0.4609,-1.8706,-2.2642,-0.8139,
8.957775,0.4334,0.9772,-0.0347,2.1215,0.0369,0.4609,-2.0027,-2.6759,-1.2826,
8.977914,0.3826,0.9543,0.0779,2.1215,0.0369,0.4609,-2.0027,-2.6759,-1.2826,
8.980785,0.3826,0.9543,0.0779,2.0655,-0.3061,1.0127,-2.0027,-2.6759,-1.2826,
8.982612,0.3826,0.9543,0.0779,2.0655,-0.3061,1.0127,-2.0432,-2.7186,-1.7646,
8.997248,0.3826,0.9543,0.0779,2.0655,-0.3061,1.0127,-2.0837,-2.5071,-2.1151,
9.016972,-0.0467,1.0156,0.3757,2.0655,-0.3061,1.0127,-2.0837,-2.5071,-2.1151,
9.019118,-0.0467,1.0156,0.3757,-1.4224,0.2032,3.2518,-2.0837,-2.5071,-2.1151,
9.020861,-0.0467,1.0156,0.3757,-1.4224,0.2032,3.2518,-2.0394,-2.1641,-2.0805,
9.037875,-0.0467,1.0156,0.3757,-1.4224,0.2032,3.2518,-1.4855,-1.2911,-1.3571,
9.057643,-0.3906,1.0427,0.5807,-1.4224,0.2032,3.2518,-1.4855,-1.2911,-1.3571,
9.060027,-0.3906,1.0427,0.5807,-4.1659,0.4787,4.5986,-1.4855,-1.2911,-1.3571,
9.061686,-0.3906,1.0427,0.5807,-4.1659,0.4787,4.5986,-0.6493,0.1177,-0.4442,
9.077656,-0.3906,1.0427,0.5807,-4.1659,0.4787,4.5986,0.0490,1.1308,0.0277,
9.097101,-0.1011,0.8700,0.2421,-4.1659,0.4787,4.5986,0.0490,1.1308,0.0277,
9.099307,-0.1011,0.8700,0.2421,-1.1815,-1.1953,1.0938,0.0490,1.1308,0.0277,
9.101137,-0.1011,0.8700,0.2421,-1.1815,-1.1953,1.0938,0.3217,1.0706,-0.0495,
9.118090,-0.1011,0.8700,0.2421,-1.1815,-1.1953,1.0938,0.3057,0.4820,-0.1965,
9.137773,-0.1798,0.7537,0.0684,-1.1815,-1.1953,1.0938,0.3057,0.4820,-0.1965,
9.142091,-0.1798,0.7537,0.0684,-1.8664,-2.3509,-0.4915,0.3057,0.4820,-0.1965,
9.144270,-0.1798,0.7537,0.0684,-1.8664,-2.3509,-0.4915,0.1305,-0.1747,-0.3015,
9.156659,-0.1798,0.7537,0.0684,-1.8664,-2.3509,-0.4915,-0.1124,-0.7670,-0.3174,
9.177362,-0.1204,0.7427,0.0562,-1.8664,-2.3509,-0.4915,-0.1124,-0.7670,-0.3174,
9.180692,-0.1204,0.7427,0.0562,-1.1858,-2.4597,-0.6070,-0.1124,-0.7670,-0.3174,
9.182928,-0.1204,0.7427,0.0562,-1.1858,-2.4597,-0.6070,-0.3100,-1.2091,-0.2764,
9.197169,-0.1204,0.7427,0.0562,-1.1858,-2.4597,-0.6070,-0.3302,-1.3667,-0.2956,
9.217043,0.0520,0.7671,0.1336,-1.1858,-2.4597,-0.6070,-0.3302,-1.3667,-0.2956,
9.220169,0.0520,0.7671,0.1336,0.5529,-2.2045,0.0265,-0.3302,-1.3667,-0.2956,
9.222051,0.0520,0.7671,0.1336,0.5529,-2.2045,0.0265,-0.2019,-1.6054,-0.2684,
9.236658,0.0520,0.7671,0.1336,0.5529,-2.2045,0.0265,0.0565,-1.8472,-0.1891,
9.257298,0.1121,0.7710,0.0134,0.5529,-2.2045,0.0265,0.0565,-1.8472,-0.1891,
9.260165,0.1121,0.7710,0.0134,1.1402,-2.1619,-1.1830,0.0565,-1.8472,-0.1891,
9.262080,0.1121,0.7710,0.0134,1.1402,-2.1619,-1.1830,0.3052,-1.6661,-0.0831,
9.277465,0.1121,0.7710,0.0134,1.1402,-2.1619,-1.1830,0.3973,-1.1840,0.0399,
9.297713,0.0552,0.7361,-0.1134,1.1402,-2.1619,-1.1830,0.3973,-1.1840,0.0399,
9.301177,0.0552,0.7361,-0.1134,0.5191,-2.5218,-2.2899,0.3973,-1.1840,0.0399,
9.303300,0.0552,0.7361,-0.1134,0.5191,-2.5218,-2.2899,0.2402,-0.6631,0.0826,
9.316818,0.0552,0.7361,-0.1134,0.5191,-2.5218,-2.2899,-0.0900,-0.3601,0.1044,
9.337726,-0.1051,0.8284,-0.0171,0.5191,-2.5218,-2.2899,-0.0900,-0.3601,0.1044,
9.340501,-0.1051,0.8284,-0.0171,-1.1113,-1.6201,-1.3163,-0.0900,-0.3601,0.1044,
9.342457,-0.1051,0.8284,-0.0171,-1.1113,-1.6201,-1.3163,-0.4261,-0.2754,0.1124,
9.356639,-0.1051,0.8284,-0.0171,-1.1113,-1.6201,-1.3163,-0.6269,-0.3159,0.1364,
9.377390,-0.1830,0.9188,0.1950,-1.1113,-1.6201,-1.3163,-0.6269,-0.3159,0.1364,
9.380883,-0.1830,0.9188,0.1950,-1.9381,-0.7073,0.5586,-0.6269,-0.3159,0.1364,
9.382628,-0.1830,0.9188,0.1950,-1.9381,-0.7073,0.5586,-0.5987,-0.3995,0.1886,
9.396997,-0.1830,0.9188,0.1950,-1.9381,-0.7073,0.5586,-0.3585,-0.4730,0.2258,
9.418245,-0.1845,1.0889,0.1395,-1.9381,-0.7073,0.5586,-0.3585,-0.4730,0.2258,
9.422682,-0.1845,1.0889,0.1395,-2.0169,0.9855,-0.1553,-0.3585,-0.4730,0.2258,
9.425006,-0.1845,1.0889,0.1395,-2.0169,0.9855,-0.1553,-0.1278,-0.6408,0.2354,
9.436284,-0.1845,1.0889,0.1395,-2.0169,0.9855,-0.1553,-0.0059,-0.8384,0.2589,
9.456654,-0.1551,1.2276,-0.0359,-2.0169,0.9855,-0.1553,-0.0059,-0.8384,0.2589,
9.460270,-0.1551,1.2276,-0.0359,-1.8569,2.3502,-1.8826,-0.0059,-0.8384,0.2589,
9.462722,-0.1551,1.2276,-0.0359,-1.8569,2.3502,-1.8826,0.0442,-0.8432,0.2423,
9.477527,-0.1551,1.2276,-0.0359,-1.8569,2.3502,-1.8826,0.0602,-0.6732,0.2178,
9.496245,-0.1847,1.3373,-0.1200,-1.8569,2.3502,-1.8826,0.0602,-0.6732,0.2178,
9.498350,-0.1847,1.3373,-0.1200,-2.2815,3.4258,-2.6738,0.0602,-0.6732,0.2178,
9.499739,-0.1847,1.3373,-0.1200,-2.2815,3.4258,-2.6738,0.0879,-0.4911,0.2301,
9.516174,-0.1847,1.3373,-0.1200,-2.2815,3.4258,-2.6738,0.1225,-0.4559,0.2860,
9.535958,-0.1287,1.4680,-0.1515,-2.2815,3.4258,-2.6738,0.1225,-0.4559,0.2860,
9.537767,-0.1287,1.4680,-0.1515,-1.8609,4.7060,-2.9319,0.1225,-0.4559,0.2860,
9.538918,-0.1287,1.4680,-0.1515,-1.8609,4.7060,-2.9319,0.1997,-0.5811,0.2967,
9.556928,-0.1287,1.4680,-0.1515,-1.8609,4.7060,-2.9319,0.3350,-0.7824,0.3025,
9.577772,-0.0989,1.4632,-0.0738,-1.8609,4.7060,-2.9319,0.3350,-0.7824,0.3025,
9.580901,-0.0989,1.4632,-0.0738,-1.7225,4.6514,-2.0486,0.3350,-0.7824,0.3025,
9.582582,-0.0989,1.4632,-0.0738,-1.7225,4.6514,-2.0486,0.5230,-1.0456,0.2866,
9.599166,-0.0989,1.4632,-0.0738,-1.7225,4.6514,-2.0486,0.6093,-1.4871,0.2471,
9.617055,0.0540,1.2425,0.0298,-1.7225,4.6514,-2.0486,0.6093,-1.4871,0.2471,
9.619326,0.0540,1.2425,0.0298,-0.3873,2.4713,-0.7716,0.6093,-1.4871,0.2471,
9.621146,0.0540,1.2425,0.0298,-0.3873,2.4713,-0.7716,0.4826,-1.9713,0.2386,
9.637213,0.0540,1.2425,0.0298,-0.3873,2.4713,-0.7716,0.3526,-2.5588,0.2067,
9.656464,0.3511,1.1805,0.2057,-0.3873,2.4713,-0.7716,0.3526,-2.5588,0.2067,
9.658755,0.3511,1.1805,0.2057,2.3539,1.8563,1.2054,0.3526,-2.5588,0.2067,
9.660321,0.3511,1.1805,0.2057,2.3539,1.8563,1.2054,0.3776,-2.8576,-0.0858,
9.676383,0.3511,1.1805,0.2057,2.3539,1.8563,1.2054,0.2423,-2.4437,-0.4661,
9.696515,0.3963,0.9267,0.2836,2.3539,1.8563,1.2054,0.2423,-2.4437,-0.4661,
9.698544,0.3963,0.9267,0.2836,2.8310,-0.6519,2.2051,0.2423,-2.4437,-0.4661,
9.700269,0.3963,0.9267,0.2836,2.8310,-0.6519,2.2051,0.0186,-1.5952,-0.5625,
9.717309,0.3963,0.9267,0.2836,2.8310,-0.6519,2.2051,-0.1422,-0.7505,-0.4783,
9.736488,0.4696,0.8118,0.3831,2.8310,-0.6519,2.2051,-0.1422,-0.7505,-0.4783,
9.738573,0.4696,0.8118,0.3831,3.7055,-1.7931,3.1848,-0.1422,-0.7505,-0.4783,
9.740224,0.4696,0.8118,0.3831,3.7055,-1.7931,3.1848,-0.1987,-0.1646,-0.4021,
9.756182,0.4696,0.8118,0.3831,3.7055,-1.7931,3.1848,-0.0554,0.0107,-0.4373,
9.776685,0.3804,0.8302,0.2646,3.7055,-1.7931,3.1848,-0.0554,0.0107,-0.4373,
9.779863,0.3804,0.8302,0.2646,2.9299,-1.6163,1.9323,-0.0554,0.0107,-0.4373,
9.781393,0.3804,0.8302,0.2646,2.9299,-1.6163,1.9323,0.1960,-0.0495,-0.5012,
9.796298,0.3804,0.8302,0.2646,2.9299,-1.6163,1.9323,0.4053,-0.1502,-0.4277,
9.816909,0.2287,0.8490,0.0599,2.9299,-1.6163,1.9323,0.4053,-0.1502,-0.4277,
9.818968,0.2287,0.8490,0.0599,1.5760,-1.4480,0.0227,0.4053,-0.1502,-0.4277,
9.820576,0.2287,0.8490,0.0599,1.5760,-1.4480,0.0227,0.5044,-0.1294,-0.2882,
9.836839,0.2287,0.8490,0.0599,1.5760,-1.4480,0.0227,0.5678,0.0170,-0.2237,
9.857349,0.1588,0.7820,-0.0386,1.5760,-1.4480,0.0227,0.5678,0.0170,-0.2237,
9.859779,0.1588,0.7820,-0.0386,0.9900,-2.1201,-0.7314,0.5678,0.0170,-0.2237,
9.861541,0.1588,0.7820,-0.0386,0.9900,-2.1201,-0.7314,0.6200,0.1992,-0.1832,
9.876956,0.1588,0.7820,-0.0386,0.9900,-2.1201,-0.7314,0.6365,0.2514,-0.1529,
9.896796,0.0814,0.7781,-0.1085,0.9900,-2.1201,-0.7314,0.6365,0.2514,-0.1529,
9.899145,0.0814,0.7781,-0.1085,0.2988,-2.1678,-1.1752,0.6365,0.2514,-0.1529,
9.900891,0.0814,0.7781,-0.1085,0.2988,-2.1678,-1.1752,0.5827,0.0767,-0.1012,
9.916119,0.0814,0.7781,-0.1085,0.2988,-2.1678,-1.1752,0.4714,-0.2077,-0.0352,
9.937394,0.0537,0.7764,-0.1222,0.2988,-2.1678,-1.1752,0.4714,-0.2077,-0.0352,
9.939821,0.0537,0.7764,-0.1222,0.0552,-2.1861,-1.1019,0.4714,-0.2077,-0.0352,
9.941581,0.0537,0.7764,-0.1222,0.0552,-2.1861,-1.1019,0.3196,-0.5987,0.0426,
9.955908,0.0537,0.7764,-0.1222,0.0552,-2.1861,-1.1019,0.2093,-1.0456,0.0794,
9.976593,0.1119,0.8331,-0.0493,0.0552,-2.1861,-1.1019,0.2093,-1.0456,0.0794,
9.980083,0.1119,0.8331,-0.0493,0.6066,-1.6278,-0.2691,0.2093,-1.0456,0.0794,
9.982178,0.1119,0.8331,-0.0493,0.6066,-1.6278,-0.2691,0.1896,-1.3412,0.1033,
9.995535,0.1119,0.8331,-0.0493,0.6066,-1.6278,-0.2691,0.2924,-1.3044,0.1422,
10.016405,0.1119,0.9005,-0.0090,0.6066,-1.6278,-0.2691,0.2924,-1.3044,0.1422,
10.018868,0.1119,0.9005,-0.0090,0.5728,-0.9619,0.2469,0.2924,-1.3044,0.1422,
10.020597,0.1119,0.9005,-0.0090,0.5728,-0.9619,0.2469,0.4969,-0.9811,0.2029,
10.036862,0.1119,0.9005,-0.0090,0.5728,-0.9619,0.2469,0.6855,-0.6200,0.2296,
10.056477,0.0699,0.9279,-0.0752,0.5728,-0.9619,0.2469,0.6855,-0.6200,0.2296,
10.059629,0.0699,0.9279,-0.0752,0.0905,-0.6780,-0.1533,0.6855,-0.6200,0.2296,
10.061743,0.0699,0.9279,-0.0752,0.0905,-0.6780,-0.1533,0.7052,-0.4884,0.2482,
10.076333,0.0699,0.9279,-0.0752,0.0905,-0.6780,-0.1533,0.5332,-0.5752,0.2221,
10.096482,0.0357,0.8815,-0.1361,0.0905,-0.6780,-0.1533,0.5332,-0.5752,0.2221,
10.098700,0.0357,0.8815,-0.1361,-0.3209,-1.1094,-0.4945,0.5332,-0.5752,0.2221,
10.100673,0.0357,0.8815,-0.1361,-0.3209,-1.1094,-0.4945,0.2850,-0.7089,0.1704,
10.116151,0.0357,0.8815,-0.1361,-0.3209,-1.1094,-0.4945,0.0719,-0.7238,0.1145,
10.135400,0.0840,0.8536,-0.2055,-0.3209,-1.1094,-0.4945,0.0719,-0.7238,0.1145,
10.137455,0.0840,0.8536,-0.2055,0.1233,-1.3721,-1.0854,0.0719,-0.7238,0.1145,
10.138941,0.0840,0.8536,-0.2055,0.1233,-1.3721,-1.0854,-0.0799,-0.6051,-0.0176,
10.156055,0.0840,0.8536,-0.2055,0.1233,-1.3721,-1.0854,-0.2509,-0.5167,-0.1992,
10.175544,0.0647,0.8636,-0.2697,0.1233,-1.3721,-1.0854,-0.2509,-0.5167,-0.1992,
10.179621,0.0647,0.8636,-0.2697,-0.0032,-1.2828,-1.7642,-0.2509,-0.5167,-0.1992,
10.181600,0.0647,0.8636,-0.2697,-0.0032,-1.2828,-1.7642,-0.4916,-0.6530,-0.3569,
10.195534,0.0647,0.8636,-0.2697,-0.0032,-1.2828,-1.7642,-0.7207,-0.9374,-0.4570,
10.215521,0.0428,0.8878,-0.2152,-0.0032,-1.2828,-1.7642,-0.7207,-0.9374,-0.4570,
10.217209,0.0428,0.8878,-0.2152,-0.0358,-1.0733,-1.4487,-0.7207,-0.9374,-0.4570,
10.218790,0.0428,0.8878,-0.2152,-0.0358,-1.0733,-1.4487,-0.8005,-1.0653,-0.5087,
10.235400,0.0428,0.8878,-0.2152,-0.0358,-1.0733,-1.4487,-0.7569,-0.9444,-0.5518,
10.255973,0.0059,0.9731,-0.2470,-0.0358,-1.0733,-1.4487,-0.7569,-0.9444,-0.5518,
10.259253,0.0059,0.9731,-0.2470,-0.1717,-0.2595,-2.0161,-0.7569,-0.9444,-0.5518,
10.261639,0.0059,0.9731,-0.2470,-0.1717,-0.2595,-2.0161,-0.6237,-0.6093,-0.6157,
10.275822,0.0059,0.9731,-0.2470,-0.1717,-0.2595,-2.0161,-0.4101,-0.1518,-0.6551,
10.296776,-0.0508,1.0637,-0.2453,-0.1717,-0.2595,-2.0161,-0.4101,-0.1518,-0.6551,
10.301135,-0.0508,1.0637,-0.2453,-0.4739,0.6218,-2.1223,-0.4101,-0.1518,-0.6551,
10.303524,-0.0508,1.0637,-0.2453,-0.4739,0.6218,-2.1223,-0.1577,0.1294,-0.6477,
10.318135,-0.0508,1.0637,-0.2453,-0.4739,0.6218,-2.1223,0.1656,0.3249,-0.6242,
10.335632,-0.0774,1.0503,-0.2861,-0.4739,0.6218,-2.1223,0.1656,0.3249,-0.6242,
10.337943,-0.0774,1.0503,-0.2861,-0.4872,0.4955,-2.4695,0.1656,0.3249,-0.6242,
10.339635,-0.0774,1.0503,-0.2861,-0.4872,0.4955,-2.4695,0.5401,0.6759,-0.6072,
10.355522,-0.0774,1.0503,-0.2861,-0.4872,0.4955,-2.4695,0.8634,0.9635,-0.6136,
10.376071,0.0401,1.3706,-0.2817,-0.4872,0.4955,-2.4695,0.8634,0.9635,-0.6136,
10.378465,0.0401,1.3706,-0.2817,0.8875,3.6570,-2.1392,0.8634,0.9635,-0.6136,
10.380188,0.0401,1.3706,-0.2817,0.8875,3.6570,-2.1392,0.7814,0.2104,-0.4969,
10.396030,0.0401,1.3706,-0.2817,0.8875,3.6570,-2.1392,0.1422,-2.3367,-0.2759,
10.415631,0.1908,1.4641,0.0537,0.8875,3.6570,-2.1392,0.1422,-2.3367,-0.2759,
10.417475,0.1908,1.4641,0.0537,2.5487,4.5960,1.3010,0.1422,-2.3367,-0.2759,
10.418841,0.1908,1.4641,0.0537,2.5487,4.5960,1.3010,-0.2099,-4.4917,-0.1475,
10.434816,0.1908,1.4641,0.0537,2.5487,4.5960,1.3010,-0.1161,-4.7362,-0.2109,
10.455857,0.2091,0.9675,0.0169,2.5487,4.5960,1.3010,-0.1161,-4.7362,-0.2109,
10.459025,0.2091,0.9675,0.0169,2.9213,-0.2703,0.7331,-0.1161,-4.7362,-0.2109,
10.461223,0.2091,0.9675,0.0169,2.9213,-0.2703,0.7331,0.0117,-3.1100,-0.5001,
10.475544,0.2091,0.9675,0.0169,2.9213,-0.2703,0.7331,-0.1257,-2.2850,-0.3739,
10.495963,0.1043,0.9179,0.2805,2.9213,-0.2703,0.7331,-0.1257,-2.2850,-0.3739,
10.499280,0.1043,0.9179,0.2805,2.0878,-0.7444,3.1707,-0.1257,-2.2850,-0.3739,
10.501827,0.1043,0.9179,0.2805,2.0878,-0.7444,3.1707,-0.1571,-2.0767,-0.1060,
10.515128,0.1043,0.9179,0.2805,2.0878,-0.7444,3.1707,0.0746,-1.9697,-0.1438,
10.536554,0.0865,0.9814,0.4393,2.0878,-0.7444,3.1707,0.0746,-1.9697,-0.1438,
10.538680,0.0865,0.9814,0.4393,1.9622,-0.1215,4.5877,0.0746,-1.9697,-0.1438,
10.540425,0.0865,0.9814,0.4393,1.9622,-0.1215,4.5877,0.4027,-1.9372,-0.1523,
10.555050,0.0865,0.9814,0.4393,1.9622,-0.1215,4.5877,0.6477,-1.7508,-0.0687,
10.576007,0.0071,1.0034,0.2597,1.9622,-0.1215,4.5877,0.6477,-1.7508,-0.0687,
10.578191,0.0071,1.0034,0.2597,1.2228,0.1010,2.9027,0.6477,-1.7508,-0.0687,
10.579825,0.0071,1.0034,0.2597,1.2228,0.1010,2.9027,0.6456,-1.4173,-0.0149,
10.595229,0.0071,1.0034,0.2597,1.2228,0.1010,2.9027,0.3989,-1.3188,-0.0229,
10.615737,-0.0806,0.8995,0.1178,1.2228,0.1010,2.9027,0.3989,-1.3188,-0.0229,
10.618243,-0.0806,0.8995,0.1178,0.3600,-0.9142,1.5799,0.3989,-1.3188,-0.0229,
10.619982,-0.0806,0.8995,0.1178,0.3600,-0.9142,1.5799,0.0554,-1.4663,-0.0394,
10.635520,-0.0806,0.8995,0.1178,0.3600,-0.9142,1.5799,-0.2157,-1.5745,-0.0154,
10.655982,-0.1029,0.8587,0.0982,0.3600,-0.9142,1.5799,-0.2157,-1.5745,-0.0154,
10.659919,-0.1029,0.8587,0.0982,0.1672,-1.3158,1.2618,-0.2157,-1.5745,-0.0154,
10.661735,-0.1029,0.8587,0.0982,0.1672,-1.3158,1.2618,-0.3435,-1.6432,0.0170,
10.674973,-0.1029,0.8587,0.0982,0.1672,-1.3158,1.2618,-0.3356,-1.7071,0.0240,
10.695999,-0.1075,0.8531,0.0933,0.1672,-1.3158,1.2618,-0.3356,-1.7071,0.0240,
10.699532,-0.1075,0.8531,0.0933,0.1264,-1.3745,1.0019,-0.3356,-1.7071,0.0240,
10.701282,-0.1075,0.8531,0.0933,0.1264,-1.3745,1.0019,-0.2530,-1.7241,0.0405,
10.715312,-0.1075,0.8531,0.0933,0.1264,-1.3745,1.0019,-0.1603,-1.7428,0.0575,
10.736080,-0.1094,0.9313,0.0667,0.1264,-1.3745,1.0019,-0.1603,-1.7428,0.0575,
10.738401,-0.1094,0.9313,0.0667,0.0109,-0.6108,0.2322,-0.1603,-1.7428,0.0575,
10.740053,-0.1094,0.9313,0.0667,0.0109,-0.6108,0.2322,-0.0921,-1.8392,0.0799,
10.754927,-0.1094,0.9313,0.0667,0.0109,-0.6108,0.2322,-0.0943,-2.0251,0.0730,
10.775060,-0.1485,0.9719,0.0083,0.0109,-0.6108,0.2322,-0.0943,-2.0251,0.0730,
10.777580,-0.1485,0.9719,0.0083,-0.4374,-0.2146,-0.4582,-0.0943,-2.0251,0.0730,
10.780372,-0.1485,0.9719,0.0083,-0.4374,-0.2146,-0.4582,-0.1587,-2.1673,0.0735,
10.795714,-0.1485,0.9719,0.0083,-0.4374,-0.2146,-0.4582,-0.3164,-2.1348,0.0858,
10.815273,-0.2123,0.9887,-0.0076,-0.4374,-0.2146,-0.4582,-0.3164,-2.1348,0.0858,
10.818622,-0.2123,0.9887,-0.0076,-1.1283,-0.0455,-0.7790,-0.3164,-2.1348,0.0858,
10.820811,-0.2123,0.9887,-0.0076,-1.1283,-0.0455,-0.7790,-0.4602,-1.9638,0.1060,
10.835713,-0.2123,0.9887,-0.0076,-1.1283,-0.0455,-0.7790,-0.4895,-1.7603,0.1273,
10.854892,-0.2399,0.9467,0.0437,-1.1283,-0.0455,-0.7790,-0.4895,-1.7603,0.1273,
10.858055,-0.2399,0.9467,0.0437,-1.4739,-0.4445,-0.5111,-0.4895,-1.7603,0.1273,
10.860391,-0.2399,0.9467,0.0437,-1.4739,-0.4445,-0.5111,-0.4085,-1.6405,0.1364,
10.874988,-0.2399,0.9467,0.0437,-1.4739,-0.4445,-0.5111,-0.2253,-1.6597,0.1672,
10.894788,-0.2001,0.9508,0.0169,-1.4739,-0.4445,-0.5111,-0.2253,-1.6597,0.1672,
10.897060,-0.2001,0.9508,0.0169,-1.1755,-0.3956,-0.9276,-0.2253,-1.6597,0.1672,
10.898985,-0.2001,0.9508,0.0169,-1.1755,-0.3956,-0.9276,-0.0485,-1.7140,0.1555,
10.914148,-0.2001,0.9508,0.0169,-1.1755,-0.3956,-0.9276,0.0032,-1.7177,0.1113,
10.935292,-0.1764,0.9973,-0.0308,-1.1755,-0.3956,-0.9276,0.0032,-1.7177,0.1113,
10.938968,-0.1764,0.9973,-0.0308,-1.0291,0.0548,-1.4131,0.0032,-1.7177,0.1113,
10.941190,-0.1764,0.9973,-0.0308,-1.0291,0.0548,-1.4131,-0.0581,-1.7657,0.0772,
10.955046,-0.1764,0.9973,-0.0308,-1.0291,0.0548,-1.4131,-0.1065,-1.8493,0.0740,
10.974610,-0.1459,1.1285,0.0039,-1.0291,0.0548,-1.4131,-0.1065,-1.8493,0.0740,
10.976770,-0.1459,1.1285,0.0039,0.1092,1.3739,-0.0408,-0.1065,-1.8493,0.0740,
10.978551,-0.1459,1.1285,0.0039,0.1092,1.3739,-0.0408,-0.0506,-1.9137,0.0820,
10.994466,-0.1459,1.1285,0.0039,0.1092,1.3739,-0.0408,0.1230,-1.9111,0.0959,
11.014831,-0.1253,1.3559,0.0066,0.1092,1.3739,-0.0408,0.1230,-1.9111,0.0959,
11.016934,-0.1253,1.3559,0.0066,0.2653,3.5973,-0.1164,0.1230,-1.9111,0.0959,
11.018599,-0.1253,1.3559,0.0066,0.2653,3.5973,-0.1164,0.3569,-1.8770,0.1534,
11.034880,-0.1253,1.3559,0.0066,0.2653,3.5973,-0.1164,0.6168,-1.8930,0.2706,
11.054567,-0.1331,1.4705,-0.0508,0.2653,3.5973,-0.1164,0.6168,-1.8930,0.2706,
11.056259,-0.1331,1.4705,-0.0508,0.0950,4.7050,-0.5997,0.6168,-1.8930,0.2706,
11.057426,-0.1331,1.4705,-0.0508,0.0950,4.7050,-0.5997,0.7920,-1.9340,0.3824,
11.073894,-0.1331,1.4705,-0.0508,0.0950,4.7050,-0.5997,0.8378,-2.0618,0.4618,
11.094408,-0.0413,1.5013,-0.0437,0.0950,4.7050,-0.5997,0.8378,-2.0618,0.4618,
11.095590,-0.0413,1.5013,-0.0437,0.8316,4.9846,-0.3192,0.8378,-2.0618,0.4618,
11.096393,-0.0413,1.5013,-0.0437,0.8316,4.9846,-0.3192,0.6498,-2.1236,0.4213,
11.113918,-0.0413,1.5013,-0.0437,0.8316,4.9846,-0.3192,0.1465,-2.1433,0.3190,
11.134552,0.1107,1.0608,0.2358,0.8316,4.9846,-0.3192,0.1465,-2.1433,0.3190,
11.137825,0.1107,1.0608,0.2358,2.1906,0.6529,2.4751,0.1465,-2.1433,0.3190,
11.140053,0.1107,1.0608,0.2358,2.1906,0.6529,2.4751,-0.4985,-2.4245,0.2242,
11.154117,0.1107,1.0608,0.2358,2.1906,0.6529,2.4751,-0.8751,-2.4597,0.0762,
11.174369,0.4087,0.8541,0.5727,2.1906,0.6529,2.4751,-0.8751,-2.4597,0.0762,
11.177020,0.4087,0.8541,0.5727,5.0527,-1.3782,5.4048,-0.8751,-2.4597,0.0762,
11.179046,0.4087,0.8541,0.5727,5.0527,-1.3782,5.4048,-0.8474,-2.2440,-0.1001,
11.194645,0.4087,0.8541,0.5727,5.0527,-1.3782,5.4048,-0.6013,-1.9404,-0.2189,
11.216398,0.4759,0.8714,0.5668,5.0527,-1.3782,5.4048,-0.6013,-1.9404,-0.2189,
11.220490,0.4759,0.8714,0.5668,5.7398,-1.1902,4.9771,-0.6013,-1.9404,-0.2189,
11.222350,0.4759,0.8714,0.5668,5.7398,-1.1902,4.9771,-0.2770,-1.5004,-0.1672,
11.234012,0.4759,0.8714,0.5668,5.7398,-1.1902,4.9771,0.0570,-0.9348,0.0639,
11.254608,0.3806,0.9127,0.2687,5.7398,-1.1902,4.9771,0.0570,-0.9348,0.0639,
11.256822,0.3806,0.9127,0.2687,4.7724,-0.7821,1.9460,0.0570,-0.9348,0.0639,
11.258589,0.3806,0.9127,0.2687,4.7724,-0.7821,1.9460,0.3164,-0.3435,0.2839,
11.274438,0.3806,0.9127,0.2687,4.7724,-0.7821,1.9460,0.4687,0.1539,0.3883,
11.294451,0.1825,0.9318,0.0816,4.7724,-0.7821,1.9460,0.4687,0.1539,0.3883,
11.297399,0.1825,0.9318,0.0816,2.6212,-0.6226,0.2215,0.4687,0.1539,0.3883,
11.299287,0.1825,0.9318,0.0816,2.6212,-0.6226,0.2215,0.5545,0.5438,0.4176,
11.313537,0.1825,0.9318,0.0816,2.6212,-0.6226,0.2215,0.8762,1.2171,0.3728,
11.334257,-0.1698,1.1820,0.1373,2.6212,-0.6226,0.2215,0.8762,1.2171,0.3728,
11.335982,-0.1698,1.1820,0.1373,-0.9895,1.8041,1.0529,0.8762,1.2171,0.3728,
11.337340,-0.1698,1.1820,0.1373,-0.9895,1.8041,1.0529,1.7641,2.3255,0.1896,
11.354672,-0.1698,1.1820,0.1373,-0.9895,1.8041,1.0529,2.5891,2.2845,0.1896,
11.374056,-0.2372,0.8722,0.0169,-0.9895,1.8041,1.0529,2.5891,2.2845,0.1896,
11.376862,-0.2372,0.8722,0.0169,-1.7362,-1.2257,0.7242,2.5891,2.2845,0.1896,
11.378597,-0.2372,0.8722,0.0169,-1.7362,-1.2257,0.7242,2.9668,1.6416,0.4341,
11.394156,-0.2372,0.8722,0.0169,-1.7362,-1.2257,0.7242,2.7729,0.8032,0.9252,
11.413847,-0.1710,0.7378,-0.1752,-1.7362,-1.2257,0.7242,2.7729,0.8032,0.9252,
11.416118,-0.1710,0.7378,-0.1752,-1.4019,-2.4243,-0.0197,2.7729,0.8032,0.9252,
11.417917,-0.1710,0.7378,-0.1752,-1.4019,-2.4243,-0.0197,2.1950,0.0128,1.5702,
11.433991,-0.1710,0.7378,-0.1752,-1.4019,-2.4243,-0.0197,1.5324,-0.2477,2.1012,
11.454503,0.1754,0.6430,-0.5284,-1.4019,-2.4243,-0.0197,1.5324,-0.2477,2.1012,
11.457503,0.1754,0.6430,-0.5284,1.3021,-3.1948,-2.7671,1.5324,-0.2477,2.1012,
11.459208,0.1754,0.6430,-0.5284,1.3021,-3.1948,-2.7671,0.7313,-0.2599,2.2003,
11.473770,0.1754,0.6430,-0.5284,1.3021,-3.1948,-2.7671,-0.1055,-0.1523,1.8940,
11.494059,0.8240,0.6726,-0.3924,1.3021,-3.1948,-2.7671,-0.1055,-0.1523,1.8940,
11.497492,0.8240,0.6726,-0.3924,6.9072,-2.8095,-1.3090,-0.1055,-0.1523,1.8940,
11.499980,0.8240,0.6726,-0.3924,6.9072,-2.8095,-1.3090,-0.6147,0.1124,1.1665,
11.514060,0.8240,0.6726,-0.3924,6.9072,-2.8095,-1.3090,-0.7249,0.1225,0.4059,
11.534169,0.3469,0.7117,-0.0909,6.9072,-2.8095,-1.3090,-0.7249,0.1225,0.4059,
11.536507,0.3469,0.7117,-0.0909,1.9248,-2.4494,1.3874,-0.7249,0.1225,0.4059,
11.538159,0.3469,0.7117,-0.0909,1.9248,-2.4494,1.3874,-0.6077,-0.1305,0.1337,
11.554507,0.3469,0.7117,-0.0909,1.9248,-2.4494,1.3874,-0.4815,-0.3478,0.0431,
11.574362,0.2834,0.6965,-0.1515,1.9248,-2.4494,1.3874,-0.4815,-0.3478,0.0431,
11.576437,0.2834,0.6965,-0.1515,1.2895,-2.6400,0.6024,-0.4815,-0.3478,0.0431,
11.578116,0.2834,0.6965,-0.1515,1.2895,-2.6400,0.6024,-0.4692,-0.4117,-0.0181,
11.593636,0.2834,0.6965,-0.1515,1.2895,-2.6400,0.6024,-0.4906,-0.3366,-0.1310,
11.614241,0.3318,0.8223,-0.2636,1.2895,-2.6400,0.6024,-0.4906,-0.3366,-0.1310,
11.616495,0.3318,0.8223,-0.2636,1.8220,-1.4498,-0.6565,-0.4906,-0.3366,-0.1310,
11.618406,0.3318,0.8223,-0.2636,1.8220,-1.4498,-0.6565,-0.3979,-0.1965,-0.2104,
11.633823,0.3318,0.8223,-0.2636,1.8220,-1.4498,-0.6565,-0.0586,-0.2360,-0.3521,
11.653814,0.3276,1.0346,-0.3579,1.8220,-1.4498,-0.6565,-0.0586,-0.2360,-0.3521,
11.656608,0.3276,1.0346,-0.3579,1.8423,0.6130,-1.6249,-0.0586,-0.2360,-0.3521,
11.658210,0.3276,1.0346,-0.3579,1.8423,0.6130,-1.6249,0.2945,-0.5289,-0.4128,
11.673067,0.3276,1.0346,-0.3579,1.8423,0.6130,-1.6249,0.4874,-0.7814,-0.2296,
11.693637,0.4297,1.6061,-0.4854,1.8423,0.6130,-1.6249,0.4874,-0.7814,-0.2296,
11.696961,0.4297,1.6061,-0.4854,3.0169,6.2273,-2.6928,0.4874,-0.7814,-0.2296,
11.698867,0.4297,1.6061,-0.4854,3.0169,6.2273,-2.6928,0.4202,-0.9305,0.0762,
11.714140,0.4297,1.6061,-0.4854,3.0169,6.2273,-2.6928,-0.2370,-1.0908,-0.1699,
11.734414,0.5001,0.9877,-0.2138,3.0169,6.2273,-2.6928,-0.2370,-1.0908,-0.1699,
11.736579,0.5001,0.9877,-0.2138,3.8105,0.1731,0.0508,-0.2370,-1.0908,-0.1699,
11.738140,0.5001,0.9877,-0.2138,3.8105,0.1731,0.0508,-0.7489,-1.8759,-0.1811,
11.753255,0.5001,0.9877,-0.2138,3.8105,0.1731,0.0508,-1.0482,-1.4536,-0.0128,
11.773141,0.5309,0.9264,-0.1390,3.8105,0.1731,0.0508,-1.0482,-1.4536,-0.0128,
11.775738,0.5309,0.9264,-0.1390,4.2842,-0.5041,0.5073,-1.0482,-1.4536,-0.0128,
11.777451,0.5309,0.9264,-0.1390,4.2842,-0.5041,0.5073,-1.1633,-0.8187,-0.2418,
11.793578,0.5309,0.9264,-0.1390,4.2842,-0.5041,0.5073,-1.2432,-0.7681,-0.4740,
11.812840,0.3257,0.9770,-0.0203,4.2842,-0.5041,0.5073,-1.2432,-0.7681,-0.4740,
11.814905,0.3257,0.9770,-0.0203,2.4577,-0.0992,1.2343,-1.2432,-0.7681,-0.4740,
11.816472,0.3257,0.9770,-0.0203,2.4577,-0.0992,1.2343,-1.3034,-1.1201,-0.5715,
11.833325,0.3257,0.9770,-0.0203,2.4577,-0.0992,1.2343,-1.5281,-1.7353,-0.6951,
11.853408,0.3545,0.9442,0.0259,2.4577,-0.0992,1.2343,-1.5281,-1.7353,-0.6951,
11.855314,0.3545,0.9442,0.0259,3.0081,-0.4994,1.1667,-1.5281,-1.7353,-0.6951,
11.856317,0.3545,0.9442,0.0259,3.0081,-0.4994,1.1667,-1.7790,-1.9771,-0.9550,
11.873440,0.3545,0.9442,0.0259,3.0081,-0.4994,1.1667,-1.9702,-1.8711,-1.2458,
11.893191,0.2707,0.9433,0.1517,3.0081,-0.4994,1.1667,-1.9702,-1.8711,-1.2458,
11.895348,0.2707,0.9433,0.1517,2.5856,-0.5606,1.6756,-1.9702,-1.8711,-1.2458,
11.897012,0.2707,0.9433,0.1517,2.5856,-0.5606,1.6756,-2.1449,-1.7811,-1.4711,
11.913401,0.2707,0.9433,0.1517,2.5856,-0.5606,1.6756,-2.0900,-1.6085,-1.5777,
11.934200,-0.0188,0.9442,0.4029,2.5856,-0.5606,1.6756,-2.0900,-1.6085,-1.5777,
11.936506,-0.0188,0.9442,0.4029,0.2536,-0.5186,3.2534,-2.0900,-1.6085,-1.5777,
11.938168,-0.0188,0.9442,0.4029,0.2536,-0.5186,3.2534,-1.6906,-1.4658,-1.4408,
11.953411,-0.0188,0.9442,0.4029,0.2536,-0.5186,3.2534,-1.1995,-1.1563,-1.1846,
11.972954,-0.3528,1.0188,0.4344,0.2536,-0.5186,3.2534,-1.1995,-1.1563,-1.1846,
11.975287,-0.3528,1.0188,0.4344,-2.5749,0.3088,2.9206,-1.1995,-1.1563,-1.1846,
11.976973,-0.3528,1.0188,0.4344,-2.5749,0.3088,2.9206,-0.6605,-0.6056,-0.6855,
11.993054,-0.3528,1.0188,0.4344,-2.5749,0.3088,2.9206,-0.2908,-0.0431,-0.1630,
12.013131,-0.2951,0.7881,0.1901,-2.5749,0.3088,2.9206,-0.2908,-0.0431,-0.1630,
12.015300,-0.2951,0.7881,0.1901,-1.8542,-1.9037,0.3116,-0.2908,-0.0431,-0.1630,
12.017114,-0.2951,0.7881,0.1901,-1.8542,-1.9037,0.3116,-0.1571,0.4458,0.0959,
12.033612,-0.2951,0.7881,0.1901,-1.8542,-1.9037,0.3116,-0.1981,0.8330,0.0980,
12.053341,-0.1986,0.7459,0.1302,-1.8542,-1.9037,0.3116,-0.1981,0.8330,0.0980,
12.055720,-0.1986,0.7459,0.1302,-0.9055,-2.3108,-0.3168,-0.1981,0.8330,0.0980,
12.057602,-0.1986,0.7459,0.1302,-0.9055,-2.3108,-0.3168,-0.2461,0.8964,0.0399,
12.073559,-0.1986,0.7459,0.1302,-0.9055,-2.3108,-0.3168,-0.2019,0.5028,-0.0826,
12.093655,-0.0765,0.7537,0.1268,-0.9055,-2.3108,-0.3168,-0.2019,0.5028,-0.0826,
12.096081,-0.0765,0.7537,0.1268,0.3449,-2.2187,-0.4067,-0.2019,0.5028,-0.0826,
12.097834,-0.0765,0.7537,0.1268,0.3449,-2.2187,-0.4067,-0.0538,-0.0218,-0.1651,
12.113960,-0.0765,0.7537,0.1268,0.3449,-2.2187,-0.4067,0.1268,-0.4618,-0.1497,
12.133039,0.0225,0.7974,0.0762,0.3449,-2.2187,-0.4067,0.1268,-0.4618,-0.1497,
12.136203,0.0225,0.7974,0.0762,1.3590,-1.7855,-0.8992,0.1268,-0.4618,-0.1497,
12.138641,0.0225,0.7974,0.0762,1.3590,-1.7855,-0.8992,0.2732,-0.7238,-0.0597,
12.152984,0.0225,0.7974,0.0762,1.3590,-1.7855,-0.8992,0.3499,-0.6956,0.0357,
12.173217,0.1004,0.8724,-0.0107,1.3590,-1.7855,-0.8992,0.3499,-0.6956,0.0357,
12.175979,0.1004,0.8724,-0.0107,2.0818,-1.0699,-1.6637,0.3499,-0.6956,0.0357,
12.177683,0.1004,0.8724,-0.0107,2.0818,-1.0699,-1.6637,0.3116,-0.3542,0.1305,
12.193416,0.1004,0.8724,-0.0107,2.0818,-1.0699,-1.6637,0.1321,0.1859,0.1992,
12.212657,-0.0068,1.0412,0.0596,2.0818,-1.0699,-1.6637,0.1321,0.1859,0.1992,
12.215666,-0.0068,1.0412,0.0596,0.9528,0.5620,-0.8857,0.1321,0.1859,0.1992,
12.217900,-0.0068,1.0412,0.0596,0.9528,0.5620,-0.8857,-0.0607,0.6653,0.2983,
12.233282,-0.0068,1.0412,0.0596,0.9528,0.5620,-0.8857,-0.1124,0.8101,0.3878,
12.252917,-0.0496,1.2936,0.1935,0.9528,0.5620,-0.8857,-0.1124,0.8101,0.3878,
12.255635,-0.0496,1.2936,0.1935,0.4412,3.0263,0.4238,-0.1124,0.8101,0.3878,
12.257243,-0.0496,1.2936,0.1935,0.4412,3.0263,0.4238,0.0575,0.6983,0.4043,
12.273599,-0.0496,1.2936,0.1935,0.4412,3.0263,0.4238,0.3462,0.5060,0.3734,
12.293122,-0.0708,1.4172,0.1287,0.4412,3.0263,0.4238,0.3462,0.5060,0.3734,
12.295245,-0.0708,1.4172,0.1287,0.1174,4.2128,-0.1118,0.3462,0.5060,0.3734,
12.296964,-0.0708,1.4172,0.1287,0.1174,4.2128,-0.1118,0.5928,0.2913,0.2503,
12.313517,-0.0708,1.4172,0.1287,0.1174,4.2128,-0.1118,0.7207,-0.0772,0.1475,
12.332874,-0.0183,1.2589,0.1097,0.1174,4.2128,-0.1118,0.7207,-0.0772,0.1475,
12.334857,-0.0183,1.2589,0.1097,0.5610,2.6225,-0.0407,0.7207,-0.0772,0.1475,
12.336478,-0.0183,1.2589,0.1097,0.5610,2.6225,-0.0407,0.7238,-0.5806,0.1656,
12.352245,-0.0183,1.2589,0.1097,0.5610,2.6225,-0.0407,0.5204,-0.9039,0.0746,
12.372489,0.1649,1.2794,0.2507,0.5610,2.6225,-0.0407,0.5204,-0.9039,0.0746,
12.375140,0.1649,1.2794,0.2507,2.2808,2.7953,1.5620,0.5204,-0.9039,0.0746,
12.376873,0.1649,1.2794,0.2507,2.2808,2.7953,1.5620,0.1747,-1.0850,-0.0138,
12.392079,0.1649,1.2794,0.2507,2.2808,2.7953,1.5620,0.0053,-1.1547,-0.0666,
12.412589,0.3528,1.0004,0.3975,2.2808,2.7953,1.5620,0.0053,-1.1547,-0.0666,
12.413562,0.3528,1.0004,0.3975,4.0981,0.0590,3.0068,0.0053,-1.1547,-0.0666,
12.414125,0.3528,1.0004,0.3975,4.0981,0.0590,3.0068,0.0575,-1.0088,-0.1529,
12.432825,0.3528,1.0004,0.3975,4.0981,0.0590,3.0068,0.1731,-0.6338,-0.1380,
12.452980,0.3577,0.8367,0.2785,4.0981,0.0590,3.0068,0.1731,-0.6338,-0.1380,
12.455183,0.3577,0.8367,0.2785,4.1571,-1.5457,1.8550,0.1731,-0.6338,-0.1380,
12.456910,0.3577,0.8367,0.2785,4.1571,-1.5457,1.8550,0.2567,-0.1401,-0.0037,
12.472675,0.3577,0.8367,0.2785,4.1571,-1.5457,1.8550,0.3489,0.3270,0.0852,
12.493066,0.2907,0.9640,0.0726,4.1571,-1.5457,1.8550,0.3489,0.3270,0.0852,
12.495313,0.2907,0.9640,0.0726,3.4381,-0.3110,-0.0596,0.3489,0.3270,0.0852,
12.497317,0.2907,0.9640,0.0726,3.4381,-0.3110,-0.0596,0.4378,0.7127,0.0463,
12.512965,0.2907,0.9640,0.0726,3.4381,-0.3110,-0.0596,0.6413,1.3417,0.0469,
12.533343,-0.1065,1.2179,0.0472,3.4381,-0.3110,-0.0596,0.6413,1.3417,0.0469,
12.539398,-0.1065,1.2179,0.0472,-0.4465,2.1613,-0.0737,0.6413,1.3417,0.0469,
12.541543,-0.1065,1.2179,0.0472,-0.4465,2.1613,-0.0737,1.3204,2.6610,-0.1427,
12.551989,-0.1065,1.2179,0.0472,-0.4465,2.1613,-0.0737,2.1295,3.4195,-0.3830,
12.573447,-0.2599,0.8719,-0.0430,-0.4465,2.1613,-0.0737,2.1295,3.4195,-0.3830,
12.576614,-0.2599,0.8719,-0.0430,-1.8350,-1.2340,-0.2334,2.1295,3.4195,-0.3830,
12.578606,-0.2599,0.8719,-0.0430,-1.8350,-1.2340,-0.2334,2.4011,2.7409,-0.0810,
12.592159,-0.2599,0.8719,-0.0430,-1.8350,-1.2340,-0.2334,2.2339,1.4834,0.5167,
12.612223,-0.1803,0.7471,-0.1270,-1.8350,-1.2340,-0.2334,2.2339,1.4834,0.5167,
12.614782,-0.1803,0.7471,-0.1270,-1.1906,-2.4006,-0.0963,2.2339,1.4834,0.5167,
12.616685,-0.1803,0.7471,-0.1270,-1.1906,-2.4006,-0.0963,1.8429,0.3483,1.1542,
12.633142,-0.1803,0.7471,-0.1270,-1.1906,-2.4006,-0.0963,1.5191,0.0858,1.5750,
12.651931,-0.1222,0.6714,-0.1981,-1.1906,-2.4006,-0.0963,1.5191,0.0858,1.5750,
12.654364,-0.1222,0.6714,-0.1981,-1.1604,-3.0602,-0.1391,1.5191,0.0858,1.5750,
12.656217,-0.1222,0.6714,-0.1981,-1.1604,-3.0602,-0.1391,1.1856,0.4197,1.8701,
12.672793,-0.1222,0.6714,-0.1981,-1.1604,-3.0602,-0.1391,0.7015,0.5491,2.0506,
12.692854,0.6716,0.6457,-0.3552,-1.1604,-3.0602,-0.1391,0.7015,0.5491,2.0506,
12.695442,0.6716,0.6457,-0.3552,5.8285,-3.2089,-1.3242,0.7015,0.5491,2.0506,
12.697256,0.6716,0.6457,-0.3552,5.8285,-3.2089,-1.3242,0.1593,0.2210,1.7582,
12.713345,0.6716,0.6457,-0.3552,5.8285,-3.2089,-1.3242,-0.1177,0.2248,0.8543,
12.733014,0.5558,0.6076,-0.2003,5.8285,-3.2089,-1.3242,-0.1177,0.2248,0.8543,
12.735273,0.5558,0.6076,-0.2003,4.1786,-3.5280,0.1922,-0.1177,0.2248,0.8543,
12.737023,0.5558,0.6076,-0.2003,4.1786,-3.5280,0.1922,-0.0964,0.3760,0.1960,
12.751994,0.5558,0.6076,-0.2003,4.1786,-3.5280,0.1922,0.0133,0.2855,0.0383,
12.772683,0.2011,0.7004,-0.2118,4.1786,-3.5280,0.1922,0.0133,0.2855,0.0383,
12.774812,0.2011,0.7004,-0.2118,0.6296,-2.6157,0.0467,0.0133,0.2855,0.0383,
12.776453,0.2011,0.7004,-0.2118,0.6296,-2.6157,0.0467,-0.0469,0.0277,0.0325,
12.792804,0.2011,0.7004,-0.2118,0.6296,-2.6157,0.0467,-0.2285,-0.1284,0.0149,
12.812539,0.3203,0.8350,-0.3164,0.6296,-2.6157,0.0467,-0.2285,-0.1284,0.0149,
12.814787,0.3203,0.8350,-0.3164,1.7932,-1.3068,-1.0275,-0.2285,-0.1284,0.0149,
12.816741,0.3203,0.8350,-0.3164,1.7932,-1.3068,-1.0275,-0.3686,0.0495,-0.0501,
12.832171,0.3203,0.8350,-0.3164,1.7932,-1.3068,-1.0275,-0.3601,0.2732,-0.1619,
12.852050,0.2590,1.1101,-0.3718,1.7932,-1.3068,-1.0275,-0.3601,0.2732,-0.1619,
12.855315,0.2590,1.1101,-0.3718,1.1609,1.3715,-1.6750,-0.3601,0.2732,-0.1619,
12.857411,0.2590,1.1101,-0.3718,1.1609,1.3715,-1.6750,-0.0586,0.3957,-0.3606,
12.871724,0.2590,1.1101,-0.3718,1.1609,1.3715,-1.6750,0.3734,0.2578,-0.5220,
12.892604,0.2428,1.3056,-0.5187,1.1609,1.3715,-1.6750,0.3734,0.2578,-0.5220,
12.896037,0.2428,1.3056,-0.5187,1.1449,3.2763,-3.0713,0.3734,0.2578,-0.5220,
12.897646,0.2428,1.3056,-0.5187,1.1449,3.2763,-3.0713,0.4655,-0.0767,-0.4842,
12.911435,0.2428,1.3056,-0.5187,1.1449,3.2763,-3.0713,0.1316,-0.7169,-0.3792,
12.932428,0.2653,1.4876,-0.2748,1.1449,3.2763,-3.0713,0.1316,-0.7169,-0.3792,
12.934656,0.2653,1.4876,-0.2748,1.5627,5.0649,-0.5510,0.1316,-0.7169,-0.3792,
12.936245,0.2653,1.4876,-0.2748,1.5627,5.0649,-0.5510,-0.1992,-0.9779,-0.3084,
12.951457,0.2653,1.4876,-0.2748,1.5627,5.0649,-0.5510,-0.7302,-1.1047,-0.0399,
12.971579,0.4647,0.8912,-0.1725,1.5627,5.0649,-0.5510,-0.7302,-1.1047,-0.0399,
12.973663,0.4647,0.8912,-0.1725,3.6698,-0.8247,0.3144,-0.7302,-1.1047,-0.0399,
12.975426,0.4647,0.8912,-0.1725,3.6698,-0.8247,0.3144,-1.0903,-0.5039,-0.0634,
12.991980,0.4647,0.8912,-0.1725,3.6698,-0.8247,0.3144,-1.0434,0.0644,-0.4107,
13.012726,0.3220,0.9745,-0.0601,3.6698,-0.8247,0.3144,-1.0434,0.0644,-0.4107,
13.015966,0.3220,0.9745,-0.0601,2.3797,-0.0931,1.0143,-1.0434,0.0644,-0.4107,
13.017831,0.3220,0.9745,-0.0601,2.3797,-0.0931,1.0143,-1.1393,-0.4698,-0.7286,
13.032639,0.3220,0.9745,-0.0601,2.3797,-0.0931,1.0143,-1.3545,-1.2384,-0.8954,
13.051956,0.2919,1.0630,-0.0098,2.3797,-0.0931,1.0143,-1.3545,-1.2384,-0.8954,
13.054925,0.2919,1.0630,-0.0098,2.4446,0.6860,1.0446,-1.3545,-1.2384,-0.8954,
13.056992,0.2919,1.0630,-0.0098,2.4446,0.6860,1.0446,-1.6277,-1.6586,-1.0919,
13.072331,0.2919,1.0630,-0.0098,2.4446,0.6860,1.0446,-1.8280,-1.6735,-1.3710,
13.091604,0.1378,0.9125,0.1004,2.4446,0.6860,1.0446,-1.8280,-1.6735,-1.3710,
13.093629,0.1378,0.9125,0.1004,1.3936,-0.8530,1.4518,-1.8280,-1.6735,-1.3710,
13.095477,0.1378,0.9125,0.1004,1.3936,-0.8530,1.4518,-2.0480,-1.6405,-1.5345,
13.114211,0.1378,0.9125,0.1004,1.3936,-0.8530,1.4518,-2.3052,-1.5228,-1.4892,
13.132072,-0.1681,1.0043,0.3772,1.3936,-0.8530,1.4518,-2.3052,-1.5228,-1.4892,
13.134120,-0.1681,1.0043,0.3772,-1.0545,0.0639,3.2529,-2.3052,-1.5228,-1.4892,
13.135753,-0.1681,1.0043,0.3772,-1.0545,0.0639,3.2529,-2.1827,-1.0338,-1.1931,
13.151510,-0.1681,1.0043,0.3772,-1.0545,0.0639,3.2529,-1.8264,-0.2423,-0.8341,
13.171622,-0.3713,1.0813,0.5453,-1.0545,0.0639,3.2529,-1.8264,-0.2423,-0.8341,
13.173830,-0.3713,1.0813,0.5453,-2.6707,0.9183,4.0946,-1.8264,-0.2423,-0.8341,
13.175566,-0.3713,1.0813,0.5453,-2.6707,0.9183,4.0946,-1.0717,0.6477,-0.2205,
13.191503,-0.3713,1.0813,0.5453,-2.6707,0.9183,4.0946,-0.5001,1.1782,0.1161,
13.211260,-0.2470,0.7407,0.2424,-2.6707,0.9183,4.0946,-0.5001,1.1782,0.1161,
13.213311,-0.2470,0.7407,0.2424,-1.3592,-2.3653,0.8216,-0.5001,1.1782,0.1161,
13.215207,-0.2470,0.7407,0.2424,-1.3592,-2.3653,0.8216,-0.2594,1.2719,0.1955,
13.230900,-0.2470,0.7407,0.2424,-1.3592,-2.3653,0.8216,-0.2029,1.0029,0.1603,
13.251582,-0.1754,0.6567,0.1380,-1.3592,-2.3653,0.8216,-0.2029,1.0029,0.1603,
13.254468,-0.1754,0.6567,0.1380,-0.6545,-3.1819,-0.2412,-0.2029,1.0029,0.1603,
13.256947,-0.1754,0.6567,0.1380,-0.6545,-3.1819,-0.2412,-0.1917,0.5183,0.0437,
13.270862,-0.1754,0.6567,0.1380,-0.6545,-3.1819,-0.2412,-0.1433,-0.0165,-0.1198,
13.291626,-0.0462,0.7437,0.1097,-0.6545,-3.1819,-0.2412,-0.1433,-0.0165,-0.1198,
13.293956,-0.0462,0.7437,0.1097,0.6427,-2.3171,-0.5726,-0.1433,-0.0165,-0.1198,
13.295865,-0.0462,0.7437,0.1097,0.6427,-2.3171,-0.5726,-0.0469,-0.5055,-0.1981,
13.312528,-0.0462,0.7437,0.1097,0.6427,-2.3171,-0.5726,0.0863,-0.6807,-0.1896,
13.332551,0.0210,0.7725,0.0298,0.6427,-2.3171,-0.5726,0.0863,-0.6807,-0.1896,
13.334882,0.0210,0.7725,0.0298,1.3361,-2.0272,-1.3744,0.0863,-0.6807,-0.1896,
13.336664,0.0210,0.7725,0.0298,1.3361,-2.0272,-1.3744,0.1880,-0.6541,-0.0847,
13.351743,0.0210,0.7725,0.0298,1.3361,-2.0272,-1.3744,0.2147,-0.5545,0.0437,
13.371727,0.0836,0.8497,-0.0369,1.3361,-2.0272,-1.3744,0.2147,-0.5545,0.0437,
13.375680,0.0836,0.8497,-0.0369,1.9171,-1.2830,-1.9778,0.2147,-0.5545,0.0437,
13.377691,0.0836,0.8497,-0.0369,1.9171,-1.2830,-1.9778,0.1135,-0.2562,0.1129,
13.390958,0.0836,0.8497,-0.0369,1.9171,-1.2830,-1.9778,-0.0948,0.1566,0.1539,
13.411176,-0.0618,1.0366,0.1011,1.9171,-1.2830,-1.9778,-0.0948,0.1566,0.1539,
13.413439,-0.0618,1.0366,0.1011,0.4357,0.5416,-0.6211,-0.0948,0.1566,0.1539,
13.415264,-0.0618,1.0366,0.1011,0.4357,0.5416,-0.6211,-0.2360,0.3941,0.2205,
13.431924,-0.0618,1.0366,0.1011,0.4357,0.5416,-0.6211,-0.1939,0.4506,0.3675,
13.451530,-0.1507,1.2548,0.2692,0.4357,0.5416,-0.6211,-0.1939,0.4506,0.3675,
13.453752,-0.1507,1.2548,0.2692,-0.5237,2.6812,0.9636,-0.1939,0.4506,0.3675,
13.455476,-0.1507,1.2548,0.2692,-0.5237,2.6812,0.9636,0.0405,0.4538,0.4863,
13.470267,-0.1507,1.2548,0.2692,-0.5237,2.6812,0.9636,0.3649,0.3393,0.5097,
13.490457,-0.1185,1.3630,0.1522,-0.5237,2.6812,0.9636,0.3649,0.3393,0.5097,
13.492645,-0.1185,1.3630,0.1522,-0.3732,3.7113,-0.0913,0.3649,0.3393,0.5097,
13.494396,-0.1185,1.3630,0.1522,-0.3732,3.7113,-0.0913,0.6365,0.1513,0.4378,
13.512549,-0.1185,1.3630,0.1522,-0.3732,3.7113,-0.0913,0.8085,0.0000,0.3286,
13.531399,-0.0809,1.4197,0.0818,-0.3732,3.7113,-0.0913,0.8085,0.0000,0.3286,
13.533599,-0.0809,1.4197,0.0818,-0.1479,4.2142,-0.4993,0.8085,0.0000,0.3286,
13.535439,-0.0809,1.4197,0.0818,-0.1479,4.2142,-0.4993,0.8831,-0.2072,0.2615,
13.550427,-0.0809,1.4197,0.0818,-0.1479,4.2142,-0.4993,0.7324,-0.6471,0.2104,
13.570718,0.0643,1.1732,0.1529,-0.1479,4.2142,-0.4993,0.7324,-0.6471,0.2104,
13.572933,0.0643,1.1732,0.1529,1.1638,1.7558,0.5012,0.7324,-0.6471,0.2104,
13.574414,0.0643,1.1732,0.1529,1.1638,1.7558,0.5012,0.4634,-1.1654,0.1582,
13.590655,0.0643,1.1732,0.1529,1.1638,1.7558,0.5012,0.2674,-1.4743,0.0282,
13.611400,0.2563,1.1057,0.3779,1.1638,1.7558,0.5012,0.2674,-1.4743,0.0282,
13.615270,0.2563,1.1057,0.3779,2.9606,1.0795,2.8230,0.2674,-1.4743,0.0282,
13.616685,0.2563,1.1057,0.3779,2.9606,1.0795,2.8230,0.1736,-1.4328,-0.0767,
13.631659,0.2563,1.1057,0.3779,2.9606,1.0795,2.8230,0.1960,-1.1585,-0.0511,
13.651340,0.3628,0.8646,0.3833,2.9606,1.0795,2.8230,0.1960,-1.1585,-0.0511,
13.653373,0.3628,0.8646,0.3833,3.9849,-1.2888,2.9250,0.1960,-1.1585,-0.0511,
13.655192,0.3628,0.8646,0.3833,3.9849,-1.2888,2.9250,0.2876,-0.6413,0.0101,
13.670843,0.3628,0.8646,0.3833,3.9849,-1.2888,2.9250,0.3489,0.0096,0.0868,
13.691608,0.3046,0.9731,0.1737,3.9849,-1.2888,2.9250,0.3489,0.0096,0.0868,
13.693811,0.3046,0.9731,0.1737,3.3636,-0.2363,0.9764,0.3489,0.0096,0.0868,
13.695602,0.3046,0.9731,0.1737,3.3636,-0.2363,0.9764,0.3702,0.5566,0.1065,
13.711257,0.3046,0.9731,0.1737,3.3636,-0.2363,0.9764,0.4048,1.0685,0.1971,
13.731867,0.1038,1.0100,0.0533,3.3636,-0.2363,0.9764,0.4048,1.0685,0.1971,
13.734014,0.1038,1.0100,0.0533,1.3078,0.1128,-0.0642,0.4048,1.0685,0.1971,
13.735805,0.1038,1.0100,0.0533,1.3078,0.1128,-0.0642,0.5662,1.7428,0.2876,
13.750495,0.1038,1.0100,0.0533,1.3078,0.1128,-0.0642,1.2820,3.0493,-0.1656,
13.770615,-0.3059,1.0989,0.0596,1.3078,0.1128,-0.0642,1.2820,3.0493,-0.1656,
13.773525,-0.3059,1.0989,0.0596,-2.6940,0.9695,0.3699,1.2820,3.0493,-0.1656,
13.775426,-0.3059,1.0989,0.0596,-2.6940,0.9695,0.3699,2.3031,4.0954,-0.4144,
13.790642,-0.3059,1.0989,0.0596,-2.6940,0.9695,0.3699,2.7260,3.6981,-0.0586,
13.810642,-0.1295,0.6665,-0.0809,-2.6940,0.9695,0.3699,2.7260,3.6981,-0.0586,
13.812831,-0.1295,0.6665,-0.0809,-0.9151,-3.2342,0.0317,2.7260,3.6981,-0.0586,
13.814721,-0.1295,0.6665,-0.0809,-0.9151,-3.2342,0.0317,2.5316,2.4933,0.5555,
13.831546,-0.1295,0.6665,-0.0809,-0.9151,-3.2342,0.0317,2.0075,1.0322,1.1484,
13.850678,-0.0252,0.6990,-0.1954,-0.9151,-3.2342,0.0317,2.0075,1.0322,1.1484,
13.855092,-0.0252,0.6990,-0.1954,-0.3080,-2.8046,-0.1954,2.0075,1.0322,1.1484,
13.856888,-0.0252,0.6990,-0.1954,-0.3080,-2.8046,-0.1954,1.5803,0.4021,1.4583,
13.870243,-0.0252,0.6990,-0.1954,-0.3080,-2.8046,-0.1954,1.3524,0.7169,1.6054,
13.891442,0.0552,0.7161,-0.3313,-0.3080,-2.8046,-0.1954,1.3524,0.7169,1.6054,
13.895657,0.0552,0.7161,-0.3313,-0.1526,-2.4971,-0.9740,1.3524,0.7169,1.6054,
13.897780,0.0552,0.7161,-0.3313,-0.1526,-2.4971,-0.9740,0.9012,0.7483,1.7044,
13.910096,0.0552,0.7161,-0.3313,-0.1526,-2.4971,-0.9740,0.2455,0.2839,1.5915,
13.930809,0.5118,0.6408,-0.4989,-0.1526,-2.4971,-0.9740,0.2455,0.2839,1.5915,
13.933210,0.5118,0.6408,-0.4989,3.6511,-3.1120,-2.4194,0.2455,0.2839,1.5915,
13.935221,0.5118,0.6408,-0.4989,3.6511,-3.1120,-2.4194,-0.3995,0.2322,1.2437,
13.950444,0.5118,0.6408,-0.4989,3.6511,-3.1120,-2.4194,-0.7084,0.4847,0.6056,
13.971241,0.4454,0.6608,-0.1087,3.6511,-3.1120,-2.4194,-0.7084,0.4847,0.6056,
13.975173,0.4454,0.6608,-0.1087,2.6197,-2.9106,1.1733,-0.7084,0.4847,0.6056,
13.976936,0.4454,0.6608,-0.1087,2.6197,-2.9106,1.1733,-0.6589,0.3004,0.2850,
13.990183,0.4454,0.6608,-0.1087,2.6197,-2.9106,1.1733,-0.5444,0.0650,0.1917,
14.010831,0.2917,0.7031,-0.0916,2.6197,-2.9106,1.1733,-0.5444,0.0650,0.1917,
14.012872,0.2917,0.7031,-0.0916,1.0086,-2.5301,1.1019,-0.5444,0.0650,0.1917,
14.014667,0.2917,0.7031,-0.0916,1.0086,-2.5301,1.1019,-0.4985,-0.1348,0.1411,
14.030858,0.2917,0.7031,-0.0916,1.0086,-2.5301,1.1019,-0.4698,-0.0479,0.1172,
14.050101,0.3596,0.8986,-0.3240,1.0086,-2.5301,1.1019,-0.4698,-0.0479,0.1172,
14.052287,0.3596,0.8986,-0.3240,1.6325,-0.6421,-1.3506,-0.4698,-0.0479,0.1172,
14.054067,0.3596,0.8986,-0.3240,1.6325,-0.6421,-1.3506,-0.5300,0.0453,0.0469,
14.070487,0.3596,0.8986,-0.3240,1.6325,-0.6421,-1.3506,-0.5944,0.0064,-0.1055,
14.090791,0.2978,1.0012,-0.3003,1.6325,-0.6421,-1.3506,-0.5944,0.0064,-0.1055,
14.093679,0.2978,1.0012,-0.3003,0.9997,0.3350,-1.3036,-0.5944,0.0064,-0.1055,
14.095351,0.2978,1.0012,-0.3003,0.9997,0.3350,-1.3036,-0.3872,-0.1060,-0.2796,
14.111493,0.2978,1.0012,-0.3003,0.9997,0.3350,-1.3036,0.2178,-0.1044,-0.4490,
14.129720,0.1803,1.5452,-0.5490,0.9997,0.3350,-1.3036,0.2178,-0.1044,-0.4490,
14.132324,0.1803,1.5452,-0.5490,-0.0069,5.6346,-3.7650,0.2178,-0.1044,-0.4490,
14.134537,0.1803,1.5452,-0.5490,-0.0069,5.6346,-3.7650,0.5518,-0.6972,-0.4069,
14.150078,0.1803,1.5452,-0.5490,-0.0069,5.6346,-3.7650,0.0064,-1.2528,-0.0943,
14.170184,0.3626,1.2169,-0.2641,-0.0069,5.6346,-3.7650,0.0064,-1.2528,-0.0943,
14.173277,0.3626,1.2169,-0.2641,1.9418,2.4184,-0.8024,0.0064,-1.2528,-0.0943,
14.175123,0.3626,1.2169,-0.2641,1.9418,2.4184,-0.8024,-0.5486,-1.1137,-0.1577,
14.189909,0.3626,1.2169,-0.2641,1.9418,2.4184,-0.8024,-1.1276,-1.4759,0.0517,
14.210610,0.5145,0.8629,-0.1300,1.9418,2.4184,-0.8024,-1.1276,-1.4759,0.0517,
14.213045,0.5145,0.8629,-0.1300,3.5382,-1.1101,0.2726,-1.1276,-1.4759,0.0517,
14.215016,0.5145,0.8629,-0.1300,3.5382,-1.1101,0.2726,-1.2224,-0.5843,0.2695,
14.230111,0.5145,0.8629,-0.1300,3.5382,-1.1101,0.2726,-1.0461,-0.0314,-0.1017,
14.250027,0.4183,0.9645,-0.0037,3.5382,-1.1101,0.2726,-1.0461,-0.0314,-0.1017,
14.252226,0.4183,0.9645,-0.0037,2.5788,-0.1696,1.0946,-1.0461,-0.0314,-0.1017,
14.253812,0.4183,0.9645,-0.0037,2.5788,-0.1696,1.0946,-0.9417,-0.5715,-0.6072,
14.270522,0.4183,0.9645,-0.0037,2.5788,-0.1696,1.0946,-1.0482,-1.4903,-0.8714,
14.290539,0.3025,1.0449,-0.0584,2.5788,-0.1696,1.0946,-1.0482,-1.4903,-0.8714,
14.292704,0.3025,1.0449,-0.0584,1.7610,0.5405,0.2300,-1.0482,-1.4903,-0.8714,
14.294381,0.3025,1.0449,-0.0584,1.7610,0.5405,0.2300,-1.4631,-2.2136,-1.0243,
14.312008,0.3025,1.0449,-0.0584,1.7610,0.5405,0.2300,-1.8509,-2.3612,-1.3955,
14.330564,0.1818,0.9337,0.0816,1.7610,0.5405,0.2300,-1.8509,-2.3612,-1.3955,
14.333143,0.1818,0.9337,0.0816,1.0378,-0.6247,1.0442,-1.8509,-2.3612,-1.3955,
14.335015,0.1818,0.9337,0.0816,1.0378,-0.6247,1.0442,-2.0677,-2.0746,-1.7561,
14.349560,0.1818,0.9337,0.0816,1.0378,-0.6247,1.0442,-2.3361,-1.7987,-1.8408,
14.369854,-0.2350,0.9814,0.3814,1.0378,-0.6247,1.0442,-2.3361,-1.7987,-1.8408,
14.371897,-0.2350,0.9814,0.3814,-2.3753,-0.1693,3.1181,-2.3361,-1.7987,-1.8408,
14.373668,-0.2350,0.9814,0.3814,-2.3753,-0.1693,3.1181,-2.4182,-1.5830,-1.4679,
14.389894,-0.2350,0.9814,0.3814,-2.3753,-0.1693,3.1181,-2.0991,-0.6285,-0.7665,
14.409274,-0.3826,1.0960,0.6897,-2.3753,-0.1693,3.1181,-2.0991,-0.6285,-0.7665,
14.411631,-0.3826,1.0960,0.6897,-3.4298,1.0549,5.2557,-2.0991,-0.6285,-0.7665,
14.413239,-0.3826,1.0960,0.6897,-3.4298,1.0549,5.2557,-1.2368,0.8634,-0.0474,
14.429808,-0.3826,1.0960,0.6897,-3.4298,1.0549,5.2557,-0.3984,1.9201,0.2764,
14.449116,-0.1571,0.6936,0.2863,-3.4298,1.0549,5.2557,-0.3984,1.9201,0.2764,
14.451501,-0.1571,0.6936,0.2863,-1.1423,-2.8272,0.9660,-0.3984,1.9201,0.2764,
14.453273,-0.1571,0.6936,0.2863,-1.1423,-2.8272,0.9660,-0.0112,1.8807,0.2407,
14.469076,-0.1571,0.6936,0.2863,-1.1423,-2.8272,0.9660,0.0692,1.1324,0.0964,
14.489035,-0.1187,0.6298,0.0840,-1.1423,-2.8272,0.9660,0.0692,1.1324,0.0964,
14.491501,-0.1187,0.6298,0.0840,-0.7213,-3.4569,-0.9801,0.0692,1.1324,0.0964,
14.492981,-0.1187,0.6298,0.0840,-0.7213,-3.4569,-0.9801,-0.0341,0.3052,-0.0613,
14.508886,-0.1187,0.6298,0.0840,-0.7213,-3.4569,-0.9801,-0.1513,-0.2866,-0.1166,
14.528795,-0.0110,0.7119,0.0462,-0.7213,-3.4569,-0.9801,-0.1513,-0.2866,-0.1166,
14.530455,-0.0110,0.7119,0.0462,0.3693,-2.6441,-1.3868,-0.1513,-0.2866,-0.1166,
14.531703,-0.0110,0.7119,0.0462,0.3693,-2.6441,-1.3868,-0.1619,-0.6205,-0.1449,
14.549200,-0.0110,0.7119,0.0462,0.3693,-2.6441,-1.3868,-0.0634,-0.6040,-0.1518,
14.569613,0.0374,0.7727,-0.0007,0.3693,-2.6441,-1.3868,-0.0634,-0.6040,-0.1518,
14.571950,0.0374,0.7727,-0.0007,0.8545,-2.0367,-1.9015,-0.0634,-0.6040,-0.1518,
14.573658,0.0374,0.7727,-0.0007,0.8545,-2.0367,-1.9015,0.0320,-0.3952,-0.0820,
14.589807,0.0374,0.7727,-0.0007,0.8545,-2.0367,-1.9015,0.0708,-0.1715,0.0655,
14.608919,0.0811,0.9364,-0.0139,0.8545,-2.0367,-1.9015,0.0708,-0.1715,0.0655,
14.611036,0.0811,0.9364,-0.0139,1.2649,-0.4363,-2.0166,0.0708,-0.1715,0.0655,
14.612238,0.0811,0.9364,-0.0139,1.2649,-0.4363,-2.0166,0.0202,0.1257,0.2024,
14.629397,0.0811,0.9364,-0.0139,1.2649,-0.4363,-2.0166,-0.0836,0.3904,0.3025,
14.649409,-0.0430,1.1548,0.1297,1.2649,-0.4363,-2.0166,-0.0836,0.3904,0.3025,
14.651649,-0.0430,1.1548,0.1297,-0.0382,1.6955,-0.5844,-0.0836,0.3904,0.3025,
14.653313,-0.0430,1.1548,0.1297,-0.0382,1.6955,-0.5844,-0.1651,0.5353,0.3766,
14.669047,-0.0430,1.1548,0.1297,-0.0382,1.6955,-0.5844,-0.1119,0.6780,0.4192,
14.691032,-0.1295,1.3195,0.2648,-0.0382,1.6955,-0.5844,-0.1119,0.6780,0.4192,
14.693254,-0.1295,1.3195,0.2648,-0.9930,3.3144,0.6943,-0.1119,0.6780,0.4192,
14.694907,-0.1295,1.3195,0.2648,-0.9930,3.3144,0.6943,0.1614,0.6653,0.4698,
14.710743,-0.1295,1.3195,0.2648,-0.9930,3.3144,0.6943,0.5172,0.5475,0.4645,
14.729464,-0.0679,1.4895,0.2231,-0.9930,3.3144,0.6943,0.5172,0.5475,0.4645,
14.731726,-0.0679,1.4895,0.2231,-0.5245,4.9520,0.4205,0.5172,0.5475,0.4645,
14.733391,-0.0679,1.4895,0.2231,-0.5245,4.9520,0.4205,0.8101,0.2727,0.3409,
14.748921,-0.0679,1.4895,0.2231,-0.5245,4.9520,0.4205,0.8266,-0.2242,0.2796,
14.768756,0.1292,1.4028,0.2314,-0.5245,4.9520,0.4205,0.8266,-0.2242,0.2796,
14.771054,0.1292,1.4028,0.2314,1.2901,4.0485,0.8185,0.8266,-0.2242,0.2796,
14.773006,0.1292,1.4028,0.2314,1.2901,4.0485,0.8185,0.6493,-0.8826,0.2658,
14.788563,0.1292,1.4028,0.2314,1.2901,4.0485,0.8185,0.5017,-1.1872,0.1683,
14.809246,0.3178,1.0745,0.3020,1.2901,4.0485,0.8185,0.5017,-1.1872,0.1683,
14.811012,0.3178,1.0745,0.3020,2.9996,0.8003,1.7361,0.5017,-1.1872,0.1683,
14.812562,0.3178,1.0745,0.3020,2.9996,0.8003,1.7361,0.3728,-0.9678,0.0565,
14.829713,0.3178,1.0745,0.3020,2.9996,0.8003,1.7361,0.3190,-0.5683,0.0756,
14.849402,0.4055,0.8917,0.3352,2.9996,0.8003,1.7361,0.3190,-0.5683,0.0756,
14.851479,0.4055,0.8917,0.3352,3.7979,-1.0061,2.2006,0.3190,-0.5683,0.0756,
14.853192,0.4055,0.8917,0.3352,3.7979,-1.0061,2.2006,0.2850,-0.1907,0.1348,
14.869251,0.4055,0.8917,0.3352,3.7979,-1.0061,2.2006,0.2988,0.0676,0.1374,
14.889720,0.4087,0.9516,0.2191,3.7979,-1.0061,2.2006,0.2988,0.0676,0.1374,
14.892007,0.4087,0.9516,0.2191,3.7733,-0.4304,1.1775,0.2988,0.0676,0.1374,
14.893740,0.4087,0.9516,0.2191,3.7733,-0.4304,1.1775,0.3483,0.2328,0.0980,
14.909378,0.4087,0.9516,0.2191,3.7733,-0.4304,1.1775,0.3792,0.3830,0.0671,
14.929406,0.1429,1.0432,0.0740,3.7733,-0.4304,1.1775,0.3792,0.3830,0.0671,
14.932962,0.1429,1.0432,0.0740,1.1277,0.4564,-0.1139,0.3792,0.3830,0.0671,
14.935262,0.1429,1.0432,0.0740,1.1277,0.4564,-0.1139,0.5779,0.9950,0.1348,
14.949091,0.1429,1.0432,0.0740,1.1277,0.4564,-0.1139,1.5010,2.8080,-0.0437,
14.970144,-0.2746,1.1079,0.0858,1.1277,0.4564,-0.1139,1.5010,2.8080,-0.0437,
14.972372,-0.2746,1.1079,0.0858,-2.9324,1.0649,0.3784,1.5010,2.8080,-0.0437,
14.974048,-0.2746,1.1079,0.0858,-2.9324,1.0649,0.3784,2.5827,3.7284,-0.2716,
14.989470,-0.2746,1.1079,0.0858,-2.9324,1.0649,0.3784,3.0312,3.0546,0.0549,
15.009534,-0.1573,0.6252,-0.0640,-2.9324,1.0649,0.3784,3.0312,3.0546,0.0549,
15.011962,-0.1573,0.6252,-0.0640,-1.7441,-3.6589,-0.0183,3.0312,3.0546,0.0549,
15.013768,-0.1573,0.6252,-0.0640,-1.7441,-3.6589,-0.0183,2.7106,1.4072,0.7595,
15.029281,-0.1573,0.6252,-0.0640,-1.7441,-3.6589,-0.0183,2.0980,-0.0043,1.3609,
15.049780,-0.1407,0.7012,-0.1976,-1.7441,-3.6589,-0.0183,2.0980,-0.0043,1.3609,
15.052348,-0.1407,0.7012,-0.1976,-2.0172,-2.7932,-0.4011,2.0980,-0.0043,1.3609,
15.054183,-0.1407,0.7012,-0.1976,-2.0172,-2.7932,-0.4011,1.7566,0.0288,1.6666,
15.069234,-0.1407,0.7012,-0.1976,-2.0172,-2.7932,-0.4011,1.4919,0.7308,1.9601,
15.089268,0.1595,0.7872,-0.4016,-2.0172,-2.7932,-0.4011,1.4919,0.7308,1.9601,
15.091717,0.1595,0.7872,-0.4016,0.2019,-1.7589,-1.7962,1.4919,0.7308,1.9601,
15.093466,0.1595,0.7872,-0.4016,0.2019,-1.7589,-1.7962,0.9140,0.6977,2.0783,
15.109536,0.1595,0.7872,-0.4016,0.2019,-1.7589,-1.7962,0.1342,0.3686,1.5622,
15.128719,0.7378,0.6547,-0.3027,0.2019,-1.7589,-1.7962,0.1342,0.3686,1.5622,
15.131805,0.7378,0.6547,-0.3027,5.1390,-2.8842,-0.6658,0.1342,0.3686,1.5622,
15.133625,0.7378,0.6547,-0.3027,5.1390,-2.8842,-0.6658,-0.2866,0.6695,0.8197,
15.148455,0.7378,0.6547,-0.3027,5.1390,-2.8842,-0.6658,-0.3696,0.7361,0.3244,
15.169311,0.3599,0.5780,-0.2028,5.1390,-2.8842,-0.6658,-0.3696,0.7361,0.3244,
15.172789,0.3599,0.5780,-0.2028,1.1609,-3.6142,0.1284,-0.3696,0.7361,0.3244,
15.174264,0.3599,0.5780,-0.2028,1.1609,-3.6142,0.1284,-0.2658,0.7015,0.1784,
15.189210,0.3599,0.5780,-0.2028,1.1609,-3.6142,0.1284,-0.3105,0.5545,0.1252,
15.209204,0.2773,0.5428,-0.1984,1.1609,-3.6142,0.1284,-0.3105,0.5545,0.1252,
15.211428,0.2773,0.5428,-0.1984,0.2444,-3.9677,0.0041,-0.3105,0.5545,0.1252,
15.213006,0.2773,0.5428,-0.1984,0.2444,-3.9677,0.0041,-0.4016,0.3649,0.1316,
15.228870,0.2773,0.5428,-0.1984,0.2444,-3.9677,0.0041,-0.4985,0.4272,0.1497,
15.248625,0.3349,0.6323,-0.2810,0.2444,-3.9677,0.0041,-0.4985,0.4272,0.1497,
15.250900,0.3349,0.6323,-0.2810,0.7280,-3.1104,-1.0121,-0.4985,0.4272,0.1497,
15.252679,0.3349,0.6323,-0.2810,0.7280,-3.1104,-1.0121,-0.5262,0.5417,0.0602,
15.268113,0.3349,0.6323,-0.2810,0.7280,-3.1104,-1.0121,-0.4133,0.5161,-0.1108,
15.288631,0.2426,1.0031,-0.4815,0.7280,-3.1104,-1.0121,-0.4133,0.5161,-0.1108,
15.290914,0.2426,1.0031,-0.4815,-0.2601,0.5445,-2.9919,-0.4133,0.5161,-0.1108,
15.292767,0.2426,1.0031,-0.4815,-0.2601,0.5445,-2.9919,-0.2738,0.4495,-0.2328,
15.309591,0.2426,1.0031,-0.4815,-0.2601,0.5445,-2.9919,-0.1358,0.3830,-0.2807,
15.329738,0.2934,1.0771,-0.5143,-0.2601,0.5445,-2.9919,-0.1358,0.3830,-0.2807,
15.334693,0.2934,1.0771,-0.5143,0.3003,1.2405,-3.3788,-0.1358,0.3830,-0.2807,
15.336604,0.2934,1.0771,-0.5143,0.3003,1.2405,-3.3788,-0.1358,0.4096,-0.4021,
15.348307,0.2934,1.0771,-0.5143,0.3003,1.2405,-3.3788,-0.2882,0.5385,-0.7318,
15.368262,0.0574,1.3938,-0.3936,0.3003,1.2405,-3.3788,-0.2882,0.5385,-0.7318,
15.371472,0.0574,1.3938,-0.3936,-1.8311,4.2735,-2.3224,-0.2882,0.5385,-0.7318,
15.373723,0.0574,1.3938,-0.3936,-1.8311,4.2735,-2.3224,-0.1667,0.6301,-0.9358,
15.389316,0.0574,1.3938,-0.3936,-1.8311,4.2735,-2.3224,0.0522,0.0874,-0.5497,
15.408706,0.6508,1.5819,-0.4007,-1.8311,4.2735,-2.3224,0.0522,0.0874,-0.5497,
15.411458,0.6508,1.5819,-0.4007,4.2425,6.0463,-2.4463,0.0522,0.0874,-0.5497,
15.413057,0.6508,1.5819,-0.4007,4.2425,6.0463,-2.4463,-0.2647,-0.5300,-0.5060,
15.427919,0.6508,1.5819,-0.4007,4.2425,6.0463,-2.4463,-0.9779,0.0746,-0.8506,
15.448478,0.3941,0.4937,0.0335,4.2425,6.0463,-2.4463,-0.9779,0.0746,-0.8506,
15.450699,0.3941,0.4937,0.0335,1.9696,-4.6988,1.6031,-0.9779,0.0746,-0.8506,
15.452356,0.3941,0.4937,0.0335,1.9696,-4.6988,1.6031,-0.9492,0.0192,-0.5012,
15.468371,0.3941,0.4937,0.0335,1.9696,-4.6988,1.6031,-0.4714,-0.6152,-0.1635,
15.488591,0.3672,0.8580,-0.0308,1.9696,-4.6988,1.6031,-0.4714,-0.6152,-0.1635,
