
time,gFx,gFy,gFz,ax,ay,az,wx,wy,wz,
0.032906,0.0000,0.0000,0.0000,0.0600,0.4750,1.2450,0.0000,0.0000,0.0000,
0.053350,0.0480,0.4076,1.0622,0.0600,0.4750,1.2450,0.0000,0.0000,0.0000,
0.055358,0.0480,0.4076,1.0622,0.0560,0.4880,1.2540,0.0000,0.0000,0.0000,
0.072349,0.0480,0.4076,1.0622,0.0560,0.4880,1.2540,0.3428,0.5034,0.1666,
0.074340,0.0480,0.4076,1.0622,0.0320,0.3520,0.9230,0.3428,0.5034,0.1666,
0.094104,0.0480,0.4076,1.0622,0.0060,0.1950,0.4700,0.3428,0.5034,0.1666,
0.114051,0.0222,0.4177,0.9505,0.0060,0.1950,0.4700,0.3428,0.5034,0.1666,
0.116184,0.0222,0.4177,0.9505,0.1260,0.2330,0.2850,0.3428,0.5034,0.1666,
0.137087,0.0222,0.4177,0.9505,0.1260,0.2330,0.2850,0.1948,0.0393,0.1287,
0.139044,0.0222,0.4177,0.9505,0.1830,-0.0060,0.3270,0.1948,0.0393,0.1287,
0.154847,0.0222,0.4177,0.9505,0.2610,-0.1070,0.2270,0.1948,0.0393,0.1287,
0.176193,0.0761,0.4097,0.9332,0.2610,-0.1070,0.2270,0.1948,0.0393,0.1287,
0.180424,0.0761,0.4097,0.9332,0.6070,0.1010,0.1430,0.1948,0.0393,0.1287,
0.194053,0.0761,0.4097,0.9332,0.6070,0.1010,0.1430,-0.1962,0.3024,-0.0414,
0.198738,0.0761,0.4097,0.9332,0.9410,0.1540,0.5670,-0.1962,0.3024,-0.0414,
0.216477,0.0761,0.4097,0.9332,0.8000,-0.2660,0.9520,-0.1962,0.3024,-0.0414,
0.234547,0.0452,0.2930,1.0938,0.8000,-0.2660,0.9520,-0.1962,0.3024,-0.0414,
0.238560,0.0452,0.2930,1.0938,0.6510,-0.8850,1.6450,-0.1962,0.3024,-0.0414,
0.256732,0.0452,0.2930,1.0938,0.8850,-1.6730,2.8840,-0.1962,0.3024,-0.0414,
0.274595,0.0452,0.2930,1.0938,0.8850,-1.6730,2.8840,0.0439,0.1254,-0.0854,
0.278602,0.0452,0.2930,1.0938,0.7430,-2.2040,3.3620,0.0439,0.1254,-0.0854,
0.297688,0.0523,0.1943,1.1378,0.7430,-2.2040,3.3620,0.0439,0.1254,-0.0854,
0.301504,0.0523,0.1943,1.1378,0.6630,-1.9550,2.1220,0.0439,0.1254,-0.0854,
0.315376,0.0523,0.1943,1.1378,1.4290,-1.1890,0.1450,0.0439,0.1254,-0.0854,
0.339455,0.0523,0.1943,1.1378,1.4290,-1.1890,0.1450,0.2508,-0.2596,-0.1123,
0.343438,0.0523,0.1943,1.1378,1.7680,-1.0790,-1.0350,0.2508,-0.2596,-0.1123,
0.357260,0.1581,0.2703,0.8333,1.7680,-1.0790,-1.0350,0.2508,-0.2596,-0.1123,
0.361270,0.1581,0.2703,0.8333,1.5950,-1.3360,-0.8040,0.2508,-0.2596,-0.1123,
0.378633,0.1581,0.2703,0.8333,1.4700,-1.4720,-0.1280,0.2508,-0.2596,-0.1123,
0.396555,0.1581,0.2703,0.8333,1.4700,-1.4720,-0.1280,0.2298,0.0583,-0.4823,
0.400328,0.1581,0.2703,0.8333,1.5630,-1.6240,0.7700,0.2298,0.0583,-0.4823,
0.419639,0.1856,0.2283,1.0102,1.5630,-1.6240,0.7700,0.2298,0.0583,-0.4823,
0.423172,0.1856,0.2283,1.0102,2.0290,-1.8590,0.9790,0.2298,0.0583,-0.4823,
0.437298,0.1856,0.2283,1.0102,2.2150,-1.3070,0.1830,0.2298,0.0583,-0.4823,
0.460407,0.1856,0.2283,1.0102,2.2150,-1.3070,0.1830,1.3597,0.1713,-1.0274,
0.464611,0.1856,0.2283,1.0102,1.6080,-1.0220,-0.2410,1.3597,0.1713,-1.0274,
0.478127,0.0735,0.2784,0.9459,1.6080,-1.0220,-0.2410,1.3597,0.1713,-1.0274,
0.481862,0.0735,0.2784,0.9459,1.2870,-1.9880,0.6810,1.3597,0.1713,-1.0274,
0.500139,0.0735,0.2784,0.9459,0.1640,-0.3060,-0.0440,1.3597,0.1713,-1.0274,
0.518370,0.0735,0.2784,0.9459,0.6910,0.0380,-1.1190,1.3597,0.1713,-1.0274,
0.541075,0.0903,0.3497,0.7526,0.6910,0.0380,-1.1190,1.3597,0.1713,-1.0274,
0.543212,0.0903,0.3497,0.7526,0.6910,0.0380,-1.1190,1.6448,0.8184,-2.1043,
0.545087,0.0903,0.3497,0.7526,-0.4250,-0.8410,-1.3680,1.6448,0.8184,-2.1043,
0.558631,0.0903,0.3497,0.7526,-0.4030,-0.5060,-1.7630,1.6448,0.8184,-2.1043,
0.581108,0.0903,0.3497,0.7526,-0.9580,-0.3560,-1.8050,1.6448,0.8184,-2.1043,
0.599167,-0.2505,0.4428,0.6118,-0.9580,-0.3560,-1.8050,1.6448,0.8184,-2.1043,
0.602686,-0.2505,0.4428,0.6118,-0.9580,-0.3560,-1.8050,1.3058,1.4684,-2.2824,
0.605860,-0.2505,0.4428,0.6118,-2.3670,-0.7530,-2.3910,1.3058,1.4684,-2.2824,
0.621828,-0.2505,0.4428,0.6118,-1.9720,-0.1700,-3.2910,1.3058,1.4684,-2.2824,
0.639930,-0.2505,0.4428,0.6118,-4.0880,-0.6530,-4.2080,1.3058,1.4684,-2.2824,
0.663322,-0.8060,0.6628,0.3274,-4.0880,-0.6530,-4.2080,1.3058,1.4684,-2.2824,
0.667237,-0.8060,0.6628,0.3274,-4.0880,-0.6530,-4.2080,-0.2142,0.3744,-1.0963,
0.670224,-0.8060,0.6628,0.3274,-7.1490,1.2880,-5.0840,-0.2142,0.3744,-1.0963,
0.679077,-0.8060,0.6628,0.3274,-2.6910,0.5190,0.8350,-0.2142,0.3744,-1.0963,
0.702533,-0.8060,0.6628,0.3274,0.2730,-1.6760,3.3120,-0.2142,0.3744,-1.0963,
0.721440,0.0274,0.3800,0.9114,0.2730,-1.6760,3.3120,-0.2142,0.3744,-1.0963,
0.723320,0.0274,0.3800,0.9114,0.2730,-1.6760,3.3120,1.0788,0.2623,-2.4793,
0.725078,0.0274,0.3800,0.9114,1.7890,-1.8150,0.9710,1.0788,0.2623,-2.4793,
0.742838,0.0274,0.3800,0.9114,1.1680,-1.6660,-0.8990,1.0788,0.2623,-2.4793,
0.762483,0.0274,0.3800,0.9114,-1.0940,-0.5920,-0.9140,1.0788,0.2623,-2.4793,
0.783422,-0.4658,0.4902,0.7790,-1.0940,-0.5920,-0.9140,1.0788,0.2623,-2.4793,
0.785791,-0.4658,0.4902,0.7790,-2.0210,-0.7040,-0.0840,1.0788,0.2623,-2.4793,
0.801303,-0.4658,0.4902,0.7790,-2.0210,-0.7040,-0.0840,0.2927,0.8114,-2.1834,
0.803529,-0.4658,0.4902,0.7790,-0.7820,-0.8180,-0.1210,0.2927,0.8114,-2.1834,
0.825018,-0.4658,0.4902,0.7790,0.2750,-0.9280,0.1690,0.2927,0.8114,-2.1834,
0.842318,-0.3923,0.3783,0.7436,0.2750,-0.9280,0.1690,0.2927,0.8114,-2.1834,
0.847081,-0.3923,0.3783,0.7436,0.1510,-1.5890,0.0610,0.2927,0.8114,-2.1834,
0.864053,-0.3923,0.3783,0.7436,0.1510,-1.5890,0.0610,1.5868,0.2163,-2.5523,
0.866392,-0.3923,0.3783,0.7436,-1.6230,-3.6150,3.8570,1.5868,0.2163,-2.5523,
0.881509,-0.3923,0.3783,0.7436,-0.6890,-2.8290,1.3290,1.5868,0.2163,-2.5523,
0.905415,-0.8884,0.1826,0.3271,-0.6890,-2.8290,1.3290,1.5868,0.2163,-2.5523,
0.908764,-0.8884,0.1826,0.3271,-3.6030,-3.3850,-3.3890,1.5868,0.2163,-2.5523,
0.923270,-0.8884,0.1826,0.3271,-3.6030,-3.3850,-3.3890,0.8797,1.6004,-2.0453,
0.925551,-0.8884,0.1826,0.3271,-2.7360,-2.8090,-3.2730,0.8797,1.6004,-2.0453,
0.946319,-0.8884,0.1826,0.3271,-0.0270,-3.2060,-1.6590,0.8797,1.6004,-2.0453,
0.963480,-0.5963,0.1474,0.4512,-0.0270,-3.2060,-1.6590,0.8797,1.6004,-2.0453,
0.965686,-0.5963,0.1474,0.4512,0.6860,-3.3300,-1.1310,0.8797,1.6004,-2.0453,
0.986113,-0.5963,0.1474,0.4512,0.6860,-3.3300,-1.1310,1.3358,0.5723,-0.5783,
0.989911,-0.5963,0.1474,0.4512,-5.9320,-3.1020,-0.4960,1.3358,0.5723,-0.5783,
1.003491,-0.5963,0.1474,0.4512,-5.8820,-1.8100,0.8430,1.3358,0.5723,-0.5783,
1.026290,-0.9282,0.2607,0.3389,-5.8820,-1.8100,0.8430,1.3358,0.5723,-0.5783,
1.028407,-0.9282,0.2607,0.3389,-2.3030,-2.4990,-1.6620,1.3358,0.5723,-0.5783,
1.044334,-0.9282,0.2607,0.3389,-0.1730,-2.6020,-3.3150,1.3358,0.5723,-0.5783,
1.066671,-0.9282,0.2607,0.3389,-0.1730,-2.6020,-3.3150,0.8988,0.3904,-0.0604,
1.070298,-0.9282,0.2607,0.3389,0.8370,-3.1540,-1.6830,0.8988,0.3904,-0.0604,
1.085107,-0.7808,0.1153,0.3373,0.8370,-3.1540,-1.6830,0.8988,0.3904,-0.0604,
1.087515,-0.7808,0.1153,0.3373,-0.6960,-4.1880,-1.1520,0.8988,0.3904,-0.0604,
1.107100,-0.7808,0.1153,0.3373,-1.5340,-2.8920,-2.7420,0.8988,0.3904,-0.0604,
1.125270,-0.7808,0.1153,0.3373,-1.5340,-2.8920,-2.7420,0.6517,0.4383,0.3127,
1.130601,-0.7808,0.1153,0.3373,-1.4120,-2.0670,-2.5570,0.6517,0.4383,0.3127,
1.148526,-0.7889,0.2986,0.1324,-1.4120,-2.0670,-2.5570,0.6517,0.4383,0.3127,
1.152262,-0.7889,0.2986,0.1324,-0.7770,-2.7250,-2.7210,0.6517,0.4383,0.3127,
1.165281,-0.7889,0.2986,0.1324,0.1280,-3.4040,-3.0710,0.6517,0.4383,0.3127,
1.189756,-0.7889,0.2986,0.1324,0.1280,-3.4040,-3.0710,0.5538,1.5613,1.3287,
1.193518,-0.7889,0.2986,0.1324,1.4680,-2.3950,-2.6120,0.5538,1.5613,1.3287,
1.207655,-0.5273,0.4462,0.1478,1.4680,-2.3950,-2.6120,0.5538,1.5613,1.3287,
1.211779,-0.5273,0.4462,0.1478,1.6440,-1.8970,-1.8010,0.5538,1.5613,1.3287,
1.228300,-0.5273,0.4462,0.1478,0.3460,-1.9220,-2.3150,0.5538,1.5613,1.3287,
1.247012,-0.5273,0.4462,0.1478,0.3460,-1.9220,-2.3150,1.6429,0.7314,2.0017,
1.250903,-0.5273,0.4462,0.1478,-0.7630,-2.4540,-1.5410,1.6429,0.7314,2.0017,
1.269035,-0.7673,0.4415,0.2091,-0.7630,-2.4540,-1.5410,1.6429,0.7314,2.0017,
1.271510,-0.7673,0.4415,0.2091,-1.2870,-2.9150,-0.1980,1.6429,0.7314,2.0017,
1.288366,-0.7673,0.4415,0.2091,-0.9390,-2.8530,0.7310,1.6429,0.7314,2.0017,
1.309489,-0.7673,0.4415,0.2091,-0.6360,-2.0040,1.6020,1.6429,0.7314,2.0017,
1.327451,-0.7656,0.6647,0.2154,-0.6360,-2.0040,1.6020,1.6429,0.7314,2.0017,
1.331151,-0.7656,0.6647,0.2154,-0.6360,-2.0040,1.6020,2.8548,0.6123,2.0237,
1.334494,-0.7656,0.6647,0.2154,-2.1790,-1.6900,1.2630,2.8548,0.6123,2.0237,
1.350113,-0.7656,0.6647,0.2154,-3.5570,-1.6680,-0.1750,2.8548,0.6123,2.0237,
1.369187,-0.7656,0.6647,0.2154,-4.8250,-1.9290,2.0650,2.8548,0.6123,2.0237,
1.390545,-1.0179,0.7619,0.3564,-4.8250,-1.9290,2.0650,2.8548,0.6123,2.0237,
1.392571,-1.0179,0.7619,0.3564,-4.8250,-1.9290,2.0650,3.6968,-0.7297,1.8927,
1.394434,-1.0179,0.7619,0.3564,-5.6340,-1.3050,4.1680,3.6968,-0.7297,1.8927,
1.409365,-1.0179,0.7619,0.3564,-4.8660,1.3770,4.3670,3.6968,-0.7297,1.8927,
1.430909,-1.0179,0.7619,0.3564,-4.8690,2.9380,2.4890,3.6968,-0.7297,1.8927,
1.449722,-0.9648,1.0968,-0.3385,-4.8690,2.9380,2.4890,3.6968,-0.7297,1.8927,
1.453511,-0.9648,1.0968,-0.3385,-4.8690,2.9380,2.4890,2.4098,0.5633,0.4957,
1.456604,-0.9648,1.0968,-0.3385,-5.7210,2.0640,-0.6870,2.4098,0.5633,0.4957,
1.471740,-0.9648,1.0968,-0.3385,-6.6250,1.5790,0.3230,2.4098,0.5633,0.4957,
1.491335,-0.9648,1.0968,-0.3385,-6.6040,0.5510,1.0530,2.4098,0.5633,0.4957,
1.511921,-1.0049,0.9338,-0.2123,-6.6040,0.5510,1.0530,2.4098,0.5633,0.4957,
1.515552,-1.0049,0.9338,-0.2123,-6.6040,0.5510,1.0530,1.5158,-0.4587,-0.0524,
1.518588,-1.0049,0.9338,-0.2123,-6.1240,0.7340,1.3440,1.5158,-0.4587,-0.0524,
1.530280,-1.0049,0.9338,-0.2123,-5.9870,0.7560,0.8520,1.5158,-0.4587,-0.0524,
1.553074,-1.0049,0.9338,-0.2123,-5.6970,0.1590,-0.7650,1.5158,-0.4587,-0.0524,
1.571425,-0.9531,0.7813,-0.4700,-5.6970,0.1590,-0.7650,1.5158,-0.4587,-0.0524,
1.573456,-0.9531,0.7813,-0.4700,-5.2430,-0.5010,-1.0050,1.5158,-0.4587,-0.0524,
1.592996,-0.9531,0.7813,-0.4700,-5.2430,-0.5010,-1.0050,0.1638,-1.4927,-0.6043,
1.597061,-0.9531,0.7813,-0.4700,-3.6170,-1.4390,-0.0460,0.1638,-1.4927,-0.6043,
1.610830,-0.9531,0.7813,-0.4700,-2.1410,-2.0010,0.7570,0.1638,-1.4927,-0.6043,
1.633315,-0.6161,0.5684,-0.1973,-2.1410,-2.0010,0.7570,0.1638,-1.4927,-0.6043,
1.636497,-0.6161,0.5684,-0.1973,-1.2450,-2.3330,1.3920,0.1638,-1.4927,-0.6043,
1.651317,-0.6161,0.5684,-0.1973,-1.2450,-2.3330,1.3920,0.4467,-1.0607,-0.7204,
1.653930,-0.6161,0.5684,-0.1973,-0.5230,-2.9980,1.2550,0.4467,-1.0607,-0.7204,
1.674569,-0.6161,0.5684,-0.1973,-0.2490,-3.4660,0.9980,0.4467,-1.0607,-0.7204,
1.692086,-0.5753,0.3971,-0.3421,-0.2490,-3.4660,0.9980,0.4467,-1.0607,-0.7204,
1.696598,-0.5753,0.3971,-0.3421,-0.3740,-3.7410,-0.1130,0.4467,-1.0607,-0.7204,
1.714249,-0.5753,0.3971,-0.3421,-0.3740,-3.7410,-0.1130,0.2388,-1.8136,-0.3253,
1.718086,-0.5753,0.3971,-0.3421,-0.2790,-4.2180,-1.8380,0.2388,-1.8136,-0.3253,
1.732255,-0.5753,0.3971,-0.3421,1.4640,-3.8170,-1.9090,0.2388,-1.8136,-0.3253,
1.755609,-0.2292,0.4287,-0.4709,1.4640,-3.8170,-1.9090,0.2388,-1.8136,-0.3253,
1.759901,-0.2292,0.4287,-0.4709,3.4490,-3.2920,-1.8090,0.2388,-1.8136,-0.3253,
1.773133,-0.2292,0.4287,-0.4709,3.4490,-3.2920,-1.8090,-0.1662,0.2603,0.3407,
1.776509,-0.2292,0.4287,-0.4709,1.4950,-3.5340,-1.3030,-0.1662,0.2603,0.3407,
1.795822,-0.2292,0.4287,-0.4709,0.6010,-3.7200,-1.2340,-0.1662,0.2603,0.3407,
1.814424,-0.6990,0.3868,-0.4697,0.6010,-3.7200,-1.2340,-0.1662,0.2603,0.3407,
1.818070,-0.6990,0.3868,-0.4697,-1.3510,-3.9030,-1.9560,-0.1662,0.2603,0.3407,
1.835777,-0.6990,0.3868,-0.4697,-2.8440,-2.8640,0.7040,-0.1662,0.2603,0.3407,
1.855532,-0.6990,0.3868,-0.4697,-2.8440,-2.8640,0.7040,0.4108,-1.5767,0.5457,
1.859396,-0.6990,0.3868,-0.4697,-2.3220,-1.4550,0.6720,0.4108,-1.5767,0.5457,
1.875672,-0.8448,0.6510,-0.0620,-2.3220,-1.4550,0.6720,0.4108,-1.5767,0.5457,
1.879880,-0.8448,0.6510,-0.0620,-2.8630,-1.4310,1.8570,0.4108,-1.5767,0.5457,
1.894723,-0.8448,0.6510,-0.0620,-2.5000,-0.2530,3.4220,0.4108,-1.5767,0.5457,
1.915714,-0.8448,0.6510,-0.0620,-2.5000,-0.2530,3.4220,0.0568,1.2023,0.0236,
1.920330,-0.8448,0.6510,-0.0620,-3.4950,0.1770,1.5690,0.0568,1.2023,0.0236,
1.934565,-1.0951,0.8245,-0.3118,-3.4950,0.1770,1.5690,0.0568,1.2023,0.0236,
1.937054,-1.0951,0.8245,-0.3118,-5.5080,0.2120,-0.3730,0.0568,1.2023,0.0236,
1.955843,-1.0951,0.8245,-0.3118,-5.5890,0.2620,-0.5190,0.0568,1.2023,0.0236,
1.975418,-1.0951,0.8245,-0.3118,-5.5890,0.2620,-0.5190,-0.1022,-0.8746,0.9706,
1.981275,-1.0951,0.8245,-0.3118,-3.6700,0.1810,3.7370,-0.1022,-0.8746,0.9706,
1.997080,-0.6731,0.8143,0.0964,-3.6700,0.1810,3.7370,-0.1022,-0.8746,0.9706,
2.000712,-0.6731,0.8143,0.0964,-1.6380,-0.1880,3.1970,-0.1022,-0.8746,0.9706,
2.016989,-0.6731,0.8143,0.0964,-1.9290,-0.1540,0.9940,-0.1022,-0.8746,0.9706,
2.038491,-0.6731,0.8143,0.0964,-1.9290,-0.1540,0.9940,-0.6692,0.4493,-0.0023,
2.040468,-0.6731,0.8143,0.0964,-2.1420,0.5980,2.2250,-0.6692,0.4493,-0.0023,
2.057355,-0.6258,0.9636,0.1663,-2.1420,0.5980,2.2250,-0.6692,0.4493,-0.0023,
2.061196,-0.6258,0.9636,0.1663,-1.2390,1.1800,3.6370,-0.6692,0.4493,-0.0023,
2.077950,-0.6258,0.9636,0.1663,-2.0920,1.0930,1.2410,-0.6692,0.4493,-0.0023,
2.097165,-0.6258,0.9636,0.1663,-2.6350,0.1340,-0.7540,-0.6692,0.4493,-0.0023,
2.118914,-0.7226,0.7390,-0.1121,-2.6350,0.1340,-0.7540,-0.6692,0.4493,-0.0023,
2.123960,-0.7226,0.7390,-0.1121,-2.6350,0.1340,-0.7540,-1.9403,1.1543,0.0477,
2.128410,-0.7226,0.7390,-0.1121,-2.2930,-1.1920,0.4550,-1.9403,1.1543,0.0477,
2.138186,-0.7226,0.7390,-0.1121,-2.0210,-1.8700,2.1180,-1.9403,1.1543,0.0477,
2.158789,-0.7226,0.7390,-0.1121,-1.3580,-2.3070,1.6950,-1.9403,1.1543,0.0477,
2.179480,-0.6146,0.5298,-0.0538,-1.3580,-2.3070,1.6950,-1.9403,1.1543,0.0477,
2.183271,-0.6146,0.5298,-0.0538,-1.3580,-2.3070,1.6950,-1.4172,-0.0667,0.0397,
2.186491,-0.6146,0.5298,-0.0538,-1.3220,-3.3740,0.3590,-1.4172,-0.0667,0.0397,
2.199037,-0.6146,0.5298,-0.0538,-1.0160,-3.6970,0.6640,-1.4172,-0.0667,0.0397,
2.219679,-0.6146,0.5298,-0.0538,-1.1980,-3.4190,1.1710,-1.4172,-0.0667,0.0397,
2.239609,-0.6520,0.5168,0.0502,-1.1980,-3.4190,1.1710,-1.4172,-0.0667,0.0397,
2.241625,-0.6520,0.5168,0.0502,-1.1980,-3.4190,1.1710,-0.9882,0.5193,0.0707,
2.243241,-0.6520,0.5168,0.0502,-1.7310,-3.5690,0.8560,-0.9882,0.5193,0.0707,
2.259260,-0.6520,0.5168,0.0502,-1.8050,-3.9570,1.0200,-0.9882,0.5193,0.0707,
2.280553,-0.6520,0.5168,0.0502,-2.0570,-3.7720,0.7680,-0.9882,0.5193,0.0707,
2.299837,-0.6420,0.4599,0.0732,-2.0570,-3.7720,0.7680,-0.9882,0.5193,0.0707,
2.303608,-0.6420,0.4599,0.0732,-2.0570,-3.7720,0.7680,-0.4102,0.6714,0.1486,
2.306967,-0.6420,0.4599,0.0732,-1.6500,-4.1490,0.8620,-0.4102,0.6714,0.1486,
2.320927,-0.6420,0.4599,0.0732,-0.5330,-4.7710,0.9270,-0.4102,0.6714,0.1486,
2.341059,-0.6420,0.4599,0.0732,-2.8610,-2.8170,1.2300,-0.4102,0.6714,0.1486,
2.361211,-0.7899,0.5252,0.1912,-2.8610,-2.8170,1.2300,-0.4102,0.6714,0.1486,
2.364750,-0.7899,0.5252,0.1912,-3.2530,-3.5860,1.9830,-0.4102,0.6714,0.1486,
2.381185,-0.7899,0.5252,0.1912,-3.2530,-3.5860,1.9830,-0.1452,0.0674,-0.1573,
2.385181,-0.7899,0.5252,0.1912,-3.1610,-3.3350,1.4440,-0.1452,0.0674,-0.1573,
2.401785,-0.7899,0.5252,0.1912,-3.2960,-3.0680,1.5470,-0.1452,0.0674,-0.1573,
2.421825,-0.8082,0.6298,0.1832,-3.2960,-3.0680,1.5470,-0.1452,0.0674,-0.1573,
2.423894,-0.8082,0.6298,0.1832,-3.3240,-2.4960,1.8780,-0.1452,0.0674,-0.1573,
2.442331,-0.8082,0.6298,0.1832,-3.3240,-2.4960,1.8780,0.1338,0.4114,-0.1063,
2.447082,-0.8082,0.6298,0.1832,-3.4540,-1.9260,1.9820,0.1338,0.4114,-0.1063,
2.461681,-0.8082,0.6298,0.1832,-3.5730,-0.8310,1.7380,0.1338,0.4114,-0.1063,
2.482943,-0.9077,0.9176,0.1162,-3.5730,-0.8310,1.7380,0.1338,0.4114,-0.1063,
2.487022,-0.9077,0.9176,0.1162,-4.2180,0.3770,1.5000,0.1338,0.4114,-0.1063,
2.501930,-0.9077,0.9176,0.1162,-4.2180,0.3770,1.5000,1.0968,0.1264,-0.0924,
2.504747,-0.9077,0.9176,0.1162,-3.5850,0.6020,1.2920,1.0968,0.1264,-0.0924,
2.522633,-0.9077,0.9176,0.1162,-2.0830,-0.2910,0.9900,1.0968,0.1264,-0.0924,
2.542671,-0.5995,0.8145,-0.1471,-2.0830,-0.2910,0.9900,1.0968,0.1264,-0.0924,
2.547006,-0.5995,0.8145,-0.1471,-1.0700,-0.4760,-0.1650,1.0968,0.1264,-0.0924,
2.563773,-0.5995,0.8145,-0.1471,-1.0700,-0.4760,-0.1650,1.7618,-0.8936,-0.5954,
2.567448,-0.5995,0.8145,-0.1471,-0.9320,-0.0820,-0.9390,1.7618,-0.8936,-0.5954,
2.583189,-0.5995,0.8145,-0.1471,0.0590,-0.1510,-0.7400,1.7618,-0.8936,-0.5954,
2.604225,-0.4582,0.7642,-0.2532,0.0590,-0.1510,-0.7400,1.7618,-0.8936,-0.5954,
2.607921,-0.4582,0.7642,-0.2532,0.6850,-0.6690,-0.7150,1.7618,-0.8936,-0.5954,
2.623125,-0.4582,0.7642,-0.2532,0.8490,-1.1780,-1.1410,1.7618,-0.8936,-0.5954,
2.644991,-0.4582,0.7642,-0.2532,0.8490,-1.1780,-1.1410,1.2218,-1.4057,-0.1173,
2.649419,-0.4582,0.7642,-0.2532,0.5150,-1.1470,-0.8920,1.2218,-1.4057,-0.1173,
2.664041,-0.5171,0.6640,-0.1669,0.5150,-1.1470,-0.8920,1.2218,-1.4057,-0.1173,
2.667761,-0.5171,0.6640,-0.1669,0.2380,-1.5080,0.3500,1.2218,-1.4057,-0.1173,
2.684915,-0.5171,0.6640,-0.1669,0.5930,-1.3700,0.6970,1.2218,-1.4057,-0.1173,
2.705511,-0.5171,0.6640,-0.1669,0.5930,-1.3700,0.6970,1.4189,-0.9657,0.5016,
2.707463,-0.5171,0.6640,-0.1669,0.2950,-1.3760,0.8330,1.4189,-0.9657,0.5016,
2.725484,-0.4990,0.6579,-0.1389,0.2950,-1.3760,0.8330,1.4189,-0.9657,0.5016,
2.729282,-0.4990,0.6579,-0.1389,0.3080,-1.5370,0.9900,1.4189,-0.9657,0.5016,
2.745129,-0.4990,0.6579,-0.1389,0.6100,-1.2080,1.1350,1.4189,-0.9657,0.5016,
2.766266,-0.4990,0.6579,-0.1389,0.6100,-1.2080,1.1350,0.5138,0.1343,0.2696,
2.769667,-0.4990,0.6579,-0.1389,0.4000,-1.2090,1.5020,0.5138,0.1343,0.2696,
2.785582,-0.5233,0.6669,-0.1041,0.4000,-1.2090,1.5020,0.5138,0.1343,0.2696,
2.787697,-0.5233,0.6669,-0.1041,-0.0810,-1.4680,1.6140,0.5138,0.1343,0.2696,
2.806565,-0.5233,0.6669,-0.1041,-1.0260,-1.4760,1.5740,0.5138,0.1343,0.2696,
2.826127,-0.5233,0.6669,-0.1041,-1.0260,-1.4760,1.5740,-0.3692,0.9883,0.2907,
2.830266,-0.5233,0.6669,-0.1041,-2.1120,-1.2100,1.6370,-0.3692,0.9883,0.2907,
2.846301,-0.7637,0.7146,-0.0878,-2.1120,-1.2100,1.6370,-0.3692,0.9883,0.2907,
2.848404,-0.7637,0.7146,-0.0878,-2.7310,-1.1220,1.9080,-0.3692,0.9883,0.2907,
2.866148,-0.7637,0.7146,-0.0878,-3.0480,-1.3740,1.5920,-0.3692,0.9883,0.2907,
2.889850,-0.7637,0.7146,-0.0878,-3.0800,-1.6350,1.4280,-0.3692,0.9883,0.2907,
2.907563,-0.7769,0.6997,-0.0841,-3.0800,-1.6350,1.4280,-0.3692,0.9883,0.2907,
2.911270,-0.7769,0.6997,-0.0841,-3.0800,-1.6350,1.4280,-0.7612,0.0903,-0.0424,
2.914680,-0.7769,0.6997,-0.0841,-2.9340,-1.3960,1.6840,-0.7612,0.0903,-0.0424,
2.927660,-0.7769,0.6997,-0.0841,-2.8630,-0.8780,1.3150,-0.7612,0.0903,-0.0424,
2.947460,-0.7769,0.6997,-0.0841,-2.7950,-0.6630,0.9110,-0.7612,0.0903,-0.0424,
2.968745,-0.7708,0.7873,-0.0914,-2.7950,-0.6630,0.9110,-0.7612,0.0903,-0.0424,
2.973194,-0.7708,0.7873,-0.0914,-2.7950,-0.6630,0.9110,-1.4332,0.6284,-0.6354,
2.977154,-0.7708,0.7873,-0.0914,-2.7000,-0.5790,1.1150,-1.4332,0.6284,-0.6354,
2.988031,-0.7708,0.7873,-0.0914,-2.6860,-0.2510,1.0660,-1.4332,0.6284,-0.6354,
3.008951,-0.7708,0.7873,-0.0914,-2.7690,-0.0450,0.4240,-1.4332,0.6284,-0.6354,
3.028921,-0.8365,0.8197,-0.0921,-2.7690,-0.0450,0.4240,-1.4332,0.6284,-0.6354,
3.033288,-0.8365,0.8197,-0.0921,-2.7690,-0.0450,0.4240,-2.0833,1.0724,-0.7463,
3.037080,-0.8365,0.8197,-0.0921,-2.7680,-0.0500,0.3860,-2.0833,1.0724,-0.7463,
3.049576,-0.8365,0.8197,-0.0921,-2.9280,0.0340,0.5950,-2.0833,1.0724,-0.7463,
3.069535,-0.8365,0.8197,-0.0921,-3.1410,-0.0040,1.0580,-2.0833,1.0724,-0.7463,
3.090905,-0.9201,0.8231,0.0527,-3.1410,-0.0040,1.0580,-2.0833,1.0724,-0.7463,
3.093092,-0.9201,0.8231,0.0527,-3.1410,-0.0040,1.0580,-1.8542,0.7754,-0.5004,
3.095840,-0.9201,0.8231,0.0527,-3.2370,0.1630,1.1050,-1.8542,0.7754,-0.5004,
3.109170,-0.9201,0.8231,0.0527,-3.3180,0.4000,0.8640,-1.8542,0.7754,-0.5004,
3.130302,-0.9201,0.8231,0.0527,-2.8870,0.5220,0.2780,-1.8542,0.7754,-0.5004,
3.150058,-0.8763,0.8519,0.0138,-2.8870,0.5220,0.2780,-1.8542,0.7754,-0.5004,
3.153273,-0.8763,0.8519,0.0138,-2.4370,0.6940,-0.0760,-1.8542,0.7754,-0.5004,
3.170685,-0.8763,0.8519,0.0138,-2.4370,0.6940,-0.0760,-2.3962,0.3464,-1.0923,
3.172609,-0.8763,0.8519,0.0138,-2.4110,-0.2430,-0.0870,-2.3962,0.3464,-1.0923,
3.190142,-0.8763,0.8519,0.0138,-2.3190,-2.0740,0.7470,-2.3962,0.3464,-1.0923,
3.212701,-0.5692,0.5995,-0.0543,-2.3190,-2.0740,0.7470,-2.3962,0.3464,-1.0923,
3.216794,-0.5692,0.5995,-0.0543,0.8550,-1.4790,-1.4500,-2.3962,0.3464,-1.0923,
3.230703,-0.5692,0.5995,-0.0543,0.8550,-1.4790,-1.4500,-0.3762,-1.1737,-0.5303,
3.234498,-0.5692,0.5995,-0.0543,-0.4210,-3.1590,-3.1950,-0.3762,-1.1737,-0.5303,
3.251689,-0.5692,0.5995,-0.0543,0.0060,-6.3200,-2.1060,-0.3762,-1.1737,-0.5303,
3.272022,0.3827,0.8717,0.2876,0.0060,-6.3200,-2.1060,-0.3762,-1.1737,-0.5303,
3.273890,0.3827,0.8717,0.2876,9.6700,0.8820,1.2500,-0.3762,-1.1737,-0.5303,
3.292268,0.3827,0.8717,0.2876,9.6700,0.8820,1.2500,-2.0063,1.4253,-0.4663,
3.296503,0.3827,0.8717,0.2876,3.6080,-1.5110,-5.1040,-2.0063,1.4253,-0.4663,
3.311640,0.3827,0.8717,0.2876,0.3610,-3.7290,-3.1480,-2.0063,1.4253,-0.4663,
3.332969,-0.6105,0.4916,0.0358,0.3610,-3.7290,-3.1480,-2.0063,1.4253,-0.4663,
3.335014,-0.6105,0.4916,0.0358,0.6360,-2.2130,-1.4220,-2.0063,1.4253,-0.4663,
3.352530,-0.6105,0.4916,0.0358,0.6360,-2.2130,-1.4220,-2.8982,3.0503,-0.7113,
3.357257,-0.6105,0.4916,0.0358,-3.8160,-4.1720,-2.5480,-2.8982,3.0503,-0.7113,
3.374012,-0.6105,0.4916,0.0358,-6.2390,-7.1920,4.5090,-2.8982,3.0503,-0.7113,
3.392672,-0.9695,0.2304,0.3147,-6.2390,-7.1920,4.5090,-2.8982,3.0503,-0.7113,
3.395386,-0.9695,0.2304,0.3147,-2.3500,-4.2530,1.3760,-2.8982,3.0503,-0.7113,
3.413614,-0.9695,0.2304,0.3147,-2.3700,-3.3860,0.2620,-2.8982,3.0503,-0.7113,
3.434399,-0.9695,0.2304,0.3147,-2.3700,-3.3860,0.2620,-1.0902,0.9123,-2.0364,
3.438434,-0.9695,0.2304,0.3147,-3.9470,-4.8350,1.7240,-1.0902,0.9123,-2.0364,
3.454077,-1.2107,-0.1036,0.2085,-3.9470,-4.8350,1.7240,-1.0902,0.9123,-2.0364,
3.456486,-1.2107,-0.1036,0.2085,-4.1650,-6.8040,0.2230,-1.0902,0.9123,-2.0364,
3.474066,-1.2107,-0.1036,0.2085,7.3220,-2.6480,2.3380,-1.0902,0.9123,-2.0364,
3.495867,-1.2107,-0.1036,0.2085,7.3220,-2.6480,2.3380,-0.6502,2.0343,-0.2324,
3.499909,-1.2107,-0.1036,0.2085,8.2330,0.0560,0.7970,-0.6502,2.0343,-0.2324,
3.514856,-0.8861,0.3830,-0.3018,8.2330,0.0560,0.7970,-0.6502,2.0343,-0.2324,
3.519143,-0.8861,0.3830,-0.3018,-0.7270,-1.8260,-4.3500,-0.6502,2.0343,-0.2324,
3.537768,-0.8861,0.3830,-0.3018,-1.7470,-3.0660,-0.9920,-0.6502,2.0343,-0.2324,
3.554269,-0.8861,0.3830,-0.3018,-1.7470,-3.0660,-0.9920,-0.2612,1.6563,-1.2053,
3.556231,-0.8861,0.3830,-0.3018,-0.4180,-2.8230,3.7560,-0.2612,1.6563,-1.2053,
3.576722,-1.3964,0.2468,0.1979,-0.4180,-2.8230,3.7560,-0.2612,1.6563,-1.2053,
3.580215,-1.3964,0.2468,0.1979,-5.2710,-2.5650,1.0440,-0.2612,1.6563,-1.2053,
3.595976,-1.3964,0.2468,0.1979,-6.3260,-0.8420,0.5230,-0.2612,1.6563,-1.2053,
3.616374,-1.3964,0.2468,0.1979,-6.3260,-0.8420,0.5230,-0.3823,1.5383,-1.1033,
3.620070,-1.3964,0.2468,0.1979,-2.9230,0.3000,-1.1420,-0.3823,1.5383,-1.1033,
3.634220,-0.9895,0.3807,-0.0909,-2.9230,0.3000,-1.1420,-0.3823,1.5383,-1.1033,
3.636406,-0.9895,0.3807,-0.0909,-0.9530,-0.7430,-1.0790,-0.3823,1.5383,-1.1033,
3.657177,-0.9895,0.3807,-0.0909,3.0710,-0.4570,1.0520,-0.3823,1.5383,-1.1033,
3.674788,-0.9895,0.3807,-0.0909,3.0800,-0.2790,0.4310,-0.3823,1.5383,-1.1033,
3.698447,-0.9047,0.2157,-0.0797,3.0800,-0.2790,0.4310,-0.3823,1.5383,-1.1033,
3.703006,-0.9047,0.2157,-0.0797,3.0800,-0.2790,0.4310,0.0268,1.0923,-1.6393,
3.706702,-0.9047,0.2157,-0.0797,0.2490,-1.5060,-0.3030,0.0268,1.0923,-1.6393,
3.716209,-0.9047,0.2157,-0.0797,-0.9940,-2.4620,-0.7320,0.0268,1.0923,-1.6393,
3.738500,-0.9047,0.2157,-0.0797,-0.7520,-2.4490,-0.9860,0.0268,1.0923,-1.6393,
3.756298,-0.8910,0.2835,-0.3598,-0.7520,-2.4490,-0.9860,0.0268,1.0923,-1.6393,
3.758254,-0.8910,0.2835,-0.3598,-0.7520,-2.4490,-0.9860,0.1497,0.3433,-2.4544,
3.759915,-0.8910,0.2835,-0.3598,0.7090,0.2450,-2.6710,0.1497,0.3433,-2.4544,
3.779647,-0.8910,0.2835,-0.3598,-1.0710,0.1500,-2.7890,0.1497,0.3433,-2.4544,
3.796974,-0.8910,0.2835,-0.3598,-2.2580,-1.4740,-4.4190,0.1497,0.3433,-2.4544,
3.818639,-0.9304,0.2881,-0.4057,-2.2580,-1.4740,-4.4190,0.1497,0.3433,-2.4544,
3.820709,-0.9304,0.2881,-0.4057,-2.2580,-1.4740,-4.4190,-1.0612,1.3293,-0.9423,
3.822453,-0.9304,0.2881,-0.4057,0.4540,1.1160,-2.6380,-1.0612,1.3293,-0.9423,
3.837082,-0.9304,0.2881,-0.4057,4.1440,0.0870,-1.5240,-1.0612,1.3293,-0.9423,
3.859086,-0.9304,0.2881,-0.4057,2.8910,-2.0860,1.9240,-1.0612,1.3293,-0.9423,
3.878234,-1.1200,-0.1321,0.0991,2.8910,-2.0860,1.9240,-1.0612,1.3293,-0.9423,
3.883023,-1.1200,-0.1321,0.0991,2.8910,-2.0860,1.9240,0.5548,0.6783,-0.2223,
3.886791,-1.1200,-0.1321,0.0991,-1.4540,-2.5810,2.9870,0.5548,0.6783,-0.2223,
3.899672,-1.1200,-0.1321,0.0991,1.9310,2.4270,1.5910,0.5548,0.6783,-0.2223,
3.918423,-1.1200,-0.1321,0.0991,1.8160,1.8080,0.0210,0.5548,0.6783,-0.2223,
3.940399,-0.6759,0.1197,-0.1867,1.8160,1.8080,0.0210,0.5548,0.6783,-0.2223,
3.943822,-0.6759,0.1197,-0.1867,2.8930,-0.2000,0.1230,0.5548,0.6783,-0.2223,
3.958923,-0.6759,0.1197,-0.1867,2.8930,-0.2000,0.1230,0.8478,-0.6937,1.0027,
3.960453,-0.6759,0.1197,-0.1867,3.2570,-1.8060,-1.2880,0.8478,-0.6937,1.0027,
3.981762,-0.6759,0.1197,-0.1867,1.9600,-1.8700,-0.8480,0.8478,-0.6937,1.0027,
3.999040,-0.8419,-0.0302,-0.1515,1.9600,-1.8700,-0.8480,0.8478,-0.6937,1.0027,
4.001362,-0.8419,-0.0302,-0.1515,1.2130,-2.4690,-0.0610,0.8478,-0.6937,1.0027,
4.021703,-0.8419,-0.0302,-0.1515,1.2130,-2.4690,-0.0610,0.5127,-0.2806,1.8567,
4.025493,-0.8419,-0.0302,-0.1515,1.2980,-3.5850,-0.5630,0.5127,-0.2806,1.8567,
4.040742,-0.8419,-0.0302,-0.1515,0.8320,-2.7670,-3.1200,0.5127,-0.2806,1.8567,
4.062939,-1.0371,-0.1390,-0.3344,0.8320,-2.7670,-3.1200,0.5127,-0.2806,1.8567,
4.067001,-1.0371,-0.1390,-0.3344,-0.9830,-4.5160,-1.8840,0.5127,-0.2806,1.8567,
4.079235,-1.0371,-0.1390,-0.3344,-0.9830,-4.5160,-1.8840,0.3098,0.0144,2.1876,
4.083092,-1.0371,-0.1390,-0.3344,-3.5750,-6.1750,-0.9650,0.3098,0.0144,2.1876,
4.102992,-1.0371,-0.1390,-0.3344,-4.2240,-5.1920,-1.5410,0.3098,0.0144,2.1876,
4.121080,-0.9509,0.2214,-0.6936,-4.2240,-5.1920,-1.5410,0.3098,0.0144,2.1876,
4.124789,-0.9509,0.2214,-0.6936,-0.5230,-1.9990,-5.5680,0.3098,0.0144,2.1876,
4.143226,-0.9509,0.2214,-0.6936,-0.5230,-1.9990,-5.5680,0.2038,0.3534,0.6867,
4.146515,-0.9509,0.2214,-0.6936,1.7020,0.9030,-7.6780,0.2038,0.3534,0.6867,
4.161484,-0.9509,0.2214,-0.6936,-0.0120,4.4150,-4.4660,0.2038,0.3534,0.6867,
4.183636,-1.4196,0.9585,-0.2544,-0.0120,4.4150,-4.4660,0.2038,0.3534,0.6867,
4.187496,-1.4196,0.9585,-0.2544,-5.2600,4.9320,-1.2290,0.2038,0.3534,0.6867,
4.201356,-1.4196,0.9585,-0.2544,-5.8440,3.1810,-1.7250,0.2038,0.3534,0.6867,
4.224069,-1.4196,0.9585,-0.2544,-5.8440,3.1810,-1.7250,-1.2283,-1.7467,0.7217,
4.229382,-1.4196,0.9585,-0.2544,-2.8070,3.1230,-4.3940,-1.2283,-1.7467,0.7217,
4.241792,-1.0044,0.6246,-0.0464,-2.8070,3.1230,-4.3940,-1.2283,-1.7467,0.7217,
4.243255,-1.0044,0.6246,-0.0464,-1.3980,1.1140,-0.4110,-1.2283,-1.7467,0.7217,
4.264722,-1.0044,0.6246,-0.0464,0.0680,-3.0940,2.5010,-1.2283,-1.7467,0.7217,
4.282401,-1.0044,0.6246,-0.0464,0.0680,-3.0940,2.5010,-1.2262,-1.6646,2.4317,
4.285898,-1.0044,0.6246,-0.0464,1.4900,-3.5480,1.2080,-1.2262,-1.6646,2.4317,
4.305054,-0.9106,0.2898,0.1688,1.4900,-3.5480,1.2080,-1.2262,-1.6646,2.4317,
4.307152,-0.9106,0.2898,0.1688,-1.4450,-3.4130,0.5240,-1.2262,-1.6646,2.4317,
4.323615,-0.9106,0.2898,0.1688,-0.2570,-2.5350,0.1610,-1.2262,-1.6646,2.4317,
4.345363,-0.9106,0.2898,0.1688,-0.2570,-2.5350,0.1610,-1.2393,0.6234,2.4947,
4.349950,-0.9106,0.2898,0.1688,6.2540,-1.0070,0.8880,-1.2393,0.6234,2.4947,
4.363319,0.0320,0.6323,0.2215,6.2540,-1.0070,0.8880,-1.2393,0.6234,2.4947,
4.367159,0.0320,0.6323,0.2215,6.7350,-1.0620,0.6110,-1.2393,0.6234,2.4947,
4.386380,0.0320,0.6323,0.2215,-0.3420,-2.5930,2.5560,-1.2393,0.6234,2.4947,
4.404804,0.0320,0.6323,0.2215,-0.3420,-2.5930,2.5560,0.4447,-1.0996,-0.0894,
4.408660,0.0320,0.6323,0.2215,-0.6270,-3.6600,0.8970,0.4447,-1.0996,-0.0894,
4.426239,-0.6738,0.5137,0.1238,-0.6270,-3.6600,0.8970,0.4447,-1.0996,-0.0894,
4.428551,-0.6738,0.5137,0.1238,-0.3070,-2.2810,-0.5970,0.4447,-1.0996,-0.0894,
4.444501,-0.6738,0.5137,0.1238,-0.1950,-0.5610,-3.0400,0.4447,-1.0996,-0.0894,
4.467062,-0.6738,0.5137,0.1238,-1.4080,-4.0810,-2.0600,0.4447,-1.0996,-0.0894,
4.484551,-1.0000,-0.0598,0.1150,-1.4080,-4.0810,-2.0600,0.4447,-1.0996,-0.0894,
4.486884,-1.0000,-0.0598,0.1150,-1.4080,-4.0810,-2.0600,-0.0102,1.6603,0.7677,
4.489906,-1.0000,-0.0598,0.1150,-3.5490,-7.9780,-0.4720,-0.0102,1.6603,0.7677,
4.507384,-1.0000,-0.0598,0.1150,0.5980,-5.1350,-2.4270,-0.0102,1.6603,0.7677,
4.524987,-1.0000,-0.0598,0.1150,0.4450,-4.2430,2.1220,-0.0102,1.6603,0.7677,
4.547503,-0.6158,0.4406,0.2242,0.4450,-4.2430,2.1220,-0.0102,1.6603,0.7677,
4.551173,-0.6158,0.4406,0.2242,0.4450,-4.2430,2.1220,0.5518,0.7674,0.6467,
4.554146,-0.6158,0.4406,0.2242,0.0370,-3.2990,1.0550,0.5518,0.7674,0.6467,
4.566131,-0.6158,0.4406,0.2242,0.3620,-3.1640,-2.5960,0.5518,0.7674,0.6467,
4.588480,-0.6158,0.4406,0.2242,1.8300,-5.6190,-3.6270,0.5518,0.7674,0.6467,
4.608094,-0.6058,0.2602,-0.0401,1.8300,-5.6190,-3.6270,0.5518,0.7674,0.6467,
4.612953,-0.6058,0.2602,-0.0401,1.8300,-5.6190,-3.6270,-0.7782,0.9764,0.0147,
4.616214,-0.6058,0.2602,-0.0401,0.0780,-5.1280,-1.4830,-0.7782,0.9764,0.0147,
4.628747,-0.6058,0.2602,-0.0401,-3.6410,-3.4320,-1.9640,-0.7782,0.9764,0.0147,
4.646386,-0.6058,0.2602,-0.0401,-2.6140,-6.5190,1.2480,-0.7782,0.9764,0.0147,
4.670268,-0.9274,0.4220,0.1732,-2.6140,-6.5190,1.2480,-0.7782,0.9764,0.0147,
4.674431,-0.9274,0.4220,0.1732,-2.6140,-6.5190,1.2480,-1.5103,0.7983,4.4147,
4.677672,-0.9274,0.4220,0.1732,-4.1850,-4.2520,0.2930,-1.5103,0.7983,4.4147,
4.687165,-0.9274,0.4220,0.1732,1.9680,-5.5940,-3.6520,-1.5103,0.7983,4.4147,
4.709901,-0.9274,0.4220,0.1732,-0.4830,0.2460,0.1460,-1.5103,0.7983,4.4147,
4.727749,-0.7996,2.0543,0.5862,-0.4830,0.2460,0.1460,-1.5103,0.7983,4.4147,
4.731843,-0.7996,2.0543,0.5862,-5.3280,10.7490,4.3550,-1.5103,0.7983,4.4147,
4.751001,-0.7996,2.0543,0.5862,-5.3280,10.7490,4.3550,0.4537,2.0413,4.0347,
4.755394,-0.7996,2.0543,0.5862,2.8810,1.7220,2.1190,0.4537,2.0413,4.0347,
4.767916,-0.7996,2.0543,0.5862,6.9420,-1.7260,-0.6640,0.4537,2.0413,4.0347,
4.791002,0.4713,1.4788,-0.4837,6.9420,-1.7260,-0.6640,0.4537,2.0413,4.0347,
4.795851,0.4713,1.4788,-0.4837,6.3830,4.8570,-5.4370,0.4537,2.0413,4.0347,
4.808177,0.4713,1.4788,-0.4837,6.3830,4.8570,-5.4370,0.5768,-1.4726,-1.3364,
4.810113,0.4713,1.4788,-0.4837,4.6590,3.4560,-4.3810,0.5768,-1.4726,-1.3364,
4.831229,0.4713,1.4788,-0.4837,3.7830,0.6910,-2.5960,0.5768,-1.4726,-1.3364,
4.849297,0.3213,0.8062,-0.1760,3.7830,0.6910,-2.5960,0.5768,-1.4726,-1.3364,
4.853623,0.3213,0.8062,-0.1760,5.9940,-1.4650,-2.3100,0.5768,-1.4726,-1.3364,
4.871387,0.3213,0.8062,-0.1760,5.9940,-1.4650,-2.3100,0.8198,-0.4166,-3.3043,
4.873702,0.3213,0.8062,-0.1760,6.1970,-4.4560,-2.2970,0.8198,-0.4166,-3.3043,
4.889653,0.3213,0.8062,-0.1760,0.8680,-9.3830,-2.8080,0.8198,-0.4166,-3.3043,
4.912068,-0.7943,-0.0742,0.3980,0.8680,-9.3830,-2.8080,0.8198,-0.4166,-3.3043,
4.916424,-0.7943,-0.0742,0.3980,-3.5050,-9.5480,3.7780,0.8198,-0.4166,-3.3043,
4.930198,-0.7943,-0.0742,0.3980,-3.5050,-9.5480,3.7780,3.0207,1.7244,-2.0813,
4.934468,-0.7943,-0.0742,0.3980,-3.0670,0.0570,7.7350,3.0207,1.7244,-2.0813,
4.953586,-0.7943,-0.0742,0.3980,-4.0090,10.5230,-4.1020,3.0207,1.7244,-2.0813,
4.970982,-1.4581,2.2049,-1.5360,-4.0090,10.5230,-4.1020,3.0207,1.7244,-2.0813,
4.974788,-1.4581,2.2049,-1.5360,-8.9830,13.4320,-13.9130,3.0207,1.7244,-2.0813,
4.992871,-1.4581,2.2049,-1.5360,-10.3660,9.5470,0.1100,3.0207,1.7244,-2.0813,
5.011243,-1.4581,2.2049,-1.5360,-10.3660,9.5470,0.1100,0.6787,0.5504,-0.9563,
5.013692,-1.4581,2.2049,-1.5360,-4.8520,7.9390,-4.0160,0.6787,0.5504,-0.9563,
5.033766,-0.6144,1.2679,-0.8397,-4.8520,7.9390,-4.0160,0.6787,0.5504,-0.9563,
5.038180,-0.6144,1.2679,-0.8397,-0.3310,4.5500,-6.8620,0.6787,0.5504,-0.9563,
5.051231,-0.6144,1.2679,-0.8397,1.3660,0.5520,1.1150,0.6787,0.5504,-0.9563,
5.074688,-0.6144,1.2679,-0.8397,1.3660,0.5520,1.1150,-0.1852,-0.0297,0.2776,
5.079831,-0.6144,1.2679,-0.8397,1.3150,-3.6860,1.9360,-0.1852,-0.0297,0.2776,
5.091616,-0.3018,0.2011,-0.3497,1.3150,-3.6860,1.9360,-0.1852,-0.0297,0.2776,
5.093222,-0.3018,0.2011,-0.3497,2.5980,-6.0360,-2.2540,-0.1852,-0.0297,0.2776,
5.114562,-0.3018,0.2011,-0.3497,4.2980,-7.1070,-5.0400,-0.1852,-0.0297,0.2776,
5.132489,-0.3018,0.2011,-0.3497,4.2980,-7.1070,-5.0400,-0.8243,-0.8356,1.8847,
5.136271,-0.3018,0.2011,-0.3497,4.6960,-7.5130,-2.2800,-0.8243,-0.8356,1.8847,
5.155510,0.1052,0.1598,-0.0629,4.6960,-7.5130,-2.2800,-0.8243,-0.8356,1.8847,
5.157960,0.1052,0.1598,-0.0629,5.8240,-6.9810,-0.0950,-0.8243,-0.8356,1.8847,
5.173513,0.1052,0.1598,-0.0629,4.0460,-5.2250,-1.1420,-0.8243,-0.8356,1.8847,
5.197275,0.1052,0.1598,-0.0629,4.0460,-5.2250,-1.1420,-1.0032,-0.2277,0.9467,
5.201968,0.1052,0.1598,-0.0629,0.4590,-3.3710,-0.2090,-1.0032,-0.2277,0.9467,
5.214375,-0.5664,0.6936,0.0637,0.4590,-3.3710,-0.2090,-1.0032,-0.2277,0.9467,
5.218381,-0.5664,0.6936,0.0637,-1.2820,-2.0350,0.5720,-1.0032,-0.2277,0.9467,
5.236944,-0.5664,0.6936,0.0637,0.2340,-0.7240,-3.7030,-1.0032,-0.2277,0.9467,
5.257950,-0.5664,0.6936,0.0637,1.2760,-0.3660,-3.7360,-1.0032,-0.2277,0.9467,
5.275615,-0.4086,0.7290,-0.1466,1.2760,-0.3660,-3.7360,-1.0032,-0.2277,0.9467,
5.279849,-0.4086,0.7290,-0.1466,1.2760,-0.3660,-3.7360,-0.6493,-1.0467,0.4037,
5.283028,-0.4086,0.7290,-0.1466,-0.0060,-1.7930,-2.1620,-0.6493,-1.0467,0.4037,
5.294904,-0.4086,0.7290,-0.1466,0.5220,-3.2180,-4.1240,-0.6493,-1.0467,0.4037,
5.315603,-0.4086,0.7290,-0.1466,0.5930,-3.0360,-4.1010,-0.6493,-1.0467,0.4037,
5.335787,-0.2940,0.7549,0.0020,0.5930,-3.0360,-4.1010,-0.6493,-1.0467,0.4037,
5.339987,-0.2940,0.7549,0.0020,0.5930,-3.0360,-4.1010,-0.8843,-0.5687,0.2457,
5.343339,-0.2940,0.7549,0.0020,0.9530,-1.5390,-1.2810,-0.8843,-0.5687,0.2457,
5.356208,-0.2940,0.7549,0.0020,2.6060,-1.4700,-0.1650,-0.8843,-0.5687,0.2457,
5.375162,-0.2940,0.7549,0.0020,4.7560,-3.9790,-2.3100,-0.8843,-0.5687,0.2457,
5.397006,0.1786,0.3678,-0.2192,4.7560,-3.9790,-2.3100,-0.8843,-0.5687,0.2457,
5.399343,0.1786,0.3678,-0.2192,4.7560,-3.9790,-2.3100,0.2017,0.4613,0.0857,
5.401058,0.1786,0.3678,-0.2192,5.3930,-5.4110,-3.4500,0.2017,0.4613,0.0857,
5.416452,0.1786,0.3678,-0.2192,3.0060,-4.1840,-4.2280,0.2017,0.4613,0.0857,
5.438026,0.1786,0.3678,-0.2192,-1.0970,-1.2120,-0.2870,0.2017,0.4613,0.0857,
5.458230,-0.5130,1.9106,1.2269,-1.0970,-1.2120,-0.2870,0.2017,0.4613,0.0857,
5.463396,-0.5130,1.9106,1.2269,-1.0970,-1.2120,-0.2870,5.4077,-5.9957,-4.3724,
5.466220,-0.5130,1.9106,1.2269,-0.8510,9.9590,10.5610,5.4077,-5.9957,-4.3724,
5.478214,-0.5130,1.9106,1.2269,-19.2610,20.3200,3.4850,5.4077,-5.9957,-4.3724,
5.498503,-0.5130,1.9106,1.2269,-26.7940,-3.4790,-20.0410,5.4077,-5.9957,-4.3724,
5.518803,-0.5501,0.0881,-0.0704,-26.7940,-3.4790,-20.0410,5.4077,-5.9957,-4.3724,
5.522667,-0.5501,0.0881,-0.0704,-0.8780,-7.7970,-1.6760,5.4077,-5.9957,-4.3724,
5.538992,-0.5501,0.0881,-0.0704,-0.8780,-7.7970,-1.6760,-1.7093,5.5863,1.2937,
5.541423,-0.5501,0.0881,-0.0704,-1.1880,-3.5980,1.1670,-1.7093,5.5863,1.2937,
5.559071,-0.5501,0.0881,-0.0704,-3.4160,4.8680,-0.0720,-1.7093,5.5863,1.2937,
5.579629,-1.0778,1.2351,0.2934,-3.4160,4.8680,-0.0720,-1.7093,5.5863,1.2937,
5.584744,-1.0778,1.2351,0.2934,-6.2800,3.3600,1.6090,-1.7093,5.5863,1.2937,
5.599414,-1.0778,1.2351,0.2934,-6.2800,3.3600,1.6090,0.3418,-2.7807,0.3197,
5.603574,-1.0778,1.2351,0.2934,-3.9520,-3.0230,-2.1460,0.3418,-2.7807,0.3197,
5.619359,-1.0778,1.2351,0.2934,-2.0370,-3.1900,-2.7690,0.3418,-2.7807,0.3197,
5.640072,-0.3895,0.7813,-0.1520,-2.0370,-3.1900,-2.7690,0.3418,-2.7807,0.3197,
5.643621,-0.3895,0.7813,-0.1520,0.3840,-1.1310,-2.6450,0.3418,-2.7807,0.3197,
5.659568,-0.3895,0.7813,-0.1520,0.3840,-1.1310,-2.6450,1.5458,1.7354,-1.2943,
5.664367,-0.3895,0.7813,-0.1520,0.3670,-3.2630,-1.6810,1.5458,1.7354,-1.2943,
5.680656,-0.3895,0.7813,-0.1520,1.3610,-6.0130,0.8220,1.5458,1.7354,-1.2943,
5.700033,-0.2074,0.3075,0.1560,1.3610,-6.0130,0.8220,1.5458,1.7354,-1.2943,
5.704158,-0.2074,0.3075,0.1560,2.9900,-5.4060,1.8940,1.5458,1.7354,-1.2943,
5.721843,-0.2074,0.3075,0.1560,2.9900,-5.4060,1.8940,2.0747,2.0754,-1.3364,
5.724187,-0.2074,0.3075,0.1560,5.2890,-3.9690,3.1030,2.0747,2.0754,-1.3364,
5.740737,-0.2074,0.3075,0.1560,7.9090,-4.3250,1.6690,2.0747,2.0754,-1.3364,
5.762039,0.0808,0.4301,-0.0827,7.9090,-4.3250,1.6690,2.0747,2.0754,-1.3364,
5.766385,0.0808,0.4301,-0.0827,6.3730,-3.6350,1.0570,2.0747,2.0754,-1.3364,
5.781051,0.0808,0.4301,-0.0827,1.3940,1.8130,-1.1960,2.0747,2.0754,-1.3364,
5.802409,0.0808,0.4301,-0.0827,1.3940,1.8130,-1.1960,0.7777,-0.1126,-1.7883,
5.806800,0.0808,0.4301,-0.0827,-4.5000,6.4450,-1.0470,0.7777,-0.1126,-1.7883,
5.821755,-1.1130,1.2351,-0.3278,-4.5000,6.4450,-1.0470,0.7777,-0.1126,-1.7883,
5.823945,-1.1130,1.2351,-0.3278,-4.7650,4.7670,-0.9890,0.7777,-0.1126,-1.7883,
5.841887,-1.1130,1.2351,-0.3278,1.8820,3.7770,-6.3700,0.7777,-0.1126,-1.7883,
5.862868,-1.1130,1.2351,-0.3278,1.8820,3.7770,-6.3700,-1.5942,-0.4927,0.3967,
5.867612,-1.1130,1.2351,-0.3278,1.8560,1.6140,-10.1410,-1.5942,-0.4927,0.3967,
5.882625,-0.4489,0.4872,-0.7417,1.8560,1.6140,-10.1410,-1.5942,-0.4927,0.3967,
5.885004,-0.4489,0.4872,-0.7417,1.6270,-2.8800,-6.0230,-1.5942,-0.4927,0.3967,
5.902726,-0.4489,0.4872,-0.7417,0.8930,-6.3770,-1.7800,-1.5942,-0.4927,0.3967,
5.924573,-0.4489,0.4872,-0.7417,0.8930,-6.3770,-1.7800,-1.6712,-1.7277,2.6997,
5.929789,-0.4489,0.4872,-0.7417,-2.9180,-6.0070,-1.4370,-1.6712,-1.7277,2.6997,
5.943619,-0.8651,0.9094,-0.1134,-2.9180,-6.0070,-1.4370,-1.6712,-1.7277,2.6997,
5.947883,-0.8651,0.9094,-0.1134,-3.5030,0.4540,-1.2560,-1.6712,-1.7277,2.6997,
5.963543,-0.8651,0.9094,-0.1134,-0.3390,6.3270,-4.1620,-1.6712,-1.7277,2.6997,
5.983660,-0.8651,0.9094,-0.1134,-0.3390,6.3270,-4.1620,-2.4133,-0.8026,1.2427,
5.987918,-0.8651,0.9094,-0.1134,0.5770,1.8020,-7.4520,-2.4133,-0.8026,1.2427,
6.004139,-0.1882,0.2730,-0.2693,0.5770,1.8020,-7.4520,-2.4133,-0.8026,1.2427,
6.007965,-0.1882,0.2730,-0.2693,2.3760,-6.0760,-4.0090,-2.4133,-0.8026,1.2427,
6.024251,-0.1882,0.2730,-0.2693,4.0560,-10.2730,-0.2020,-2.4133,-0.8026,1.2427,
6.044582,-0.1882,0.2730,-0.2693,3.7380,-11.8260,1.5070,-2.4133,-0.8026,1.2427,
6.064240,0.0660,-0.3604,0.2284,3.7380,-11.8260,1.5070,-2.4133,-0.8026,1.2427,
6.068559,0.0660,-0.3604,0.2284,3.7380,-11.8260,1.5070,0.3758,0.6523,0.8447,
6.071830,0.0660,-0.3604,0.2284,4.3970,-12.4560,0.7050,0.3758,0.6523,0.8447,
6.084755,0.0660,-0.3604,0.2284,6.1680,-5.7140,-5.1350,0.3758,0.6523,0.8447,
6.105230,0.0660,-0.3604,0.2284,0.2370,-0.8700,8.5870,0.3758,0.6523,0.8447,
6.125791,-0.7593,1.5081,0.9389,0.2370,-0.8700,8.5870,0.3758,0.6523,0.8447,
6.129948,-0.7593,1.5081,0.9389,0.2370,-0.8700,8.5870,0.9628,-1.2426,-1.3523,
6.133488,-0.7593,1.5081,0.9389,-3.1550,6.1280,7.4540,0.9628,-1.2426,-1.3523,
6.145052,-0.7593,1.5081,0.9389,-15.6280,24.1710,-9.5900,0.9628,-1.2426,-1.3523,
6.166868,-0.7593,1.5081,0.9389,-22.3890,10.4000,4.2710,0.9628,-1.2426,-1.3523,
6.185827,-1.4558,0.5054,-1.0917,-22.3890,10.4000,4.2710,0.9628,-1.2426,-1.3523,
6.189798,-1.4558,0.5054,-1.0917,-22.3890,10.4000,4.2710,-0.9232,4.9774,1.0066,
6.193426,-1.4558,0.5054,-1.0917,-10.1220,-3.7890,-12.3570,-0.9232,4.9774,1.0066,
6.206109,-1.4558,0.5054,-1.0917,-3.6500,0.6940,-6.6920,-0.9232,4.9774,1.0066,
6.225471,-1.4558,0.5054,-1.0917,-3.9070,1.2430,3.3270,-0.9232,4.9774,1.0066,
6.247400,-0.5746,0.3954,0.4645,-3.9070,1.2430,3.3270,-0.9232,4.9774,1.0066,
6.254752,-0.5746,0.3954,0.4645,-3.9070,1.2430,3.3270,2.7448,-0.1686,-1.8124,
6.259653,-0.5746,0.3954,0.4645,-1.0350,-4.7590,3.7310,2.7448,-0.1686,-1.8124,
6.267616,-0.5746,0.3954,0.4645,3.1940,-7.8790,5.2450,2.7448,-0.1686,-1.8124,
6.289224,-0.5746,0.3954,0.4645,4.7290,-4.4600,1.3970,2.7448,-0.1686,-1.8124,
6.308537,0.1397,0.6571,-0.5196,4.7290,-4.4600,1.3970,2.7448,-0.1686,-1.8124,
6.314996,0.1397,0.6571,-0.5196,6.8030,-1.6630,-4.0430,2.7448,-0.1686,-1.8124,
6.327849,0.1397,0.6571,-0.5196,6.8030,-1.6630,-4.0430,0.7528,3.1114,-1.8143,
6.332224,0.1397,0.6571,-0.5196,5.9280,-5.3720,1.1300,0.7528,3.1114,-1.8143,
6.347616,0.1397,0.6571,-0.5196,1.8940,-5.5110,4.8180,0.7528,3.1114,-1.8143,
6.368505,-0.3409,0.9492,0.1534,1.8940,-5.5110,4.8180,0.7528,3.1114,-1.8143,
6.372415,-0.3409,0.9492,0.1534,2.6120,1.6870,3.2260,0.7528,3.1114,-1.8143,
6.387888,-0.3409,0.9492,0.1534,2.6120,1.6870,3.2260,0.2648,-1.9096,-1.1503,
6.390377,-0.3409,0.9492,0.1534,2.1160,7.0790,-0.0700,0.2648,-1.9096,-1.1503,
6.408519,-0.3409,0.9492,0.1534,-3.3340,3.8560,-6.2860,0.2648,-1.9096,-1.1503,
6.429756,-1.0403,0.7903,-1.1093,-3.3340,3.8560,-6.2860,0.2648,-1.9096,-1.1503,
6.434584,-1.0403,0.7903,-1.1093,-4.1660,0.1000,-9.6020,0.2648,-1.9096,-1.1503,
6.449174,-1.0403,0.7903,-1.1093,-4.1660,0.1000,-9.6020,-2.1002,-1.0446,1.7507,
6.451256,-1.0403,0.7903,-1.1093,-2.2670,-0.9410,-6.3780,-2.1002,-1.0446,1.7507,
6.469321,-1.0403,0.7903,-1.1093,-1.6710,-1.3440,-3.4880,-2.1002,-1.0446,1.7507,
6.490773,-0.5985,0.8766,-0.1024,-1.6710,-1.3440,-3.4880,-2.1002,-1.0446,1.7507,
6.492875,-0.5985,0.8766,-0.1024,-0.8610,0.1420,-1.1220,-2.1002,-1.0446,1.7507,
6.509102,-0.5985,0.8766,-0.1024,-0.8610,0.1420,-1.1220,-1.7273,0.3234,1.9716,
6.510566,-0.5985,0.8766,-0.1024,-1.1980,4.6570,-1.6400,-1.7273,0.3234,1.9716,
6.531625,-0.5985,0.8766,-0.1024,-2.6280,6.2710,-6.8310,-1.7273,0.3234,1.9716,
6.549897,-0.3683,0.9171,-0.6026,-2.6280,6.2710,-6.8310,-1.7273,0.3234,1.9716,
6.553292,-0.3683,0.9171,-0.6026,0.4190,0.1070,-7.0840,-1.7273,0.3234,1.9716,
6.570739,-0.3683,0.9171,-0.6026,4.9330,-6.5030,-2.6310,-1.7273,0.3234,1.9716,
6.590522,-0.3683,0.9171,-0.6026,4.9330,-6.5030,-2.6310,-1.2873,1.0564,1.1667,
6.592530,-0.3683,0.9171,-0.6026,4.1260,-10.0360,1.6960,-1.2873,1.0564,1.1667,
6.612195,-0.1268,-0.3269,0.3440,4.1260,-10.0360,1.6960,-1.2873,1.0564,1.1667,
6.616325,-0.1268,-0.3269,0.3440,2.2210,-12.2320,1.7460,-1.2873,1.0564,1.1667,
6.631168,-0.1268,-0.3269,0.3440,2.8760,-13.3640,0.2590,-1.2873,1.0564,1.1667,
6.651934,-0.1268,-0.3269,0.3440,2.8760,-13.3640,0.2590,0.1057,-1.6636,-0.8213,
6.655860,-0.1268,-0.3269,0.3440,6.6030,-6.6920,-5.5480,0.1057,-1.6636,-0.8213,
6.671115,-0.5340,0.6657,0.3878,6.6030,-6.6920,-5.5480,0.1057,-1.6636,-0.8213,
6.673206,-0.5340,0.6657,0.3878,-1.5510,-2.4020,1.9960,0.1057,-1.6636,-0.8213,
6.691892,-0.5340,0.6657,0.3878,-4.2300,-0.7000,7.7770,0.1057,-1.6636,-0.8213,
6.711773,-0.5340,0.6657,0.3878,-4.2300,-0.7000,7.7770,2.9288,-9.7427,-3.3403,
6.715819,-0.5340,0.6657,0.3878,-6.9310,15.0410,-7.5660,2.9288,-9.7427,-3.3403,
6.732599,-2.8384,2.7865,1.3621,-6.9310,15.0410,-7.5660,2.9288,-9.7427,-3.3403,
6.736751,-2.8384,2.7865,1.3621,-23.8480,18.5380,11.4020,2.9288,-9.7427,-3.3403,
6.751742,-2.8384,2.7865,1.3621,-14.7090,0.6790,-13.8840,2.9288,-9.7427,-3.3403,
6.774064,-2.8384,2.7865,1.3621,-14.7090,0.6790,-13.8840,-0.7782,5.5283,0.8966,
6.778022,-2.8384,2.7865,1.3621,-2.0470,-4.2660,-4.8080,-0.7782,5.5283,0.8966,
6.792594,-0.6323,0.7216,0.2088,-2.0470,-4.2660,-4.8080,-0.7782,5.5283,0.8966,
6.798035,-0.6323,0.7216,0.2088,-2.1560,-1.7990,0.9040,-0.7782,5.5283,0.8966,
6.813425,-0.6323,0.7216,0.2088,-3.9170,0.3670,1.1560,-0.7782,5.5283,0.8966,
6.832922,-0.6323,0.7216,0.2088,-0.0870,-2.9420,5.5080,-0.7782,5.5283,0.8966,
6.854676,-0.1275,0.3006,0.6341,-0.0870,-2.9420,5.5080,-0.7782,5.5283,0.8966,
6.859018,-0.1275,0.3006,0.6341,-0.0870,-2.9420,5.5080,3.5129,-2.3566,-2.1614,
6.863836,-0.1275,0.3006,0.6341,3.5870,-5.5880,5.8850,3.5129,-2.3566,-2.1614,
6.873322,-0.1275,0.3006,0.6341,5.2200,-3.7660,-3.1790,3.5129,-2.3566,-2.1614,
6.895104,-0.1275,0.3006,0.6341,7.6090,-2.3290,-8.8580,3.5129,-2.3566,-2.1614,
6.915546,-0.0687,0.2913,0.1008,7.6090,-2.3290,-8.8580,3.5129,-2.3566,-2.1614,
6.919451,-0.0687,0.2913,0.1008,7.6090,-2.3290,-8.8580,0.6418,3.8243,-1.9243,
6.922672,-0.0687,0.2913,0.1008,4.9510,-5.0940,2.2240,0.6418,3.8243,-1.9243,
6.936241,-0.0687,0.2913,0.1008,-0.3900,-4.0780,3.4680,0.6418,3.8243,-1.9243,
6.954623,-0.0687,0.2913,0.1008,-2.2140,1.7900,2.9110,0.6418,3.8243,-1.9243,
6.976419,-0.7463,1.6024,0.0077,-2.2140,1.7900,2.9110,0.6418,3.8243,-1.9243,
6.980359,-0.7463,1.6024,0.0077,-2.2140,1.7900,2.9110,0.3828,-2.0196,-0.2933,
6.983589,-0.7463,1.6024,0.0077,-1.2860,8.0840,1.5330,0.3828,-2.0196,-0.2933,
6.994212,-0.7463,1.6024,0.0077,0.7010,12.5310,-7.8690,0.3828,-2.0196,-0.2933,
7.016368,-0.7463,1.6024,0.0077,-3.4330,5.2010,-12.0380,0.3828,-2.0196,-0.2933,
7.034643,-0.8658,0.5046,-0.7134,-3.4330,5.2010,-12.0380,0.3828,-2.0196,-0.2933,
7.038810,-0.8658,0.5046,-0.7134,-3.4330,5.2010,-12.0380,-2.5212,-1.1536,1.9797,
7.042197,-0.8658,0.5046,-0.7134,-2.8350,-3.0670,-6.5110,-2.5212,-1.1536,1.9797,
7.056577,-0.8658,0.5046,-0.7134,0.2890,-7.1720,-3.6440,-2.5212,-1.1536,1.9797,
7.074397,-0.8658,0.5046,-0.7134,1.5260,-8.1210,-0.5730,-2.5212,-1.1536,1.9797,
7.097906,-0.2568,0.1976,0.0647,1.5260,-8.1210,-0.5730,-2.5212,-1.1536,1.9797,
7.102145,-0.2568,0.1976,0.0647,1.9310,-6.7960,0.1310,-2.5212,-1.1536,1.9797,
7.116292,-0.2568,0.1976,0.0647,1.9310,-6.7960,0.1310,-2.3721,2.9033,2.1237,
7.118652,-0.2568,0.1976,0.0647,2.4540,-7.4120,-5.8880,-2.3721,2.9033,2.1237,
7.138931,-0.2568,0.1976,0.0647,4.7710,-9.8390,-8.6730,-2.3721,2.9033,2.1237,
7.158022,0.2159,-0.1461,-0.1484,4.7710,-9.8390,-8.6730,-2.3721,2.9033,2.1237,
7.163202,0.2159,-0.1461,-0.1484,5.8860,-10.3900,-2.7180,-2.3721,2.9033,2.1237,
7.178845,0.2159,-0.1461,-0.1484,5.8860,-10.3900,-2.7180,0.7358,2.0533,-0.4033,
7.184318,0.2159,-0.1461,-0.1484,4.3330,-4.5640,5.8490,0.7358,2.0533,-0.4033,
7.197040,0.2159,-0.1461,-0.1484,-2.6370,-0.6330,4.6580,0.7358,2.0533,-0.4033,
7.219944,-0.6276,0.8744,0.2974,-2.6370,-0.6330,4.6580,0.7358,2.0533,-0.4033,
7.222599,-0.6276,0.8744,0.2974,-2.0010,-0.2570,1.8280,0.7358,2.0533,-0.4033,
7.237702,-0.6276,0.8744,0.2974,-2.0010,-0.2570,1.8280,1.1448,-8.6446,-1.9323,
7.241470,-0.6276,0.8744,0.2974,-2.4490,7.8190,-1.0460,1.1448,-8.6446,-1.9323,
7.259644,-0.6276,0.8744,0.2974,-22.7630,19.2030,7.9230,1.1448,-8.6446,-1.9323,
7.278168,-3.0886,1.3073,-0.6184,-22.7630,19.2030,7.9230,1.1448,-8.6446,-1.9323,
7.280568,-3.0886,1.3073,-0.6184,-26.0150,4.0690,-7.4030,1.1448,-8.6446,-1.9323,
7.300984,-3.0886,1.3073,-0.6184,-26.0150,4.0690,-7.4030,0.0638,4.9034,-0.5963,
7.304763,-3.0886,1.3073,-0.6184,-6.2500,-6.4120,-7.4790,0.0638,4.9034,-0.5963,
7.318111,-3.0886,1.3073,-0.6184,-3.5240,-2.1610,-0.6580,0.0638,4.9034,-0.5963,
7.341779,-0.8028,0.7747,0.0253,-3.5240,-2.1610,-0.6580,0.0638,4.9034,-0.5963,
7.347316,-0.8028,0.7747,0.0253,-2.8630,-0.8520,0.2210,0.0638,4.9034,-0.5963,
7.358367,-0.8028,0.7747,0.0253,0.2670,-3.0760,1.8610,0.0638,4.9034,-0.5963,
7.381953,-0.8028,0.7747,0.0253,0.2670,-3.0760,1.8610,0.7138,2.1803,-1.2053,
7.385888,-0.8028,0.7747,0.0253,3.1390,-3.2180,4.3020,0.7138,2.1803,-1.2053,
7.399048,0.0306,0.2922,0.4650,3.1390,-3.2180,4.3020,0.7138,2.1803,-1.2053,
7.401298,0.0306,0.2922,0.4650,5.7250,-5.2510,5.5080,0.7138,2.1803,-1.2053,
7.422043,0.0306,0.2922,0.4650,8.7870,-5.8540,5.7540,0.7138,2.1803,-1.2053,
7.441394,0.0306,0.2922,0.4650,8.7870,-5.8540,5.7540,-0.4862,0.3443,-0.7853,
7.446694,0.0306,0.2922,0.4650,10.1860,-0.7570,0.6770,-0.4862,0.3443,-0.7853,
7.462117,-0.3225,1.1677,-0.2082,10.1860,-0.7570,0.6770,-0.4862,0.3443,-0.7853,
7.466201,-0.3225,1.1677,-0.2082,2.5170,3.4820,-1.2620,-0.4862,0.3443,-0.7853,
7.479719,-0.3225,1.1677,-0.2082,-3.1090,6.1770,1.2930,-0.4862,0.3443,-0.7853,
7.502778,-0.3225,1.1677,-0.2082,-3.1090,6.1770,1.2930,-2.1673,0.7344,0.5467,
7.507273,-0.3225,1.1677,-0.2082,-1.7080,6.5300,-4.5630,-2.1673,0.7344,0.5467,
7.520354,-0.3013,0.9252,-0.6471,-1.7080,6.5300,-4.5630,-2.1673,0.7344,0.5467,
7.522797,-0.3013,0.9252,-0.6471,2.5300,0.9200,-6.4520,-2.1673,0.7344,0.5467,
7.542758,-0.3013,0.9252,-0.6471,2.4990,-4.2240,-2.3580,-2.1673,0.7344,0.5467,
7.561871,-0.3013,0.9252,-0.6471,2.4990,-4.2240,-2.3580,-1.1822,1.6863,2.2206,
7.567096,-0.3013,0.9252,-0.6471,1.3710,-4.3270,-0.6920,-1.1822,1.6863,2.2206,
7.584008,-0.3665,0.9436,-0.4839,1.3710,-4.3270,-0.6920,-1.1822,1.6863,2.2206,
7.588684,-0.3665,0.9436,-0.4839,0.9790,0.5650,-5.2090,-1.1822,1.6863,2.2206,
7.601396,-0.3665,0.9436,-0.4839,-0.9100,4.8110,-12.4850,-1.1822,1.6863,2.2206,
7.624229,-0.3665,0.9436,-0.4839,-0.4230,2.7950,-5.4620,-1.1822,1.6863,2.2206,
7.641430,-0.4294,0.4767,0.2890,-0.4230,2.7950,-5.4620,-1.1822,1.6863,2.2206,
7.645416,-0.4294,0.4767,0.2890,-0.4230,2.7950,-5.4620,0.0758,-0.1426,-0.6583,
7.649885,-0.4294,0.4767,0.2890,0.5010,-3.9300,2.4690,0.0758,-0.1426,-0.6583,
7.664459,-0.4294,0.4767,0.2890,4.7960,-9.5360,3.3490,0.0758,-0.1426,-0.6583,
7.682629,-0.4294,0.4767,0.2890,4.9630,-9.1490,-0.3780,0.0758,-0.1426,-0.6583,
7.705317,-0.6251,1.5501,0.2194,4.9630,-9.1490,-0.3780,0.0758,-0.1426,-0.6583,
7.710138,-0.6251,1.5501,0.2194,4.9630,-9.1490,-0.3780,-0.2042,0.8383,-2.3693,
7.714698,-0.6251,1.5501,0.2194,-0.7150,7.0010,2.2200,-0.2042,0.8383,-2.3693,
7.723303,-0.6251,1.5501,0.2194,-25.7200,27.2840,15.5340,-0.2042,0.8383,-2.3693,
7.746615,-0.6251,1.5501,0.2194,-14.3430,8.7210,-7.1980,-0.2042,0.8383,-2.3693,
7.763568,-0.6202,0.6430,-0.0848,-14.3430,8.7210,-7.1980,-0.2042,0.8383,-2.3693,
7.767784,-0.6202,0.6430,-0.0848,-14.3430,8.7210,-7.1980,-2.0082,3.2853,-0.0513,
7.770946,-0.6202,0.6430,-0.0848,-0.2510,-1.5940,-1.0790,-2.0082,3.2853,-0.0513,
7.785569,-0.6202,0.6430,-0.0848,2.4800,5.8820,-0.6940,-2.0082,3.2853,-0.0513,
7.803959,-0.6202,0.6430,-0.0848,2.7620,8.3370,1.3440,-2.0082,3.2853,-0.0513,
7.827362,-0.2143,1.8847,0.3124,2.7620,8.3370,1.3440,-2.0082,3.2853,-0.0513,
7.831082,-0.2143,1.8847,0.3124,2.7620,8.3370,1.3440,-1.7392,0.2064,1.4807,
7.834043,-0.2143,1.8847,0.3124,3.2330,10.2590,2.4520,-1.7392,0.2064,1.4807,
7.844205,-0.2143,1.8847,0.3124,-0.9830,3.3830,1.5570,-1.7392,0.2064,1.4807,
7.866864,-0.2143,1.8847,0.3124,-3.3660,-1.4370,-3.1340,-1.7392,0.2064,1.4807,
7.885020,-0.6767,0.7118,-0.3574,-3.3660,-1.4370,-3.1340,-1.7392,0.2064,1.4807,
7.889023,-0.6767,0.7118,-0.3574,-2.1470,-1.6610,-4.7660,-1.7392,0.2064,1.4807,
7.907045,-0.6767,0.7118,-0.3574,-2.1470,-1.6610,-4.7660,-2.0882,1.6163,1.8767,
7.909545,-0.6767,0.7118,-0.3574,-1.2760,-1.8080,-3.0360,-2.0882,1.6163,1.8767,
7.925154,-0.6767,0.7118,-0.3574,-1.5940,-3.4470,-0.4320,-2.0882,1.6163,1.8767,
7.948683,-0.5386,0.4235,0.3042,-1.5940,-3.4470,-0.4320,-2.0882,1.6163,1.8767,
7.952736,-0.5386,0.4235,0.3042,-1.6450,-4.7530,0.9870,-2.0882,1.6163,1.8767,
7.965529,-0.5386,0.4235,0.3042,-1.6450,-4.7530,0.9870,-0.7072,-0.9186,1.1527,
7.967777,-0.5386,0.4235,0.3042,-2.7560,-4.7480,-1.4880,-0.7072,-0.9186,1.1527,
7.988602,-0.5386,0.4235,0.3042,-3.0250,-3.6810,-4.6830,-0.7072,-0.9186,1.1527,
8.008304,-0.4616,0.5736,-0.1752,-3.0250,-3.6810,-4.6830,-0.7072,-0.9186,1.1527,
8.012482,-0.4616,0.5736,-0.1752,-1.3820,-3.4010,-3.9690,-0.7072,-0.9186,1.1527,
8.028530,-0.4616,0.5736,-0.1752,-1.3820,-3.4010,-3.9690,0.9188,1.9814,-0.0894,
8.032684,-0.4616,0.5736,-0.1752,1.1470,-4.6200,-2.1680,0.9188,1.9814,-0.0894,
8.045940,-0.4616,0.5736,-0.1752,1.8630,-4.7270,0.0210,0.9188,1.9814,-0.0894,
8.069852,-0.2705,0.7376,0.4484,1.8630,-4.7270,0.0210,0.9188,1.9814,-0.0894,
8.074112,-0.2705,0.7376,0.4484,1.0540,-1.8150,3.4440,0.9188,1.9814,-0.0894,
8.088068,-0.2705,0.7376,0.4484,1.0540,-1.8150,3.4440,2.2078,3.0943,-2.4153,
8.091874,-0.2705,0.7376,0.4484,-2.4790,4.2920,4.8690,2.2078,3.0943,-2.4153,
8.109374,-0.2705,0.7376,0.4484,-5.6660,9.7030,3.0520,2.2078,3.0943,-2.4153,
8.128464,-0.8974,1.9919,0.0737,-5.6660,9.7030,3.0520,2.2078,3.0943,-2.4153,
8.131677,-0.8974,1.9919,0.0737,-3.8350,11.0650,1.2010,2.2078,3.0943,-2.4153,
8.150299,-0.8974,1.9919,0.0737,-0.1120,10.2290,2.2350,2.2078,3.0943,-2.4153,
8.168217,-0.8974,1.9919,0.0737,-0.1120,10.2290,2.2350,1.3028,-0.3616,-2.1223,
8.170712,-0.8974,1.9919,0.0737,2.2190,6.9720,1.2680,1.3028,-0.3616,-2.1223,
8.191214,-0.7053,1.1762,-0.4768,2.2190,6.9720,1.2680,1.3028,-0.3616,-2.1223,
8.193397,-0.7053,1.1762,-0.4768,-1.0640,3.7250,-3.5520,1.3028,-0.3616,-2.1223,
8.208483,-0.7053,1.1762,-0.4768,-0.6920,1.6030,-4.9560,1.3028,-0.3616,-2.1223,
8.231328,-0.7053,1.1762,-0.4768,-0.6920,1.6030,-4.9560,-1.4252,2.5733,-2.0514,
8.235795,-0.7053,1.1762,-0.4768,1.2220,-0.2370,1.0790,-1.4252,2.5733,-2.0514,
8.249260,-0.5345,0.5792,0.3274,1.2220,-0.2370,1.0790,-1.4252,2.5733,-2.0514,
8.252719,-0.5345,0.5792,0.3274,1.2520,-1.5210,4.7750,-1.4252,2.5733,-2.0514,
8.274173,-0.5345,0.5792,0.3274,3.4110,-2.2440,5.0440,-1.4252,2.5733,-2.0514,
8.291005,-0.5345,0.5792,0.3274,3.4110,-2.2440,5.0440,-1.1923,3.8544,-1.4674,
8.295329,-0.5345,0.5792,0.3274,5.5960,-2.5830,5.7370,-1.1923,3.8544,-1.4674,
8.311855,0.0010,0.4631,0.4481,5.5960,-2.5830,5.7370,-1.1923,3.8544,-1.4674,
8.315827,0.0010,0.4631,0.4481,6.6300,-2.2100,6.9710,-1.1923,3.8544,-1.4674,
8.330215,0.0010,0.4631,0.4481,8.4250,-1.2060,5.0250,-1.1923,3.8544,-1.4674,
8.353953,0.0010,0.4631,0.4481,8.4250,-1.2060,5.0250,-1.3692,1.5594,-0.5444,
8.358104,0.0010,0.4631,0.4481,9.5410,-0.0920,1.1250,-1.3692,1.5594,-0.5444,
8.371634,0.0406,0.7021,-0.3248,9.5410,-0.0920,1.1250,-1.3692,1.5594,-0.5444,
8.375452,0.0406,0.7021,-0.3248,6.9420,0.1500,-0.3380,-1.3692,1.5594,-0.5444,
8.392905,0.0406,0.7021,-0.3248,4.8060,-0.7530,-0.2220,-1.3692,1.5594,-0.5444,
8.411399,0.0406,0.7021,-0.3248,4.8470,-1.3640,-1.4020,-1.3692,1.5594,-0.5444,
8.433810,-0.2532,0.5862,-0.4031,4.8470,-1.3640,-1.4020,-1.3692,1.5594,-0.5444,
8.437871,-0.2532,0.5862,-0.4031,4.8470,-1.3640,-1.4020,-1.6572,-1.1767,0.9596,
8.441444,-0.2532,0.5862,-0.4031,3.9010,-1.4650,-2.0450,-1.6572,-1.1767,0.9596,
8.451457,-0.2532,0.5862,-0.4031,1.2710,-0.5090,-1.3830,-1.6572,-1.1767,0.9596,
8.474608,-0.2532,0.5862,-0.4031,-1.2860,2.7800,-2.3010,-1.6572,-1.1767,0.9596,
8.492454,-1.1268,1.3915,-0.2121,-1.2860,2.7800,-2.3010,-1.6572,-1.1767,0.9596,
8.497335,-1.1268,1.3915,-0.2121,-1.2860,2.7800,-2.3010,-0.5492,-0.0276,-0.2623,
8.501220,-1.1268,1.3915,-0.2121,-4.9050,6.1370,-0.5070,-0.5492,-0.0276,-0.2623,
8.514643,-1.1268,1.3915,-0.2121,-8.1620,2.4670,2.5290,-0.5492,-0.0276,-0.2623,
8.532983,-1.1268,1.3915,-0.2121,-2.4470,-3.6480,-1.2860,-0.5492,-0.0276,-0.2623,
8.555364,-0.6682,0.4538,-0.1078,-2.4470,-3.6480,-1.2860,-0.5492,-0.0276,-0.2623,
8.560439,-0.6682,0.4538,-0.1078,-2.4470,-3.6480,-1.2860,-1.4902,-0.5147,-0.8624,
8.565793,-0.6682,0.4538,-0.1078,0.0130,-2.7860,-0.0350,-1.4902,-0.5147,-0.8624,
8.573586,-0.6682,0.4538,-0.1078,1.1920,7.2350,6.8040,-1.4902,-0.5147,-0.8624,
8.597619,-0.6682,0.4538,-0.1078,1.5480,16.2010,7.0680,-1.4902,-0.5147,-0.8624,
8.614763,-0.4986,1.2018,-0.5186,1.5480,16.2010,7.0680,-1.4902,-0.5147,-0.8624,
8.618701,-0.4986,1.2018,-0.5186,1.5480,16.2010,7.0680,-0.1152,1.4913,0.4107,
8.621968,-0.4986,1.2018,-0.5186,1.9560,4.8400,-3.8540,-0.1152,1.4913,0.4107,
8.635996,-0.4986,1.2018,-0.5186,8.1580,-2.6700,-5.5280,-0.1152,1.4913,0.4107,
8.654660,-0.4986,1.2018,-0.5186,8.0030,0.3800,7.9140,-0.1152,1.4913,0.4107,
8.675499,-0.1845,1.1344,0.6996,8.0030,0.3800,7.9140,-0.1152,1.4913,0.4107,
8.679714,-0.1845,1.1344,0.6996,4.4190,3.6780,8.3420,-0.1152,1.4913,0.4107,
8.694712,-0.1845,1.1344,0.6996,4.4190,3.6780,8.3420,-1.2761,2.1883,1.3656,
8.699224,-0.1845,1.1344,0.6996,0.6350,4.2030,4.1270,-1.2761,2.1883,1.3656,
8.715373,-0.1845,1.1344,0.6996,-1.8240,1.8030,-0.8980,-1.2761,2.1883,1.3656,
8.735348,-0.8385,0.7329,-0.0199,-1.8240,1.8030,-0.8980,-1.2761,2.1883,1.3656,
8.739625,-0.8385,0.7329,-0.0199,-2.5700,-0.8170,0.4470,-1.2761,2.1883,1.3656,
8.755375,-0.8385,0.7329,-0.0199,-2.5700,-0.8170,0.4470,-0.8012,0.8173,0.9966,
8.757839,-0.8385,0.7329,-0.0199,-1.0760,-2.0380,3.0650,-0.8012,0.8173,0.9966,
8.775378,-0.8385,0.7329,-0.0199,2.1390,-1.7910,-2.5390,-0.8012,0.8173,0.9966,
8.797242,-0.3040,0.6463,-0.0995,2.1390,-1.7910,-2.5390,-0.8012,0.8173,0.9966,
8.801465,-0.3040,0.6463,-0.0995,2.1800,-1.9940,-0.4240,-0.8012,0.8173,0.9966,
8.816980,-0.3040,0.6463,-0.0995,2.1800,-1.9940,-0.4240,-1.6702,1.8414,0.8077,
8.820880,-0.3040,0.6463,-0.0995,1.1800,-1.4940,3.5390,-1.6702,1.8414,0.8077,
8.837285,-0.3040,0.6463,-0.0995,2.0290,-1.2480,3.7890,-1.6702,1.8414,0.8077,
8.857146,-0.3213,0.6752,0.2719,2.0290,-1.2480,3.7890,-1.6702,1.8414,0.8077,
8.859290,-0.3213,0.6752,0.2719,1.6630,-1.9390,2.8020,-1.6702,1.8414,0.8077,
8.878168,-0.3213,0.6752,0.2719,1.6630,-1.9390,2.8020,-1.3931,0.0903,0.6197,
8.882230,-0.3213,0.6752,0.2719,1.0090,-1.2840,0.2950,-1.3931,0.0903,0.6197,
8.897511,-0.3213,0.6752,0.2719,0.3640,-0.6140,0.0800,-1.3931,0.0903,0.6197,
8.918879,-0.4634,0.8094,0.1844,0.3640,-0.6140,0.0800,-1.3931,0.0903,0.6197,
8.922577,-0.4634,0.8094,0.1844,-0.0920,-0.8060,1.3950,-1.3931,0.0903,0.6197,
8.938679,-0.4634,0.8094,0.1844,0.0490,-0.8970,1.5200,-1.3931,0.0903,0.6197,
8.958742,-0.4634,0.8094,0.1844,0.0490,-0.8970,1.5200,-0.9552,0.3003,0.8676,
8.961074,-0.4634,0.8094,0.1844,-1.1770,-0.1570,1.0450,-0.9552,0.3003,0.8676,
8.978605,-0.6640,0.8979,0.1441,-1.1770,-0.1570,1.0450,-0.9552,0.3003,0.8676,
8.983849,-0.6640,0.8979,0.1441,-2.4760,-0.1140,0.6560,-0.9552,0.3003,0.8676,
8.999785,-0.6640,0.8979,0.1441,-1.6430,-0.9550,-0.1440,-0.9552,0.3003,0.8676,
9.019399,-0.6640,0.8979,0.1441,-1.6430,-0.9550,-0.1440,-0.0972,1.9594,0.0487,
9.023489,-0.6640,0.8979,0.1441,-1.3440,-0.7770,1.3660,-0.0972,1.9594,0.0487,
9.039835,-0.6107,0.9741,0.3317,-1.3440,-0.7770,1.3660,-0.0972,1.9594,0.0487,
9.042335,-0.6107,0.9741,0.3317,-1.8790,0.6330,2.8670,-0.0972,1.9594,0.0487,
9.059478,-0.6107,0.9741,0.3317,-0.8660,2.6660,1.4600,-0.0972,1.9594,0.0487,
9.080456,-0.6107,0.9741,0.3317,-0.8660,2.6660,1.4600,2.7448,1.0153,-1.8674,
9.084481,-0.6107,0.9741,0.3317,2.0380,2.5170,2.6470,2.7448,1.0153,-1.8674,
9.100104,-0.1532,1.0030,0.1374,2.0380,2.5170,2.6470,2.7448,1.0153,-1.8674,
9.104367,-0.1532,1.0030,0.1374,3.4660,1.4330,2.4230,2.7448,1.0153,-1.8674,
9.121823,-0.1532,1.0030,0.1374,1.9740,2.5920,3.4480,2.7448,1.0153,-1.8674,
9.140315,-0.1532,1.0030,0.1374,1.9740,2.5920,3.4480,1.6288,-0.0946,-2.4003,
9.142460,-0.1532,1.0030,0.1374,1.1800,6.2530,5.4460,1.6288,-0.0946,-2.4003,
9.161423,-0.5511,1.6009,0.1257,1.1800,6.2530,5.4460,1.6288,-0.0946,-2.4003,
9.165889,-0.5511,1.6009,0.1257,0.6790,8.2740,3.3440,1.6288,-0.0946,-2.4003,
9.180791,-0.5511,1.6009,0.1257,1.3410,8.9050,2.3270,1.6288,-0.0946,-2.4003,
9.201806,-0.5511,1.6009,0.1257,0.2020,6.9290,0.9040,1.6288,-0.0946,-2.4003,
9.221809,-0.6486,1.0806,-0.4250,0.2020,6.9290,0.9040,1.6288,-0.0946,-2.4003,
9.225360,-0.6486,1.0806,-0.4250,0.2020,6.9290,0.9040,0.0118,1.9074,-1.7233,
9.228052,-0.6486,1.0806,-0.4250,0.6020,4.0650,-1.8300,0.0118,1.9074,-1.7233,
9.242467,-0.6486,1.0806,-0.4250,3.3550,1.5930,0.5720,0.0118,1.9074,-1.7233,
9.262625,-0.6486,1.0806,-0.4250,3.5010,-0.6310,3.6610,0.0118,1.9074,-1.7233,
9.283237,-0.3128,0.4331,0.1101,3.5010,-0.6310,3.6610,0.0118,1.9074,-1.7233,
9.287837,-0.3128,0.4331,0.1101,3.5010,-0.6310,3.6610,-0.4562,2.6143,-1.0663,
9.291242,-0.3128,0.4331,0.1101,4.0380,-1.7800,4.1610,-0.4562,2.6143,-1.0663,
9.302414,-0.3128,0.4331,0.1101,5.8490,-2.6720,3.0080,-0.4562,2.6143,-1.0663,
9.323402,-0.3128,0.4331,0.1101,7.3730,-3.6990,3.7340,-0.4562,2.6143,-1.0663,
9.342317,0.1500,0.2901,0.0383,7.3730,-3.6990,3.7340,-0.4562,2.6143,-1.0663,
9.346671,0.1500,0.2901,0.0383,7.3730,-3.6990,3.7340,-0.3362,1.1883,0.7347,
9.350794,0.1500,0.2901,0.0383,8.2900,-3.3430,3.7330,-0.3362,1.1883,0.7347,
9.363474,0.1500,0.2901,0.0383,5.6370,-2.4580,0.4960,-0.3362,1.1883,0.7347,
9.383172,0.1500,0.2901,0.0383,2.9440,-2.1350,0.1920,-0.3362,1.1883,0.7347,
9.404505,-0.5482,0.4990,-0.0638,2.9440,-2.1350,0.1920,-0.3362,1.1883,0.7347,
9.408338,-0.5482,0.4990,-0.0638,2.9440,-2.1350,0.1920,-0.8242,0.0644,1.1037,
9.411171,-0.5482,0.4990,-0.0638,1.0440,-1.8180,2.5610,-0.8242,0.0644,1.1037,
9.424746,-0.5482,0.4990,-0.0638,0.9180,-1.0080,2.1410,-0.8242,0.0644,1.1037,
9.444895,-0.5482,0.4990,-0.0638,3.4600,0.1560,1.0810,-0.8242,0.0644,1.1037,
9.464299,-0.0019,0.7009,-0.1193,3.4600,0.1560,1.0810,-0.8242,0.0644,1.1037,
9.469043,-0.0019,0.7009,-0.1193,5.9700,-0.3350,1.7610,-0.8242,0.0644,1.1037,
9.485993,-0.0019,0.7009,-0.1193,5.9700,-0.3350,1.7610,-1.0192,1.0743,0.4496,
9.488612,-0.0019,0.7009,-0.1193,6.5000,-3.1500,1.7440,-1.0192,1.0743,0.4496,
9.504698,-0.0019,0.7009,-0.1193,5.8100,-6.9680,0.7070,-1.0192,1.0743,0.4496,
9.525090,-0.0671,-0.3103,-0.1728,5.8100,-6.9680,0.7070,-1.0192,1.0743,0.4496,
9.526920,-0.0671,-0.3103,-0.1728,4.8160,-10.6450,1.2020,-1.0192,1.0743,0.4496,
9.545158,-0.0671,-0.3103,-0.1728,4.8160,-10.6450,1.2020,-1.0341,1.9884,0.6446,
9.549981,-0.0671,-0.3103,-0.1728,4.5280,-12.4010,2.9510,-1.0341,1.9884,0.6446,
9.566383,-0.0671,-0.3103,-0.1728,5.0980,-9.3200,3.1880,-1.0341,1.9884,0.6446,
9.585869,-0.3094,0.7774,-0.0138,5.0980,-9.3200,3.1880,-1.0341,1.9884,0.6446,
9.589950,-0.3094,0.7774,-0.0138,2.3470,-0.0170,2.8910,-1.0341,1.9884,0.6446,
9.606842,-0.3094,0.7774,-0.0138,2.3470,-0.0170,2.8910,-0.2082,0.3613,-0.8693,
9.609094,-0.3094,0.7774,-0.0138,-3.9330,8.7630,12.8210,-0.2082,0.3613,-0.8693,
9.625586,-0.3094,0.7774,-0.0138,-11.4380,26.0700,7.0820,-0.2082,0.3613,-0.8693,
9.646159,-2.0145,2.7203,-0.0682,-11.4380,26.0700,7.0820,-0.2082,0.3613,-0.8693,
9.650655,-2.0145,2.7203,-0.0682,-13.1920,19.5170,0.8870,-0.2082,0.3613,-0.8693,
9.666707,-2.0145,2.7203,-0.0682,-13.1920,19.5170,0.8870,-0.3662,3.9363,0.4356,
9.671483,-2.0145,2.7203,-0.0682,-14.5400,-2.3540,1.8670,-0.3662,3.9363,0.4356,
9.687497,-2.0145,2.7203,-0.0682,-3.9830,-0.3890,-3.1710,-0.3662,3.9363,0.4356,
9.708127,-0.7833,1.3868,0.0715,-3.9830,-0.3890,-3.1710,-0.3662,3.9363,0.4356,
9.710360,-0.7833,1.3868,0.0715,-1.6320,6.3580,3.4490,-0.3662,3.9363,0.4356,
9.727892,-0.7833,1.3868,0.0715,-0.1730,2.6000,7.0600,-0.3662,3.9363,0.4356,
9.747551,-0.7833,1.3868,0.0715,-0.1730,2.6000,7.0600,1.7218,-0.3256,-2.1343,
9.752031,-0.7833,1.3868,0.0715,1.4410,-2.3420,7.4400,1.7218,-0.3256,-2.1343,
9.768058,-0.3050,0.3959,-0.0513,1.4410,-2.3420,7.4400,1.7218,-0.3256,-2.1343,
9.770183,-0.3050,0.3959,-0.0513,3.7640,-2.3370,2.9920,1.7218,-0.3256,-2.1343,
9.787948,-0.3050,0.3959,-0.0513,8.7410,-1.3450,-1.8680,1.7218,-0.3256,-2.1343,
9.809746,-0.3050,0.3959,-0.0513,8.7410,-1.3450,-1.8680,0.3938,3.1743,-1.5063,
9.814751,-0.3050,0.3959,-0.0513,10.2210,-2.6260,1.9140,0.3938,3.1743,-1.5063,
9.830320,-0.1088,0.1738,0.2990,10.2210,-2.6260,1.9140,0.3938,3.1743,-1.5063,
9.834579,-0.1088,0.1738,0.2990,5.5440,-3.8040,7.6390,0.3938,3.1743,-1.5063,
9.849330,-0.1088,0.1738,0.2990,3.0250,-0.4110,8.3960,0.3938,3.1743,-1.5063,
9.869090,-0.1088,0.1738,0.2990,3.0250,-0.4110,8.3960,0.0388,-1.6057,-0.9504,
9.872812,-0.1088,0.1738,0.2990,2.5080,5.1210,5.4800,0.0388,-1.6057,-0.9504,
9.891044,-0.7906,1.2996,-0.2168,2.5080,5.1210,5.4800,0.0388,-1.6057,-0.9504,
9.893478,-0.7906,1.2996,-0.2168,-0.6870,7.5490,2.3020,0.0388,-1.6057,-0.9504,
9.908999,-0.7906,1.2996,-0.2168,-1.6000,7.6610,-3.8610,0.0388,-1.6057,-0.9504,
9.930874,-0.7906,1.2996,-0.2168,-1.6000,7.6610,-3.8610,-2.0681,-0.3546,1.3937,
9.935249,-0.7906,1.2996,-0.2168,-2.4280,6.3250,-7.0430,-2.0681,-0.3546,1.3937,
9.949816,-0.6713,0.9350,-0.5650,-2.4280,6.3250,-7.0430,-2.0681,-0.3546,1.3937,
9.951743,-0.6713,0.9350,-0.5650,0.1870,3.1130,-1.7980,-2.0681,-0.3546,1.3937,
9.971260,-0.6713,0.9350,-0.5650,2.8940,0.3140,3.0340,-2.0681,-0.3546,1.3937,
9.992471,-0.6713,0.9350,-0.5650,1.8830,0.2110,4.9600,-2.0681,-0.3546,1.3937,
10.011302,-0.5834,0.9480,-0.2214,1.8830,0.2110,4.9600,-2.0681,-0.3546,1.3937,
10.015297,-0.5834,0.9480,-0.2214,1.8830,0.2110,4.9600,-0.9922,0.7183,2.1956,
10.018655,-0.5834,0.9480,-0.2214,0.3140,2.1840,0.9050,-0.9922,0.7183,2.1956,
10.030937,-0.5834,0.9480,-0.2214,1.8430,1.1210,-4.9730,-0.9922,0.7183,2.1956,
10.052790,-0.5834,0.9480,-0.2214,4.7280,-3.6370,-2.7140,-0.9922,0.7183,2.1956,
10.071867,-0.0671,-0.1512,0.0216,4.7280,-3.6370,-2.7140,-0.9922,0.7183,2.1956,
10.075568,-0.0671,-0.1512,0.0216,4.7280,-3.6370,-2.7140,-1.6922,1.7504,1.3626,
10.078515,-0.0671,-0.1512,0.0216,4.5670,-9.3670,2.7640,-1.6922,1.7504,1.3626,
10.092063,-0.0671,-0.1512,0.0216,4.2260,-12.9430,5.7690,-1.6922,1.7504,1.3626,
10.111836,-0.0671,-0.1512,0.0216,5.3520,-9.1590,6.9640,-1.6922,1.7504,1.3626,
10.132686,-0.6032,0.5862,0.3694,5.3520,-9.1590,6.9640,-1.6922,1.7504,1.3626,
10.137259,-0.6032,0.5862,0.3694,5.3520,-9.1590,6.9640,-0.3961,1.5903,-1.0604,
10.140942,-0.6032,0.5862,0.3694,-0.6390,-2.0420,6.4450,-0.3961,1.5903,-1.0604,
10.151902,-0.6032,0.5862,0.3694,-0.7590,3.8960,4.2610,-0.3961,1.5903,-1.0604,
10.173604,-0.6032,0.5862,0.3694,-4.7530,11.9360,1.3870,-0.3961,1.5903,-1.0604,
10.193203,-2.4180,2.7479,0.6375,-4.7530,11.9360,1.3870,-0.3961,1.5903,-1.0604,
10.198802,-2.4180,2.7479,0.6375,-4.7530,11.9360,1.3870,2.5657,-3.5637,-0.7124,
10.202001,-2.4180,2.7479,0.6375,-17.2660,19.6100,7.4320,2.5657,-3.5637,-0.7124,
10.213559,-2.4180,2.7479,0.6375,-14.9630,4.6620,1.2030,2.5657,-3.5637,-0.7124,
10.233118,-2.4180,2.7479,0.6375,-1.7490,-3.1120,-3.5220,2.5657,-3.5637,-0.7124,
10.254555,-0.5212,0.6207,-0.0408,-1.7490,-3.1120,-3.5220,2.5657,-3.5637,-0.7124,
10.258816,-0.5212,0.6207,-0.0408,1.1350,-1.0420,2.1600,2.5657,-3.5637,-0.7124,
10.275542,-0.5212,0.6207,-0.0408,1.1350,-1.0420,2.1600,1.2148,2.2903,-1.8344,
10.280453,-0.5212,0.6207,-0.0408,-0.0420,0.1830,4.7720,1.2148,2.2903,-1.8344,
10.295153,-0.5212,0.6207,-0.0408,2.7480,-1.2540,5.3510,1.2148,2.2903,-1.8344,
10.314950,0.0631,0.3721,0.2206,2.7480,-1.2540,5.3510,1.2148,2.2903,-1.8344,
10.319182,0.0631,0.3721,0.2206,7.2360,-2.5040,5.9720,1.2148,2.2903,-1.8344,
10.336318,0.0631,0.3721,0.2206,7.2360,-2.5040,5.9720,1.1598,2.0483,-1.1133,
10.339780,0.0631,0.3721,0.2206,9.6590,-2.7450,4.7090,1.1598,2.0483,-1.1133,
10.354121,0.0631,0.3721,0.2206,9.9780,-2.9540,4.9020,1.1598,2.0483,-1.1133,
10.377298,-0.0037,0.5720,-0.0399,9.9780,-2.9540,4.9020,1.1598,2.0483,-1.1133,
10.380410,-0.0037,0.5720,-0.0399,6.6600,-0.0030,4.0970,1.1598,2.0483,-1.1133,
10.394247,-0.0037,0.5720,-0.0399,6.6600,-0.0030,4.0970,-0.4441,-1.3387,-0.6733,
10.399468,-0.0037,0.5720,-0.0399,1.2070,5.0520,3.0260,-0.4441,-1.3387,-0.6733,
10.416419,-0.0037,0.5720,-0.0399,-4.0030,5.5170,2.6160,-0.4441,-1.3387,-0.6733,
10.434636,-1.1405,1.1826,-0.5814,-4.0030,5.5170,2.6160,-0.4441,-1.3387,-0.6733,
10.438927,-1.1405,1.1826,-0.5814,-4.2420,5.7970,-1.8480,-0.4441,-1.3387,-0.6733,
10.456588,-1.1405,1.1826,-0.5814,-4.2420,5.7970,-1.8480,-1.8952,0.6193,1.2746,
10.458780,-1.1405,1.1826,-0.5814,-1.7780,8.8470,-3.9620,-1.8952,0.6193,1.2746,
10.474867,-1.1405,1.1826,-0.5814,0.4980,6.7420,-3.2110,-1.8952,0.6193,1.2746,
10.498267,-0.5466,0.9003,-0.3791,0.4980,6.7420,-3.2110,-1.8952,0.6193,1.2746,
10.502891,-0.5466,0.9003,-0.3791,1.1310,2.1040,-0.6830,-1.8952,0.6193,1.2746,
10.515960,-0.5466,0.9003,-0.3791,-0.6580,0.8820,2.4440,-1.8952,0.6193,1.2746,
10.538836,-0.5466,0.9003,-0.3791,-0.6580,0.8820,2.4440,-1.2882,0.4004,2.0186,
10.543293,-0.5466,0.9003,-0.3791,1.2460,1.0770,1.9020,-1.2882,0.4004,2.0186,
10.558911,-0.0552,0.5743,-0.3554,1.2460,1.0770,1.9020,-1.2882,0.4004,2.0186,
10.564223,-0.0552,0.5743,-0.3554,5.1430,-1.9510,-0.9090,-1.2882,0.4004,2.0186,
10.578627,-0.0552,0.5743,-0.3554,5.3820,-6.5630,-1.0020,-1.2882,0.4004,2.0186,
10.598174,-0.0552,0.5743,-0.3554,5.3820,-6.5630,-1.0020,-1.1472,1.9114,1.2847,
10.602572,-0.0552,0.5743,-0.3554,5.4060,-9.9500,3.6090,-1.1472,1.9114,1.2847,
10.619544,0.0357,-0.0659,0.4564,5.4060,-9.9500,3.6090,-1.1472,1.9114,1.2847,
10.622593,0.0357,-0.0659,0.4564,5.4150,-8.5980,7.1270,-1.1472,1.9114,1.2847,
10.637104,0.0357,-0.0659,0.4564,0.4950,-4.2480,6.1270,-1.1472,1.9114,1.2847,
10.660141,0.0357,-0.0659,0.4564,0.4950,-4.2480,6.1270,-0.8742,-2.0877,-1.0123,
10.662384,0.0357,-0.0659,0.4564,0.2810,-0.1250,4.5040,-0.8742,-2.0877,-1.0123,
10.677873,-0.8884,1.6054,0.2030,0.2810,-0.1250,4.5040,-0.8742,-2.0877,-1.0123,
10.683613,-0.8884,1.6054,0.2030,-2.9640,8.0090,3.8880,-0.8742,-2.0877,-1.0123,
10.700204,-0.8884,1.6054,0.2030,-16.9010,17.6940,6.1430,-0.8742,-2.0877,-1.0123,
10.718402,-0.8884,1.6054,0.2030,-16.9010,17.6940,6.1430,0.9349,2.3254,0.2307,
10.722384,-0.8884,1.6054,0.2030,-13.9230,4.2070,1.3430,0.9349,2.3254,0.2307,
10.741056,-0.7666,0.6298,-0.7920,-13.9230,4.2070,1.3430,0.9349,2.3254,0.2307,
10.743090,-0.7666,0.6298,-0.7920,-1.5590,-1.3420,-5.6560,0.9349,2.3254,0.2307,
10.758367,-0.7666,0.6298,-0.7920,-2.5490,2.8460,1.6860,0.9349,2.3254,0.2307,
10.781310,-0.7666,0.6298,-0.7920,-2.2530,2.7120,4.8140,0.9349,2.3254,0.2307,
10.799018,-0.5266,0.4245,0.2670,-2.2530,2.7120,4.8140,0.9349,2.3254,0.2307,
10.801078,-0.5266,0.4245,0.2670,-2.2530,2.7120,4.8140,0.4757,0.2623,-1.1194,
10.802723,-0.5266,0.4245,0.2670,0.8250,-3.1030,5.4090,0.4757,0.2623,-1.1194,
10.821801,-0.5266,0.4245,0.2670,3.9820,-6.2460,7.0810,0.4757,0.2623,-1.1194,
10.842125,-0.5266,0.4245,0.2670,5.7780,-4.0020,3.2200,0.4757,0.2623,-1.1194,
10.862198,0.0803,0.5687,-0.2971,5.7780,-4.0020,3.2200,0.4757,0.2623,-1.1194,
10.866503,0.0803,0.5687,-0.2971,5.7780,-4.0020,3.2200,1.2579,2.6023,-1.3113,
10.869937,0.0803,0.5687,-0.2971,7.0810,-0.7690,1.1250,1.2579,2.6023,-1.3113,
10.879503,0.0803,0.5687,-0.2971,5.0340,0.6230,3.7720,1.2579,2.6023,-1.3113,
10.903117,0.0803,0.5687,-0.2971,2.6880,3.8270,4.4140,1.2579,2.6023,-1.3113,
10.920462,-0.7405,1.4115,-0.0525,2.6880,3.8270,4.4140,1.2579,2.6023,-1.3113,
10.923120,-0.7405,1.4115,-0.0525,2.6880,3.8270,4.4140,-0.4062,-0.6977,-0.4573,
10.925359,-0.7405,1.4115,-0.0525,-0.7920,7.7950,3.7580,-0.4062,-0.6977,-0.4573,
10.943439,-0.7405,1.4115,-0.0525,0.7080,4.1810,4.6750,-0.4062,-0.6977,-0.4573,
10.960431,-0.7405,1.4115,-0.0525,3.6170,4.7580,0.9070,-0.4062,-0.6977,-0.4573,
10.983590,-0.4932,1.5208,-0.5585,3.6170,4.7580,0.9070,-0.4062,-0.6977,-0.4573,
10.985778,-0.4932,1.5208,-0.5585,3.6170,4.7580,0.9070,-1.5162,-0.1046,1.7247,
10.987374,-0.4932,1.5208,-0.5585,1.6300,8.4080,-1.9410,-1.5162,-0.1046,1.7247,
11.001559,-0.4932,1.5208,-0.5585,0.0540,6.8780,-3.3640,-1.5162,-0.1046,1.7247,
11.024661,-0.4932,1.5208,-0.5585,-0.5250,1.4870,-2.8630,-1.5162,-0.1046,1.7247,
11.042823,-0.7288,0.3834,-0.0941,-0.5250,1.4870,-2.8630,-1.5162,-0.1046,1.7247,
11.047999,-0.7288,0.3834,-0.0941,-1.4870,-3.8280,1.7100,-1.5162,-0.1046,1.7247,
11.064258,-0.7288,0.3834,-0.0941,-1.4870,-3.8280,1.7100,-1.6763,1.7923,2.1647,
11.068309,-0.7288,0.3834,-0.0941,-1.1950,-8.7400,0.9710,-1.6763,1.7923,2.1647,
11.082442,-0.7288,0.3834,-0.0941,2.3130,-11.8780,-0.1380,-1.6763,1.7923,2.1647,
11.105228,0.2196,-0.3667,-0.1980,2.3130,-11.8780,-0.1380,-1.6763,1.7923,2.1647,
11.108690,0.2196,-0.3667,-0.1980,6.6170,-11.9090,0.6650,-1.6763,1.7923,2.1647,
11.124784,0.2196,-0.3667,-0.1980,6.6170,-11.9090,0.6650,-0.5613,2.6723,0.2577,
11.128344,0.2196,-0.3667,-0.1980,8.3840,-8.6540,5.8490,-0.5613,2.6723,0.2577,
11.145330,0.2196,-0.3667,-0.1980,6.2120,-3.2290,7.7850,-0.5613,2.6723,0.2577,
11.164622,-0.3556,0.8077,0.6656,6.2120,-3.2290,7.7850,-0.5613,2.6723,0.2577,
11.168547,-0.3556,0.8077,0.6656,1.1430,-0.2570,9.3560,-0.5613,2.6723,0.2577,
11.186741,-0.3556,0.8077,0.6656,1.1430,-0.2570,9.3560,0.0368,-4.7366,-1.4773,
11.191103,-0.3556,0.8077,0.6656,-2.1450,8.4860,6.7150,0.0368,-4.7366,-1.4773,
11.204131,-0.3556,0.8077,0.6656,-16.8850,22.9970,2.9450,0.0368,-4.7366,-1.4773,
11.227291,-2.7631,1.9560,0.4703,-16.8850,22.9970,2.9450,0.0368,-4.7366,-1.4773,
11.230583,-2.7631,1.9560,0.4703,-21.3180,11.4140,6.3210,0.0368,-4.7366,-1.4773,
11.244430,-2.7631,1.9560,0.4703,-21.3180,11.4140,6.3210,-0.5452,4.9273,0.8386,
11.249779,-2.7631,1.9560,0.4703,-8.9260,-4.0750,-4.1770,-0.5452,4.9273,0.8386,
11.267033,-2.7631,1.9560,0.4703,-1.0890,-0.7340,0.9830,-0.5452,4.9273,0.8386,
11.284718,-0.7691,1.0066,0.2429,-1.0890,-0.7340,0.9830,-0.5452,4.9273,0.8386,
11.288264,-0.7691,1.0066,0.2429,-2.2960,2.1100,5.3170,-0.5452,4.9273,0.8386,
11.307568,-0.7691,1.0066,0.2429,-0.1070,-1.3070,5.5960,-0.5452,4.9273,0.8386,
11.325019,-0.7691,1.0066,0.2429,-0.1070,-1.3070,5.5960,2.1498,0.6733,-1.8354,
11.327132,-0.7691,1.0066,0.2429,3.6440,-4.4730,6.1470,2.1498,0.6733,-1.8354,
11.348505,-0.0228,0.3834,-0.1296,3.6440,-4.4730,6.1470,2.1498,0.6733,-1.8354,
11.352429,-0.0228,0.3834,-0.1296,5.6240,-3.0870,2.6490,2.1498,0.6733,-1.8354,
11.365735,-0.0228,0.3834,-0.1296,7.6040,-1.4120,3.3170,2.1498,0.6733,-1.8354,
11.388801,-0.0228,0.3834,-0.1296,7.6040,-1.4120,3.3170,0.4968,1.5213,-1.0853,
11.393311,-0.0228,0.3834,-0.1296,7.3770,-0.5820,5.0390,0.4968,1.5213,-1.0853,
11.408532,-0.2600,0.8742,-0.0872,7.3770,-0.5820,5.0390,0.4968,1.5213,-1.0853,
11.413003,-0.2600,0.8742,-0.0872,3.4820,2.1790,3.5350,0.4968,1.5213,-1.0853,
11.428692,-0.2600,0.8742,-0.0872,-3.1220,4.6050,6.2550,0.4968,1.5213,-1.0853,
11.447257,-0.2600,0.8742,-0.0872,-3.1220,4.6050,6.2550,-0.8452,-0.7347,0.4386,
11.451890,-0.2600,0.8742,-0.0872,-4.0400,8.6920,3.7130,-0.8452,-0.7347,0.4386,
11.468960,-0.9963,1.8031,-0.8679,-4.0400,8.6920,3.7130,-0.8452,-0.7347,0.4386,
11.471903,-0.9963,1.8031,-0.8679,-3.7980,10.9080,-4.6160,-0.8452,-0.7347,0.4386,
11.487428,-0.9963,1.8031,-0.8679,-2.5460,4.7190,-2.6120,-0.8452,-0.7347,0.4386,
11.509609,-0.9963,1.8031,-0.8679,-2.5460,4.7190,-2.6120,-2.1942,0.1323,2.0406,
11.512030,-0.9963,1.8031,-0.8679,1.7370,-1.1480,1.0080,-2.1942,0.1323,2.0406,
11.527944,-0.1989,0.3215,-0.0038,1.7370,-1.1480,1.0080,-2.1942,0.1323,2.0406,
11.532184,-0.1989,0.3215,-0.0038,3.0780,-4.6660,3.1130,-2.1942,0.1323,2.0406,
11.550066,-0.1989,0.3215,-0.0038,3.4700,-6.5920,2.2080,-2.1942,0.1323,2.0406,
11.568175,-0.1989,0.3215,-0.0038,3.7320,-9.9460,-4.7950,-2.1942,0.1323,2.0406,
11.591879,0.0320,-0.4210,-0.6068,3.7320,-9.9460,-4.7950,-2.1942,0.1323,2.0406,
11.594251,0.0320,-0.4210,-0.6068,3.7320,-9.9460,-4.7950,-1.6391,0.8933,1.8307,
11.595981,0.0320,-0.4210,-0.6068,4.0790,-12.6900,-3.0380,-1.6391,0.8933,1.8307,
11.608641,0.0320,-0.4210,-0.6068,5.2270,-11.9670,5.5050,-1.6391,0.8933,1.8307,
11.631285,0.0320,-0.4210,-0.6068,5.4150,-7.2590,7.2090,-1.6391,0.8933,1.8307,
11.649364,-0.2905,0.9306,-0.3421,5.4150,-7.2590,7.2090,-1.6391,0.8933,1.8307,
11.653258,-0.2905,0.9306,-0.3421,5.4150,-7.2590,7.2090,-0.3821,0.4793,-1.8003,
11.656700,-0.2905,0.9306,-0.3421,0.6070,0.4930,-0.1940,-0.3821,0.4793,-1.8003,
11.671346,-0.2905,0.9306,-0.3421,-12.3880,2.0180,7.3880,-0.3821,0.4793,-1.8003,
11.690563,-0.2905,0.9306,-0.3421,-7.6560,11.7310,15.1230,-0.3821,0.4793,-1.8003,
11.712205,-2.0970,2.5592,-0.1158,-7.6560,11.7310,15.1230,-0.3821,0.4793,-1.8003,
11.716532,-2.0970,2.5592,-0.1158,-7.6560,11.7310,15.1230,2.4018,-3.8497,-0.8383,
11.719844,-2.0970,2.5592,-0.1158,-16.0030,16.7450,1.3610,2.4018,-3.8497,-0.8383,
11.731278,-2.0970,2.5592,-0.1158,-21.0240,4.4620,-6.4120,2.4018,-3.8497,-0.8383,
11.753193,-2.0970,2.5592,-0.1158,-4.8390,-0.6280,0.5090,2.4018,-3.8497,-0.8383,
11.770552,-0.7246,1.1967,-0.0314,-4.8390,-0.6280,0.5090,2.4018,-3.8497,-0.8383,
11.774018,-0.7246,1.1967,-0.0314,-4.8390,-0.6280,0.5090,-1.3351,3.6604,1.5606,
11.776551,-0.7246,1.1967,-0.0314,-4.0110,2.8730,2.5740,-1.3351,3.6604,1.5606,
11.792719,-0.7246,1.1967,-0.0314,-6.3540,3.1660,5.1310,-1.3351,3.6604,1.5606,
11.810758,-0.7246,1.1967,-0.0314,-4.9290,-4.3680,6.2570,-1.3351,3.6604,1.5606,
11.834843,-0.5867,-0.1172,0.4412,-4.9290,-4.3680,6.2570,-1.3351,3.6604,1.5606,
11.839094,-0.5867,-0.1172,0.4412,-3.0700,-10.0600,7.4010,-1.3351,3.6604,1.5606,
11.851548,-0.5867,-0.1172,0.4412,-3.0700,-10.0600,7.4010,2.1268,0.1734,-1.0073,
11.855198,-0.5867,-0.1172,0.4412,0.2360,-11.4110,5.2990,2.1268,0.1734,-1.0073,
11.874042,-0.5867,-0.1172,0.4412,3.4800,-8.1110,-0.4760,2.1268,0.1734,-1.0073,
11.891589,0.1763,0.3313,-0.2087,3.4800,-8.1110,-0.4760,2.1268,0.1734,-1.0073,
11.893722,0.1763,0.3313,-0.2087,4.4880,-5.2200,2.0640,2.1268,0.1734,-1.0073,
11.914495,0.1763,0.3313,-0.2087,4.4880,-5.2200,2.0640,0.1988,4.3874,-1.8293,
11.918727,0.1763,0.3313,-0.2087,2.6520,-0.6620,9.2590,0.1988,4.3874,-1.8293,
11.933177,0.1763,0.3313,-0.2087,-2.3660,9.8200,10.2820,0.1988,4.3874,-1.8293,
11.954418,-1.5091,3.0120,0.0129,-2.3660,9.8200,10.2820,0.1988,4.3874,-1.8293,
11.956403,-1.5091,3.0120,0.0129,-10.7850,21.7440,4.5760,0.1988,4.3874,-1.8293,
11.976136,-1.5091,3.0120,0.0129,-10.7850,21.7440,4.5760,-0.3572,0.8004,-2.3374,
11.980215,-1.5091,3.0120,0.0129,-7.4390,11.8320,0.1490,-0.3572,0.8004,-2.3374,
11.995846,-1.5091,3.0120,0.0129,-7.7740,8.3660,-1.4320,-0.3572,0.8004,-2.3374,
12.014042,-1.4810,1.8886,-0.5672,-7.7740,8.3660,-1.4320,-0.3572,0.8004,-2.3374,
12.016304,-1.4810,1.8886,-0.5672,-10.2490,10.8610,-1.1100,-0.3572,0.8004,-2.3374,
12.035804,-1.4810,1.8886,-0.5672,-10.2490,10.8610,-1.1100,-1.9782,1.6994,-1.2323,
12.038016,-1.4810,1.8886,-0.5672,-5.0100,6.0150,6.5710,-1.9782,1.6994,-1.2323,
12.055220,-1.4810,1.8886,-0.5672,0.7820,0.7640,5.9500,-1.9782,1.6994,-1.2323,
12.075632,-0.1852,0.6221,-0.0165,0.7820,0.7640,5.9500,-1.9782,1.6994,-1.2323,
12.080128,-0.1852,0.6221,-0.0165,2.3930,-1.8290,3.8240,-1.9782,1.6994,-1.2323,
12.095006,-0.1852,0.6221,-0.0165,2.8900,-2.8390,4.5900,-1.9782,1.6994,-1.2323,
12.115690,-0.1852,0.6221,-0.0165,2.8900,-2.8390,4.5900,-1.9581,2.0813,0.9776,
12.120243,-0.1852,0.6221,-0.0165,4.3760,-4.1640,3.4450,-1.9581,2.0813,0.9776,
12.134930,-0.0366,0.1645,-0.4262,4.3760,-4.1640,3.4450,-1.9581,2.0813,0.9776,
12.137245,-0.0366,0.1645,-0.4262,2.8530,-7.0160,-0.7750,-1.9581,2.0813,0.9776,
12.156810,-0.0366,0.1645,-0.4262,-0.3870,-6.1930,-1.6010,-1.9581,2.0813,0.9776,
12.176085,-0.0366,0.1645,-0.4262,-0.3870,-6.1930,-1.6010,-1.1712,3.6543,0.8486,
12.179838,-0.0366,0.1645,-0.4262,-2.4800,-2.5930,-1.4120,-1.1712,3.6543,0.8486,
12.197144,-0.6569,0.6019,-0.3576,-2.4800,-2.5930,-1.4120,-1.1712,3.6543,0.8486,
12.201093,-0.6569,0.6019,-0.3576,-4.2220,-3.1070,-0.3040,-1.1712,3.6543,0.8486,
12.216698,-0.6569,0.6019,-0.3576,-2.6500,-3.0680,7.0520,-1.1712,3.6543,0.8486,
12.237878,-0.6569,0.6019,-0.3576,-2.6500,-3.0680,7.0520,-0.3142,1.3654,-1.0494,
12.242236,-0.6569,0.6019,-0.3576,-0.5860,-3.8840,6.5070,-0.3142,1.3654,-1.0494,
12.258753,0.0140,0.7321,-0.0860,-0.5860,-3.8840,6.5070,-0.3142,1.3654,-1.0494,
12.262721,0.0140,0.7321,-0.0860,2.8230,-1.7130,2.3530,-0.3142,1.3654,-1.0494,
12.278006,0.0140,0.7321,-0.0860,-7.6040,13.4890,15.9050,-0.3142,1.3654,-1.0494,
12.297912,0.0140,0.7321,-0.0860,-7.6040,13.4890,15.9050,0.0879,-1.3926,-0.2214,
12.301949,0.0140,0.7321,-0.0860,-12.1330,17.8940,11.8550,0.0879,-1.3926,-0.2214,
12.318480,0.2110,0.6298,-0.4472,-12.1330,17.8940,11.8550,0.0879,-1.3926,-0.2214,
12.320449,0.2110,0.6298,-0.4472,5.1230,-2.6400,-1.3490,0.0879,-1.3926,-0.2214,
12.339064,0.2110,0.6298,-0.4472,3.1370,-0.2220,7.7960,0.0879,-1.3926,-0.2214,
12.358675,0.2110,0.6298,-0.4472,-1.6430,10.0760,10.0300,0.0879,-1.3926,-0.2214,
12.378582,-0.2102,1.7769,0.0986,-1.6430,10.0760,10.0300,0.0879,-1.3926,-0.2214,
12.383252,-0.2102,1.7769,0.0986,-1.6430,10.0760,10.0300,-1.9892,-0.2317,0.4697,
12.386951,-0.2102,1.7769,0.0986,0.2680,8.1510,3.2130,-1.9892,-0.2317,0.4697,
12.399486,-0.2102,1.7769,0.0986,-1.8900,1.6070,3.1430,-1.9892,-0.2317,0.4697,
12.419409,-0.2102,1.7769,0.0986,-1.7390,-0.3890,1.6070,-1.9892,-0.2317,0.4697,
12.440935,-0.5042,0.7493,-0.3180,-1.7390,-0.3890,1.6070,-1.9892,-0.2317,0.4697,
12.442955,-0.5042,0.7493,-0.3180,-1.7390,-0.3890,1.6070,-1.7023,0.5423,1.4216,
12.444658,-0.5042,0.7493,-0.3180,-3.3360,-2.2350,-1.7200,-1.7023,0.5423,1.4216,
12.459395,-0.5042,0.7493,-0.3180,-3.8120,-3.6670,-0.1480,-1.7023,0.5423,1.4216,
12.481342,-0.5042,0.7493,-0.3180,-2.1830,-4.8980,-0.1390,-1.7023,0.5423,1.4216,
12.500362,-0.1571,0.3966,-0.0790,-2.1830,-4.8980,-0.1390,-1.7023,0.5423,1.4216,
12.504168,-0.1571,0.3966,-0.0790,-2.1830,-4.8980,-0.1390,-1.4092,0.5423,0.9306,
12.507013,-0.1571,0.3966,-0.0790,-0.6900,-5.8750,-0.2610,-1.4092,0.5423,0.9306,
12.520817,-0.1571,0.3966,-0.0790,-0.6560,-5.8140,0.9790,-1.4092,0.5423,0.9306,
12.541081,-0.1571,0.3966,-0.0790,-1.1790,-5.2810,1.0920,-1.4092,0.5423,0.9306,
12.561316,-0.2854,0.5720,0.0344,-1.1790,-5.2810,1.0920,-1.4092,0.5423,0.9306,
12.566711,-0.2854,0.5720,0.0344,-1.1790,-5.2810,1.0920,-1.0172,-0.1507,0.6226,
12.570121,-0.2854,0.5720,0.0344,-2.3470,-4.1980,0.2290,-1.0172,-0.1507,0.6226,
12.581137,-0.2854,0.5720,0.0344,-3.8380,-2.7960,-0.3380,-1.0172,-0.1507,0.6226,
12.602344,-0.2854,0.5720,0.0344,-4.6660,-1.8790,-0.3180,-1.0172,-0.1507,0.6226,
12.621723,-0.5210,0.8670,0.0530,-4.6660,-1.8790,-0.3180,-1.0172,-0.1507,0.6226,
12.625606,-0.5210,0.8670,0.0530,-5.0440,-1.2990,-0.1280,-1.0172,-0.1507,0.6226,
12.642385,-0.5210,0.8670,0.0530,-5.0440,-1.2990,-0.1280,-0.7811,-0.0627,0.6487,
12.647325,-0.5210,0.8670,0.0530,-5.4910,-0.8940,0.1930,-0.7811,-0.0627,0.6487,
12.661865,-0.5210,0.8670,0.0530,-6.2150,-0.7220,0.2250,-0.7811,-0.0627,0.6487,
12.682184,-0.6647,0.9292,0.0754,-6.2150,-0.7220,0.2250,-0.7811,-0.0627,0.6487,
12.686282,-0.6647,0.9292,0.0754,-6.6780,-0.6660,-0.1480,-0.7811,-0.0627,0.6487,
12.702022,-0.6647,0.9292,0.0754,-6.6780,-0.6660,-0.1480,0.4938,0.6324,-0.2163,
12.704038,-0.6647,0.9292,0.0754,-6.8390,0.1670,-0.1340,0.4938,0.6324,-0.2163,
12.723191,-0.6647,0.9292,0.0754,-5.8720,0.6380,-0.1440,0.4938,0.6324,-0.2163,
12.742638,-0.4296,0.8766,0.0781,-5.8720,0.6380,-0.1440,0.4938,0.6324,-0.2163,
12.744890,-0.4296,0.8766,0.0781,-4.0490,-1.2240,0.7770,0.4938,0.6324,-0.2163,
12.764164,-0.4296,0.8766,0.0781,-4.0490,-1.2240,0.7770,2.9998,2.0083,-1.1293,
12.768101,-0.4296,0.8766,0.0781,-3.6450,-3.7330,2.0240,2.9998,2.0083,-1.1293,
12.783026,-0.4296,0.8766,0.0781,-2.8820,-2.8500,4.0970,2.9998,2.0083,-1.1293,
12.803876,-0.5729,1.4008,0.5006,-2.8820,-2.8500,4.0970,2.9998,2.0083,-1.1293,
12.806785,-0.5729,1.4008,0.5006,-4.4400,4.1230,6.5750,2.9998,2.0083,-1.1293,
12.823786,-0.5729,1.4008,0.5006,-4.4400,4.1230,6.5750,1.6598,-1.4726,-2.8593,
12.825858,-0.5729,1.4008,0.5006,-8.1900,10.6860,3.9080,1.6598,-1.4726,-2.8593,
12.844955,-0.5729,1.4008,0.5006,-7.9300,11.8640,1.9910,1.6598,-1.4726,-2.8593,
12.864420,-0.6088,1.8556,0.0926,-7.9300,11.8640,1.9910,1.6598,-1.4726,-2.8593,
12.868395,-0.6088,1.8556,0.0926,-3.4050,9.0460,3.3750,1.6598,-1.4726,-2.8593,
12.885868,-0.6088,1.8556,0.0926,-0.8430,2.8420,-0.1170,1.6598,-1.4726,-2.8593,
12.904667,-0.6088,1.8556,0.0926,-0.8430,2.8420,-0.1170,-0.7561,3.3063,-2.1583,
12.908295,-0.6088,1.8556,0.0926,-2.5150,-1.0880,-0.8940,-0.7561,3.3063,-2.1583,
12.925503,-0.8658,0.8441,-0.2547,-2.5150,-1.0880,-0.8940,-0.7561,3.3063,-2.1583,
12.929212,-0.8658,0.8441,-0.2547,-5.2430,-0.6160,0.1200,-0.7561,3.3063,-2.1583,
12.945000,-0.8658,0.8441,-0.2547,-3.2480,-1.2210,2.0660,-0.7561,3.3063,-2.1583,
12.966863,-0.8658,0.8441,-0.2547,-3.2480,-1.2210,2.0660,-1.4462,3.9244,-1.3713,
12.970645,-0.8658,0.8441,-0.2547,0.0140,-2.6600,5.6900,-1.4462,3.9244,-1.3713,
12.985809,-0.0032,0.5846,0.6185,0.0140,-2.6600,5.6900,-1.4462,3.9244,-1.3713,
12.987940,-0.0032,0.5846,0.6185,3.3940,-3.0720,8.7200,-1.4462,3.9244,-1.3713,
13.006796,-0.0032,0.5846,0.6185,4.6490,-3.7520,9.4340,-1.4462,3.9244,-1.3713,
13.026073,-0.0032,0.5846,0.6185,4.6490,-3.7520,9.4340,-0.6452,2.3173,-0.6883,
13.028213,-0.0032,0.5846,0.6185,4.7770,-3.9530,3.8310,-0.6452,2.3173,-0.6883,
13.046368,0.1145,0.6070,-0.5809,4.7770,-3.9530,3.8310,-0.6452,2.3173,-0.6883,
13.050396,0.1145,0.6070,-0.5809,4.5350,-2.8350,-2.9390,-0.6452,2.3173,-0.6883,
13.067028,0.1145,0.6070,-0.5809,2.2350,-2.5520,-0.7380,-0.6452,2.3173,-0.6883,
13.087481,0.1145,0.6070,-0.5809,2.2350,-2.5520,-0.7380,-1.5001,1.1773,-0.1893,
13.088988,0.1145,0.6070,-0.5809,-0.4610,-2.8700,3.1000,-1.5001,1.1773,-0.1893,
13.107136,-0.3898,0.6141,-0.0680,-0.4610,-2.8700,3.1000,-1.5001,1.1773,-0.1893,
13.109381,-0.3898,0.6141,-0.0680,-0.4450,-2.9450,1.5080,-1.5001,1.1773,-0.1893,
13.127492,-0.3898,0.6141,-0.0680,0.3040,-2.4090,-1.4160,-1.5001,1.1773,-0.1893,
13.147578,-0.3898,0.6141,-0.0680,0.3890,-1.6640,-1.8100,-1.5001,1.1773,-0.1893,
13.168204,-0.2812,0.8387,-0.2771,0.3890,-1.6640,-1.8100,-1.5001,1.1773,-0.1893,
13.172595,-0.2812,0.8387,-0.2771,0.3890,-1.6640,-1.8100,-1.3482,0.1653,0.6837,
13.175303,-0.2812,0.8387,-0.2771,0.2840,-0.9900,-1.2120,-1.3482,0.1653,0.6837,
13.187686,-0.2812,0.8387,-0.2771,0.4250,-0.6630,-1.8820,-1.3482,0.1653,0.6837,
13.208404,-0.2812,0.8387,-0.2771,-0.1130,0.1700,-2.7570,-1.3482,0.1653,0.6837,
13.228091,-0.5403,1.0958,-0.2256,-0.1130,0.1700,-2.7570,-1.3482,0.1653,0.6837,
13.231000,-0.5403,1.0958,-0.2256,-0.1130,0.1700,-2.7570,-0.5482,0.1004,-0.0494,
13.232471,-0.5403,1.0958,-0.2256,-2.4540,1.3900,-1.2640,-0.5482,0.1004,-0.0494,
13.248781,-0.5403,1.0958,-0.2256,-5.6560,-0.4370,-0.2730,-0.5482,0.1004,-0.0494,
13.268882,-0.5403,1.0958,-0.2256,-3.8960,-3.8920,-0.7040,-0.5482,0.1004,-0.0494,
13.289778,-0.2372,0.5252,-0.2726,-3.8960,-3.8920,-0.7040,-0.5482,0.1004,-0.0494,
13.291234,-0.2372,0.5252,-0.2726,-3.8960,-3.8920,-0.7040,-0.7762,-1.9777,-0.0924,
13.292039,-0.2372,0.5252,-0.2726,0.6790,-4.1930,-2.2460,-0.7762,-1.9777,-0.0924,
13.308759,-0.2372,0.5252,-0.2726,0.8510,0.3310,-1.7000,-0.7762,-1.9777,-0.0924,
13.330998,-0.2372,0.5252,-0.2726,-3.0680,10.2820,6.2170,-0.7762,-1.9777,-0.0924,
13.350686,-1.0599,2.6298,0.8394,-3.0680,10.2820,6.2170,-0.7762,-1.9777,-0.0924,
13.352712,-1.0599,2.6298,0.8394,-3.0680,10.2820,6.2170,0.8548,-1.0956,-0.1034,
13.354348,-1.0599,2.6298,0.8394,-7.3260,16.4500,8.2120,0.8548,-1.0956,-0.1034,
13.370368,-1.0599,2.6298,0.8394,-4.2630,2.2940,-2.6060,0.8548,-1.0956,-0.1034,
13.391046,-1.0599,2.6298,0.8394,-1.9320,-8.9600,-2.0720,0.8548,-1.0956,-0.1034,
13.411351,-0.1735,0.0289,0.0421,-1.9320,-8.9600,-2.0720,0.8548,-1.0956,-0.1034,
13.414361,-0.1735,0.0289,0.0421,0.9300,-9.1760,0.2640,0.8548,-1.0956,-0.1034,
13.430614,-0.1735,0.0289,0.0421,0.9300,-9.1760,0.2640,-2.5352,2.3833,0.9507,
13.432736,-0.1735,0.0289,0.0421,1.3420,-4.5460,4.0930,-2.5352,2.3833,0.9507,
13.451176,-0.1735,0.0289,0.0421,-3.3320,2.5610,2.9470,-2.5352,2.3833,0.9507,
13.471396,-0.6887,1.3453,0.0018,-3.3320,2.5610,2.9470,-2.5352,2.3833,0.9507,
13.475061,-0.6887,1.3453,0.0018,-4.4930,3.6840,-1.0460,-2.5352,2.3833,0.9507,
13.492312,-0.6887,1.3453,0.0018,-4.4930,3.6840,-1.0460,-0.4942,0.3344,0.5647,
13.494533,-0.6887,1.3453,0.0018,-0.5180,-0.3590,-0.7380,-0.4942,0.3344,0.5647,
13.511486,-0.6887,1.3453,0.0018,0.3340,-2.7300,-3.5690,-0.4942,0.3344,0.5647,
13.532348,-0.2847,0.6419,-0.0438,0.3340,-2.7300,-3.5690,-0.4942,0.3344,0.5647,
13.534532,-0.2847,0.6419,-0.0438,-0.7700,-3.2160,-1.8270,-0.4942,0.3344,0.5647,
13.553057,-0.2847,0.6419,-0.0438,-0.7700,-3.2160,-1.8270,-0.6891,0.2144,0.4206,
13.557245,-0.2847,0.6419,-0.0438,-0.9920,-2.8850,-0.1550,-0.6891,0.2144,0.4206,
13.572957,-0.2847,0.6419,-0.0438,-1.8180,-2.6370,-0.5450,-0.6891,0.2144,0.4206,
13.592546,-0.5672,0.7947,-0.0185,-1.8180,-2.6370,-0.5450,-0.6891,0.2144,0.4206,
13.595076,-0.5672,0.7947,-0.0185,-3.7670,-1.7090,-1.8990,-0.6891,0.2144,0.4206,
13.613621,-0.5672,0.7947,-0.0185,-3.7670,-1.7090,-1.8990,-0.1492,0.0414,0.1126,
13.617374,-0.5672,0.7947,-0.0185,-5.4960,-1.1900,-2.1660,-0.1492,0.0414,0.1126,
13.632980,-0.5672,0.7947,-0.0185,-6.2150,-1.8840,-1.3770,-0.1492,0.0414,0.1126,
13.654426,-0.7996,0.7465,0.0473,-6.2150,-1.8840,-1.3770,-0.1492,0.0414,0.1126,
13.658498,-0.7996,0.7465,0.0473,-5.9830,-2.1670,-1.2400,-0.1492,0.0414,0.1126,
13.675513,-0.7996,0.7465,0.0473,-4.8640,-1.9240,-0.7830,-0.1492,0.0414,0.1126,
13.695895,-0.7996,0.7465,0.0473,-4.8640,-1.9240,-0.7830,0.7198,0.9463,-1.1283,
13.699827,-0.7996,0.7465,0.0473,-2.9980,-2.5680,0.2820,0.7198,0.9463,-1.1283,
13.715492,-0.4012,0.5300,0.2988,-2.9980,-2.5680,0.2820,0.7198,0.9463,-1.1283,
13.719619,-0.4012,0.5300,0.2988,-1.1440,-4.1620,1.9150,0.7198,0.9463,-1.1283,
13.736207,-0.4012,0.5300,0.2988,-0.4240,-5.4120,1.6660,0.7198,0.9463,-1.1283,
13.754363,-0.4012,0.5300,0.2988,-0.4240,-5.4120,1.6660,3.5208,-0.1376,-3.3503,
13.758215,-0.4012,0.5300,0.2988,1.7710,-4.4250,-3.8780,3.5208,-0.1376,-3.3503,
13.777394,0.0894,0.6666,-1.2051,1.7710,-4.4250,-3.8780,3.5208,-0.1376,-3.3503,
13.779536,0.0894,0.6666,-1.2051,5.1990,-2.2530,-11.1820,3.5208,-0.1376,-3.3503,
13.794171,0.0894,0.6666,-1.2051,9.5000,-3.8610,-2.3620,3.5208,-0.1376,-3.3503,
13.816070,0.0894,0.6666,-1.2051,9.5000,-3.8610,-2.3620,1.0779,2.9513,-1.9924,
13.819927,0.0894,0.6666,-1.2051,7.9120,-8.2320,12.4730,1.0779,2.9513,-1.9924,
13.834228,-0.2439,-0.1425,0.6981,7.9120,-8.2320,12.4730,1.0779,2.9513,-1.9924,
13.836352,-0.2439,-0.1425,0.6981,2.7000,-9.5760,8.6520,1.0779,2.9513,-1.9924,
13.857620,-0.2439,-0.1425,0.6981,0.7990,-6.8140,5.1920,1.0779,2.9513,-1.9924,
13.874655,-0.2439,-0.1425,0.6981,0.7990,-6.8140,5.1920,0.6468,-2.2066,-1.2224,
13.876714,-0.2439,-0.1425,0.6981,2.2590,1.3300,1.6290,0.6468,-2.2066,-1.2224,
13.898631,-0.6635,1.8192,-0.7125,2.2590,1.3300,1.6290,0.6468,-2.2066,-1.2224,
13.902507,-0.6635,1.8192,-0.7125,-0.8210,10.0960,-4.8790,0.6468,-2.2066,-1.2224,
13.915761,-0.6635,1.8192,-0.7125,-7.2340,11.1960,-6.4920,0.6468,-2.2066,-1.2224,
13.938715,-0.6635,1.8192,-0.7125,-2.2850,4.6760,-6.5760,0.6468,-2.2066,-1.2224,
13.959121,-0.5538,0.6918,-0.8605,-2.2850,4.6760,-6.5760,0.6468,-2.2066,-1.2224,
13.963425,-0.5538,0.6918,-0.8605,-2.2850,4.6760,-6.5760,-2.2001,-2.2386,1.2837,
13.966895,-0.5538,0.6918,-0.8605,-0.0430,-1.3770,-7.4930,-2.2001,-2.2386,1.2837,
13.979289,-0.5538,0.6918,-0.8605,0.0920,-3.4880,-2.9390,-2.2001,-2.2386,1.2837,
13.998022,-0.5538,0.6918,-0.8605,-2.6110,-1.5450,1.2510,-2.2001,-2.2386,1.2837,
14.019089,-1.1806,1.1330,-0.0340,-2.6110,-1.5450,1.2510,-2.2001,-2.2386,1.2837,
14.020665,-1.1806,1.1330,-0.0340,-2.6110,-1.5450,1.2510,-0.6823,-1.3467,2.2356,
14.023242,-1.1806,1.1330,-0.0340,-7.1620,2.3390,-0.5310,-0.6823,-1.3467,2.2356,
14.038189,-1.1806,1.1330,-0.0340,-5.9410,4.6600,-5.5350,-0.6823,-1.3467,2.2356,
14.059111,-1.1806,1.1330,-0.0340,-1.3010,-1.3260,-6.4850,-0.6823,-1.3467,2.2356,
14.077974,-0.2812,-0.0498,-0.1829,-1.3010,-1.3260,-6.4850,-0.6823,-1.3467,2.2356,
14.082008,-0.2812,-0.0498,-0.1829,-1.3010,-1.3260,-6.4850,-2.3002,2.2044,1.3326,
14.084190,-0.2812,-0.0498,-0.1829,0.8280,-9.5640,-2.6580,-2.3002,2.2044,1.3326,
14.100388,-0.2812,-0.0498,-0.1829,1.2610,-13.4710,1.0210,-2.3002,2.2044,1.3326,
14.118082,-0.2812,-0.0498,-0.1829,3.3570,-14.9580,2.8940,-2.3002,2.2044,1.3326,
14.140722,0.6786,0.0795,0.1709,3.3570,-14.9580,2.8940,-2.3002,2.2044,1.3326,
14.142890,0.6786,0.0795,0.1709,3.3570,-14.9580,2.8940,-0.0022,1.2013,-0.9813,
14.144532,0.6786,0.0795,0.1709,9.7710,-8.4580,0.6060,-0.0022,1.2013,-0.9813,
14.159383,0.6786,0.0795,0.1709,4.5970,0.1500,-2.1380,-0.0022,1.2013,-0.9813,
14.181233,0.6786,0.0795,0.1709,-7.5010,6.8960,4.2820,-0.0022,1.2013,-0.9813,
14.199853,-2.0147,2.4670,0.3240,-7.5010,6.8960,4.2820,-0.0022,1.2013,-0.9813,
14.203705,-2.0147,2.4670,0.3240,-16.1110,15.2290,1.4430,-0.0022,1.2013,-0.9813,
14.221780,-2.0147,2.4670,0.3240,-16.1110,15.2290,1.4430,1.2328,-8.3687,-1.2334,
14.224032,-2.0147,2.4670,0.3240,-16.7820,12.5620,-1.0140,1.2328,-8.3687,-1.2334,
14.240955,-2.0147,2.4670,0.3240,-12.9460,-1.7560,-3.3860,1.2328,-8.3687,-1.2334,
14.263026,-0.8199,0.7067,-0.4956,-12.9460,-1.7560,-3.3860,1.2328,-8.3687,-1.2334,
14.268136,-0.8199,0.7067,-0.4956,-4.3480,-2.0500,-6.3370,1.2328,-8.3687,-1.2334,
14.279559,-0.8199,0.7067,-0.4956,-4.3480,-2.0500,-6.3370,0.3338,3.3084,-0.7693,
14.283258,-0.8199,0.7067,-0.4956,-2.1190,1.4370,-0.1150,0.3338,3.3084,-0.7693,
14.302947,-0.8199,0.7067,-0.4956,-1.7590,-0.8200,1.9610,0.3338,3.3084,-0.7693,
14.320585,-0.3600,0.4927,0.1875,-1.7590,-0.8200,1.9610,0.3338,3.3084,-0.7693,
14.323054,-0.3600,0.4927,0.1875,1.1160,-3.8060,1.4370,0.3338,3.3084,-0.7693,
14.343587,-0.3600,0.4927,0.1875,1.1160,-3.8060,1.4370,2.3977,0.7883,-1.6734,
14.345772,-0.3600,0.4927,0.1875,4.7360,-3.7440,0.6770,2.3977,0.7883,-1.6734,
14.361448,-0.3600,0.4927,0.1875,9.0750,-4.7110,-0.1000,2.3977,0.7883,-1.6734,
14.384604,0.5251,0.1673,0.0211,9.0750,-4.7110,-0.1000,2.3977,0.7883,-1.6734,
14.388738,0.5251,0.1673,0.0211,10.5740,-6.4710,1.1430,2.3977,0.7883,-1.6734,
14.401064,0.5251,0.1673,0.0211,10.5740,-6.4710,1.1430,0.9098,-0.2106,-1.5524,
14.403049,0.5251,0.1673,0.0211,6.2290,-3.7450,3.5340,0.9098,-0.2106,-1.5524,
14.424527,0.5251,0.1673,0.0211,2.3320,1.4960,2.8110,0.9098,-0.2106,-1.5524,
14.442477,-0.9382,1.3324,-0.1631,2.3320,1.4960,2.8110,0.9098,-0.2106,-1.5524,
14.447486,-0.9382,1.3324,-0.1631,-3.0170,5.4940,-0.6100,0.9098,-0.2106,-1.5524,
14.465059,-0.9382,1.3324,-0.1631,-6.8630,6.2200,-6.0300,0.9098,-0.2106,-1.5524,
14.482714,-0.9382,1.3324,-0.1631,-6.8630,6.2200,-6.0300,-1.2992,-0.1756,0.3847,
14.485803,-0.9382,1.3324,-0.1631,-4.9910,6.1710,-10.3030,-1.2992,-0.1756,0.3847,
14.505450,-0.9991,1.1247,-0.7671,-4.9910,6.1710,-10.3030,-1.2992,-0.1756,0.3847,
14.507594,-0.9991,1.1247,-0.7671,-3.8840,3.1820,-7.3960,-1.2992,-0.1756,0.3847,
14.524409,-0.9991,1.1247,-0.7671,0.5020,-1.0240,-2.0890,-1.2992,-0.1756,0.3847,
14.545521,-0.9991,1.1247,-0.7671,0.5020,-1.0240,-2.0890,-1.0692,-1.9217,2.5517,
14.547752,-0.9991,1.1247,-0.7671,1.8540,-4.1910,0.9000,-1.0692,-1.9217,2.5517,
14.563798,-0.3734,0.6481,0.1069,1.8540,-4.1910,0.9000,-1.0692,-1.9217,2.5517,
14.567958,-0.3734,0.6481,0.1069,1.0050,-2.2340,0.1090,-1.0692,-1.9217,2.5517,
14.586329,-0.3734,0.6481,0.1069,0.1580,1.1530,-3.2260,-1.0692,-1.9217,2.5517,
14.603659,-0.3734,0.6481,0.1069,0.1580,1.1530,-3.2260,-1.6422,0.2834,1.7787,
14.606170,-0.3734,0.6481,0.1069,-0.5910,-2.7710,-7.7710,-1.6422,0.2834,1.7787,
14.627461,-0.3067,-0.1397,-0.3977,-0.5910,-2.7710,-7.7710,-1.6422,0.2834,1.7787,
14.630692,-0.3067,-0.1397,-0.3977,0.7280,-10.2950,-5.4710,-1.6422,0.2834,1.7787,
14.644473,-0.3067,-0.1397,-0.3977,1.8950,-13.6880,0.0720,-1.6422,0.2834,1.7787,
14.666711,-0.3067,-0.1397,-0.3977,1.8950,-13.6880,0.0720,0.5378,0.5254,-0.6073,
14.671008,-0.3067,-0.1397,-0.3977,4.3940,-11.7840,3.7280,0.5378,0.5254,-0.6073,
14.684562,-0.0034,0.2246,0.2986,4.3940,-11.7840,3.7280,0.5378,0.5254,-0.6073,
14.686628,-0.0034,0.2246,0.2986,3.7890,-6.7120,1.3990,0.5378,0.5254,-0.6073,
14.707631,-0.0034,0.2246,0.2986,-1.7250,-2.0010,-0.1800,0.5378,0.5254,-0.6073,
14.725838,-0.0034,0.2246,0.2986,-4.4000,5.7950,-0.6020,0.5378,0.5254,-0.6073,
14.747620,-2.3437,2.6841,0.1616,-4.4000,5.7950,-0.6020,0.5378,0.5254,-0.6073,
14.752020,-2.3437,2.6841,0.1616,-4.4000,5.7950,-0.6020,-0.0532,-8.1597,-1.8833,
14.755830,-2.3437,2.6841,0.1616,-18.9340,17.6730,-0.7660,-0.0532,-8.1597,-1.8833,
14.765828,-2.3437,2.6841,0.1616,-22.7080,7.3740,5.6490,-0.0532,-8.1597,-1.8833,
14.788741,-2.3437,2.6841,0.1616,-6.9930,-1.9310,-11.3960,-0.0532,-8.1597,-1.8833,
14.809118,-0.7236,1.2085,-0.4534,-6.9930,-1.9310,-11.3960,-0.0532,-8.1597,-1.8833,
14.813398,-0.7236,1.2085,-0.4534,-6.9930,-1.9310,-11.3960,-1.1942,5.3224,0.8287,
14.816815,-0.7236,1.2085,-0.4534,-3.1600,3.0290,-6.2380,-1.1942,5.3224,0.8287,
14.828538,-0.7236,1.2085,-0.4534,-2.9940,2.7860,1.3830,-1.1942,5.3224,0.8287,
14.846930,-0.7236,1.2085,-0.4534,-0.6400,-3.6240,3.7540,-1.1942,5.3224,0.8287,
14.869425,-0.1268,0.2456,0.6126,-0.6400,-3.6240,3.7540,-1.1942,5.3224,0.8287,
14.873515,-0.1268,0.2456,0.6126,-0.6400,-3.6240,3.7540,2.7719,0.0323,-1.9744,
14.876913,-0.1268,0.2456,0.6126,3.5350,-6.1180,5.0620,2.7719,0.0323,-1.9744,
14.887329,-0.1268,0.2456,0.6126,6.2630,-3.5200,0.6040,2.7719,0.0323,-1.9744,
14.910411,-0.1268,0.2456,0.6126,7.5540,-1.8680,-2.8430,2.7719,0.0323,-1.9744,
14.927736,0.1295,0.4856,-0.1317,7.5540,-1.8680,-2.8430,2.7719,0.0323,-1.9744,
14.932535,0.1295,0.4856,-0.1317,7.5540,-1.8680,-2.8430,0.2777,1.6163,-1.0904,
14.935564,0.1295,0.4856,-0.1317,6.8510,-3.3050,-1.0830,0.2777,1.6163,-1.0904,
14.951213,0.1295,0.4856,-0.1317,4.3130,-1.3250,0.8170,0.2777,1.6163,-1.0904,
14.968204,0.1295,0.4856,-0.1317,1.9540,2.6570,3.1990,0.2777,1.6163,-1.0904,
14.991296,-0.5880,1.1571,0.1690,1.9540,2.6570,3.1990,0.2777,1.6163,-1.0904,
14.995282,-0.5880,1.1571,0.1690,-0.0170,3.3840,1.5010,0.2777,1.6163,-1.0904,
15.010269,-0.5880,1.1571,0.1690,-0.0170,3.3840,1.5010,-0.4153,-1.8176,0.4137,
15.015183,-0.5880,1.1571,0.1690,-1.2320,3.0950,-4.2600,-0.4153,-1.8176,0.4137,
15.030901,-0.5880,1.1571,0.1690,-3.4460,4.7220,-9.3390,-0.4153,-1.8176,0.4137,
15.049370,-0.7532,1.1222,-0.8500,-3.4460,4.7220,-9.3390,-0.4153,-1.8176,0.4137,
15.053509,-0.7532,1.1222,-0.8500,-2.4030,2.5640,-9.0330,-0.4153,-1.8176,0.4137,
15.071483,-0.7532,1.1222,-0.8500,-2.4030,2.5640,-9.0330,-1.7463,-0.5446,2.2947,
15.074828,-0.7532,1.1222,-0.8500,-2.6350,1.3970,-2.5880,-1.7463,-0.5446,2.2947,
15.091190,-0.7532,1.1222,-0.8500,-4.4830,1.5210,-1.8600,-1.7463,-0.5446,2.2947,
15.111987,-0.5081,0.6581,-0.2960,-4.4830,1.5210,-1.8600,-1.7463,-0.5446,2.2947,
15.116396,-0.5081,0.6581,-0.2960,-1.1080,-2.4660,-4.2580,-1.7463,-0.5446,2.2947,
15.131327,-0.5081,0.6581,-0.2960,-1.1080,-2.4660,-4.2580,-0.6341,0.0014,1.4096,
15.135664,-0.5081,0.6581,-0.2960,3.6000,-7.7600,-6.3590,-0.6341,0.0014,1.4096,
15.152411,-0.5081,0.6581,-0.2960,4.2250,-11.7040,-2.8780,-0.6341,0.0014,1.4096,
15.171218,0.0796,-0.3670,0.2416,4.2250,-11.7040,-2.8780,-0.6341,0.0014,1.4096,
15.175732,0.0796,-0.3670,0.2416,4.2680,-12.6320,0.8350,-0.6341,0.0014,1.4096,
15.193149,0.0796,-0.3670,0.2416,4.2680,-12.6320,0.8350,-0.3542,2.3063,-0.5433,
15.197214,0.0796,-0.3670,0.2416,2.0510,-8.0880,4.4160,-0.3542,2.3063,-0.5433,
15.210935,0.0796,-0.3670,0.2416,-0.8190,-3.3740,5.3810,-0.3542,2.3063,-0.5433,
15.233763,-0.6400,1.1393,-0.0990,-0.8190,-3.3740,5.3810,-0.3542,2.3063,-0.5433,
15.237778,-0.6400,1.1393,-0.0990,-2.4250,2.3280,-2.8430,-0.3542,2.3063,-0.5433,
15.251322,-0.6400,1.1393,-0.0990,-11.8320,16.4690,-0.6920,-0.3542,2.3063,-0.5433,
15.274770,-0.6400,1.1393,-0.0990,-11.8320,16.4690,-0.6920,2.7798,-6.7907,-1.0843,
15.278837,-0.6400,1.1393,-0.0990,-23.6230,16.3890,8.3150,2.7798,-6.7907,-1.0843,
15.293010,-1.3065,0.6568,-0.7302,-23.6230,16.3890,8.3150,2.7798,-6.7907,-1.0843,
15.298064,-1.3065,0.6568,-0.7302,-9.0190,-2.4350,-8.9620,2.7798,-6.7907,-1.0843,
15.314437,-1.3065,0.6568,-0.7302,-1.6090,-3.4920,-6.6480,2.7798,-6.7907,-1.0843,
15.332508,-1.3065,0.6568,-0.7302,-1.6090,-3.4920,-6.6480,0.9258,3.2993,-1.1703,
15.336689,-1.3065,0.6568,-0.7302,-2.1040,-1.2090,0.8520,0.9258,3.2993,-1.1703,
15.354997,-0.5965,0.4223,0.0847,-2.1040,-1.2090,0.8520,0.9258,3.2993,-1.1703,
15.357600,-0.5965,0.4223,0.0847,-1.3080,-4.5440,0.1790,0.9258,3.2993,-1.1703,
15.374934,-0.5965,0.4223,0.0847,3.1620,-6.5870,1.5930,0.9258,3.2993,-1.1703,
15.395868,-0.5965,0.4223,0.0847,3.1620,-6.5870,1.5930,1.5518,2.0144,-1.1824,
15.401194,-0.5965,0.4223,0.0847,5.5500,-4.9980,4.6670,1.5518,2.0144,-1.1824,
15.415147,0.1278,0.5486,0.3484,5.5500,-4.9980,4.6670,1.5518,2.0144,-1.1824,
15.419652,0.1278,0.5486,0.3484,6.4000,-2.9540,3.9420,1.5518,2.0144,-1.1824,
15.436286,0.1278,0.5486,0.3484,7.7350,-1.4370,2.0160,1.5518,2.0144,-1.1824,
15.456323,0.1278,0.5486,0.3484,7.7350,-1.4370,2.0160,-0.3462,-2.1457,-0.6904,
15.460537,0.1278,0.5486,0.3484,6.1560,3.6470,-2.5600,-0.3462,-2.1457,-0.6904,
15.476422,-0.7535,1.4753,-0.1934,6.1560,3.6470,-2.5600,-0.3462,-2.1457,-0.6904,
15.482049,-0.7535,1.4753,-0.1934,-1.8480,6.3550,-1.7660,-0.3462,-2.1457,-0.6904,
15.494981,-0.7535,1.4753,-0.1934,-5.6640,6.6290,-2.0550,-0.3462,-2.1457,-0.6904,
15.515713,-0.7535,1.4753,-0.1934,-4.8270,6.6520,-7.7520,-0.3462,-2.1457,-0.6904,
15.534858,-0.6053,1.0787,-0.6389,-4.8270,6.6520,-7.7520,-0.3462,-2.1457,-0.6904,
15.537223,-0.6053,1.0787,-0.6389,-4.8270,6.6520,-7.7520,-1.5632,0.0953,1.5727,
15.539717,-0.6053,1.0787,-0.6389,-0.9220,2.1500,-6.7670,-1.5632,0.0953,1.5727,
15.556129,-0.6053,1.0787,-0.6389,1.0440,-2.8650,-5.4690,-1.5632,0.0953,1.5727,
15.575804,-0.6053,1.0787,-0.6389,0.1040,-6.4670,-3.9440,-1.5632,0.0953,1.5727,
15.597433,-0.5051,-0.1710,-0.1946,0.1040,-6.4670,-3.9440,-1.5632,0.0953,1.5727,
15.600052,-0.5051,-0.1710,-0.1946,0.1040,-6.4670,-3.9440,-1.7863,1.9903,2.0907,
15.601796,-0.5051,-0.1710,-0.1946,-0.9070,-10.5220,-3.1760,-1.7863,1.9903,2.0907,
15.617587,-0.5051,-0.1710,-0.1946,0.6990,-13.4770,-4.0090,-1.7863,1.9903,2.0907,
15.637609,-0.5051,-0.1710,-0.1946,5.0510,-12.9440,-2.8210,-1.7863,1.9903,2.0907,
15.657467,0.5286,0.3147,0.2753,5.0510,-12.9440,-2.8210,-1.7863,1.9903,2.0907,
15.661024,0.5286,0.3147,0.2753,5.0510,-12.9440,-2.8210,1.9689,0.5554,-0.8444,
15.664783,0.5286,0.3147,0.2753,8.9020,-5.9240,1.5900,1.9689,0.5554,-0.8444,
15.678149,0.5286,0.3147,0.2753,0.8690,-1.8260,-0.3160,1.9689,0.5554,-0.8444,
15.697296,0.5286,0.3147,0.2753,-2.7200,2.0840,1.6930,1.9689,0.5554,-0.8444,
15.718747,-1.5453,2.2102,0.6262,-2.7200,2.0840,1.6930,1.9689,0.5554,-0.8444,
15.723049,-1.5453,2.2102,0.6262,-2.7200,2.0840,1.6930,3.4008,-7.5806,-2.1633,
15.726449,-1.5453,2.2102,0.6262,-10.8800,12.9350,4.6980,3.4008,-7.5806,-2.1633,
15.737498,-1.5453,2.2102,0.6262,-27.8150,9.4670,5.1270,3.4008,-7.5806,-2.1633,
15.759627,-1.5453,2.2102,0.6262,-14.0040,-3.4820,-11.9590,3.4008,-7.5806,-2.1633,
15.778835,-0.7693,0.6708,-0.2141,-14.0040,-3.4820,-11.9590,3.4008,-7.5806,-2.1633,
15.783513,-0.7693,0.6708,-0.2141,-3.1310,-2.1850,-2.5820,3.4008,-7.5806,-2.1633,
15.799521,-0.7693,0.6708,-0.2141,-3.1310,-2.1850,-2.5820,0.0588,5.1744,-1.1003,
15.804087,-0.7693,0.6708,-0.2141,-3.6250,-2.2290,0.1050,0.0588,5.1744,-1.1003,
15.818943,-0.7693,0.6708,-0.2141,-2.0990,-6.0780,0.4800,0.0588,5.1744,-1.1003,
15.841528,-0.3688,0.3504,0.4901,-2.0990,-6.0780,0.4800,0.0588,5.1744,-1.1003,
15.845664,-0.3688,0.3504,0.4901,1.5680,-4.8620,5.5420,0.0588,5.1744,-1.1003,
15.859146,-0.3688,0.3504,0.4901,1.5680,-4.8620,5.5420,0.4509,0.7463,-1.4623,
15.860786,-0.3688,0.3504,0.4901,4.7250,-1.8950,6.9170,0.4509,0.7463,-1.4623,
15.881654,-0.3688,0.3504,0.4901,7.9760,-0.0870,2.9760,0.4509,0.7463,-1.4623,
15.900073,0.1358,1.4348,-0.2078,7.9760,-0.0870,2.9760,0.4509,0.7463,-1.4623,
15.904548,0.1358,1.4348,-0.2078,7.1900,6.2230,-1.4280,0.4509,0.7463,-1.4623,
15.920808,0.1358,1.4348,-0.2078,7.1900,6.2230,-1.4280,-1.3052,-0.8927,-1.0874,
15.924319,0.1358,1.4348,-0.2078,0.0400,10.1140,-0.4440,-1.3052,-0.8927,-1.0874,
15.940575,0.1358,1.4348,-0.2078,-3.7980,10.1890,-2.8100,-1.3052,-0.8927,-1.0874,
15.961469,-1.1948,1.3952,-0.7720,-3.7980,10.1890,-2.8100,-1.3052,-0.8927,-1.0874,
15.964789,-1.1948,1.3952,-0.7720,-5.4810,6.0810,-7.8040,-1.3052,-0.8927,-1.0874,
15.980944,-1.1948,1.3952,-0.7720,-5.4810,6.0810,-7.8040,-1.0292,0.4643,0.7096,
15.984762,-1.1948,1.3952,-0.7720,0.1620,0.4390,-4.6370,-1.0292,0.4643,0.7096,
16.001977,-1.1948,1.3952,-0.7720,0.2110,-3.3970,-1.7110,-1.0292,0.4643,0.7096,
16.021497,-0.7163,0.4376,-0.3089,0.2110,-3.3970,-1.7110,-1.0292,0.4643,0.7096,
16.023781,-0.7163,0.4376,-0.3089,-1.3390,-3.7160,-3.2810,-1.0292,0.4643,0.7096,
16.042019,-0.7163,0.4376,-0.3089,-0.6060,-0.0810,-7.6850,-1.0292,0.4643,0.7096,
16.061818,-0.7163,0.4376,-0.3089,-0.6060,-0.0810,-7.6850,-0.1101,0.5584,1.9046,
16.066611,-0.7163,0.4376,-0.3089,3.7200,3.7350,-5.6260,-0.1101,0.5584,1.9046,
16.082899,-0.0422,1.1904,-0.4392,3.7200,3.7350,-5.6260,-0.1101,0.5584,1.9046,
16.087564,-0.0422,1.1904,-0.4392,4.4530,3.1440,-4.4960,-0.1101,0.5584,1.9046,
16.102106,-0.0422,1.1904,-0.4392,-0.7380,0.1210,-5.1830,-0.1101,0.5584,1.9046,
16.123161,-0.0422,1.1904,-0.4392,-0.7380,0.1210,-5.1830,-1.3552,-0.9137,0.8456,
16.127520,-0.0422,1.1904,-0.4392,-7.4910,-4.3440,-3.3800,-1.3552,-0.9137,0.8456,
16.142904,-1.0436,0.0069,0.3525,-7.4910,-4.3440,-3.3800,-1.3552,-0.9137,0.8456,
16.147390,-1.0436,0.0069,0.3525,-5.6150,-8.5550,2.5070,-1.3552,-0.9137,0.8456,
16.163749,-1.0436,0.0069,0.3525,-5.0010,-12.2250,4.4440,-1.3552,-0.9137,0.8456,
16.183515,-1.0436,0.0069,0.3525,-5.0010,-12.2250,4.4440,0.9098,0.7604,-1.3993,
16.187527,-1.0436,0.0069,0.3525,-1.2670,-11.2810,-0.8220,0.9098,0.7604,-1.3993,
16.204188,-0.1270,0.4480,-0.7488,-1.2670,-11.2810,-0.8220,0.9098,0.7604,-1.3993,
16.206797,-0.1270,0.4480,-0.7488,4.0650,-3.8250,-8.1040,0.9098,0.7604,-1.3993,
16.223778,-0.1270,0.4480,-0.7488,3.8810,5.7560,1.1910,0.9098,0.7604,-1.3993,
16.245914,-0.1270,0.4480,-0.7488,3.8810,5.7560,1.1910,0.2007,-2.2227,-1.2734,
16.250926,-0.1270,0.4480,-0.7488,-7.0120,28.4230,18.4740,0.2007,-2.2227,-1.2734,
16.264517,-0.5760,2.7110,0.7329,-7.0120,28.4230,18.4740,0.2007,-2.2227,-1.2734,
16.268440,-0.5760,2.7110,0.7329,0.3190,18.8800,5.8750,0.2007,-2.2227,-1.2734,
16.285226,-0.5760,2.7110,0.7329,2.4480,-4.8700,-8.0600,0.2007,-2.2227,-1.2734,
16.304670,-0.5760,2.7110,0.7329,-1.8650,6.9630,3.3220,0.2007,-2.2227,-1.2734,
16.325976,-0.8989,2.3395,0.3648,-1.8650,6.9630,3.3220,0.2007,-2.2227,-1.2734,
16.329559,-0.8989,2.3395,0.3648,-1.8650,6.9630,3.3220,-1.1703,3.9963,1.8037,
16.333001,-0.8989,2.3395,0.3648,-3.4100,14.7880,2.5900,-1.1703,3.9963,1.8037,
16.345105,-0.8989,2.3395,0.3648,-3.0990,7.2280,-4.1810,-1.1703,3.9963,1.8037,
16.366045,-0.8989,2.3395,0.3648,-1.1960,-0.3300,0.7580,-1.1703,3.9963,1.8037,
16.386002,-0.3668,0.7632,0.1206,-1.1960,-0.3300,0.7580,-1.1703,3.9963,1.8037,
16.389846,-0.3668,0.7632,0.1206,-1.1960,-0.3300,0.7580,-1.4261,1.0544,2.1207,
16.393049,-0.3668,0.7632,0.1206,0.8870,-1.0920,-0.4850,-1.4261,1.0544,2.1207,
16.406420,-0.3668,0.7632,0.1206,0.9680,-0.6140,-3.7680,-1.4261,1.0544,2.1207,
16.427099,-0.3668,0.7632,0.1206,-0.7340,-2.7430,-2.3850,-1.4261,1.0544,2.1207,
16.447011,-0.3807,0.4291,0.0421,-0.7340,-2.7430,-2.3850,-1.4261,1.0544,2.1207,
16.451570,-0.3807,0.4291,0.0421,-0.7340,-2.7430,-2.3850,-1.4572,1.2594,1.7067,
16.455013,-0.3807,0.4291,0.0421,-0.1460,-4.6620,-1.8180,-1.4572,1.2594,1.7067,
16.466227,-0.3807,0.4291,0.0421,1.1290,-5.5420,-1.3730,-1.4572,1.2594,1.7067,
16.487539,-0.3807,0.4291,0.0421,1.8740,-5.5190,-0.0960,-1.4572,1.2594,1.7067,
16.507293,-0.1913,0.3749,0.2350,1.8740,-5.5190,-0.0960,-1.4572,1.2594,1.7067,
16.509527,-0.1913,0.3749,0.2350,1.8740,-5.5190,-0.0960,-0.7811,0.3564,0.7817,
16.511006,-0.1913,0.3749,0.2350,1.2470,-5.2610,-0.3090,-0.7811,0.3564,0.7817,
16.527415,-0.1913,0.3749,0.2350,0.9820,-4.3450,-2.7130,-0.7811,0.3564,0.7817,
16.547856,-0.1913,0.3749,0.2350,0.0150,-2.4570,-2.6870,-0.7811,0.3564,0.7817,
16.568153,-0.4082,0.8441,0.1763,0.0150,-2.4570,-2.6870,-0.7811,0.3564,0.7817,
16.570138,-0.4082,0.8441,0.1763,-1.3290,-0.6470,-1.3820,-0.7811,0.3564,0.7817,
16.587681,-0.4082,0.8441,0.1763,-1.3290,-0.6470,-1.3820,-0.7272,-0.1116,0.9877,
16.590411,-0.4082,0.8441,0.1763,-3.0650,-0.0680,-1.2810,-0.7272,-0.1116,0.9877,
16.608995,-0.4082,0.8441,0.1763,-4.7710,-0.0290,-2.3080,-0.7272,-0.1116,0.9877,
16.628334,-0.8087,0.8893,-0.0384,-4.7710,-0.0290,-2.3080,-0.7272,-0.1116,0.9877,
16.630645,-0.8087,0.8893,-0.0384,-5.7720,-0.2170,-3.8330,-0.7272,-0.1116,0.9877,
16.650547,-0.8087,0.8893,-0.0384,-5.7720,-0.2170,-3.8330,-0.2162,0.9463,0.5277,
16.654087,-0.8087,0.8893,-0.0384,-4.2700,-0.2930,-2.4430,-0.2162,0.9463,0.5277,
16.668604,-0.8087,0.8893,-0.0384,-2.8070,0.2770,-1.1080,-0.2162,0.9463,0.5277,
16.690479,-0.5567,1.0706,0.2128,-2.8070,0.2770,-1.1080,-0.2162,0.9463,0.5277,
16.692673,-0.5567,1.0706,0.2128,-3.0300,1.5000,-1.0070,-0.2162,0.9463,0.5277,
16.709779,-0.5567,1.0706,0.2128,-3.0300,1.5000,-1.0070,2.1458,1.6984,-0.9954,
16.711505,-0.5567,1.0706,0.2128,-2.7210,1.1450,1.9390,2.1458,1.6984,-0.9954,
16.732297,-0.5567,1.0706,0.2128,0.5030,-0.2670,1.6260,2.1458,1.6984,-0.9954,
16.749593,-0.2556,1.0863,0.1790,0.5030,-0.2670,1.6260,2.1458,1.6984,-0.9954,
16.751652,-0.2556,1.0863,0.1790,1.0850,1.6470,0.1480,2.1458,1.6984,-0.9954,
16.771794,-0.2556,1.0863,0.1790,1.0850,1.6470,0.1480,1.9099,0.3314,-2.6533,
16.773939,-0.2556,1.0863,0.1790,-0.0890,4.9820,-0.9180,1.9099,0.3314,-2.6533,
16.791193,-0.2556,1.0863,0.1790,-0.0510,7.3740,-0.8060,1.9099,0.3314,-2.6533,
16.811215,-0.4746,1.8055,0.3181,-0.0510,7.3740,-0.8060,1.9099,0.3314,-2.6533,
16.815739,-0.4746,1.8055,0.3181,0.2040,9.1920,2.4740,1.9099,0.3314,-2.6533,
16.831723,-0.4746,1.8055,0.3181,0.8800,7.5680,1.7000,1.9099,0.3314,-2.6533,
16.851379,-0.4746,1.8055,0.3181,0.8800,7.5680,1.7000,0.5637,0.8203,-1.9004,
16.852506,-0.4746,1.8055,0.3181,-0.5630,2.9660,-3.0470,0.5637,0.8203,-1.9004,
16.871394,-0.7083,0.8581,-0.5071,-0.5630,2.9660,-3.0470,0.5637,0.8203,-1.9004,
16.875546,-0.7083,0.8581,-0.5071,-1.0530,0.5550,-5.0420,0.5637,0.8203,-1.9004,
16.893163,-0.7083,0.8581,-0.5071,-1.3200,0.1380,-0.6810,0.5637,0.8203,-1.9004,
16.911884,-0.7083,0.8581,-0.5071,-1.3200,0.1380,-0.6810,-0.7322,3.3814,-1.6643,
16.916042,-0.7083,0.8581,-0.5071,0.8950,0.3160,2.3750,-0.7322,3.3814,-1.6643,
16.932681,-0.1777,0.7187,0.2460,0.8950,0.3160,2.3750,-0.7322,3.3814,-1.6643,
16.936360,-0.1777,0.7187,0.2460,4.8810,-0.1530,3.2430,-0.7322,3.3814,-1.6643,
16.952063,-0.1777,0.7187,0.2460,6.2140,-0.2860,5.0100,-0.7322,3.3814,-1.6643,
16.973197,-0.1777,0.7187,0.2460,6.2140,-0.2860,5.0100,-0.3631,2.4174,-1.1393,
16.975516,-0.1777,0.7187,0.2460,6.4200,-0.5680,4.4350,-0.3631,2.4174,-1.1393,
16.993352,0.0379,0.6114,0.0449,6.4200,-0.5680,4.4350,-0.3631,2.4174,-1.1393,
16.995594,0.0379,0.6114,0.0449,7.2710,-0.7800,2.1150,-0.3631,2.4174,-1.1393,
17.013819,0.0379,0.6114,0.0449,7.7390,-0.7520,0.5430,-0.3631,2.4174,-1.1393,
17.033335,0.0379,0.6114,0.0449,7.7390,-0.7520,0.5430,-1.4182,1.3883,0.0246,
17.037092,0.0379,0.6114,0.0449,6.4580,-1.2240,0.3350,-1.4182,1.3883,0.0246,
17.054012,-0.3521,0.4951,-0.1319,6.4580,-1.2240,0.3350,-1.4182,1.3883,0.0246,
17.056308,-0.3521,0.4951,-0.1319,3.3270,-2.0250,0.4640,-1.4182,1.3883,0.0246,
17.075461,-0.3521,0.4951,-0.1319,1.8610,-2.8590,-0.8740,-1.4182,1.3883,0.0246,
17.095422,-0.3521,0.4951,-0.1319,2.5320,-3.5720,-3.9370,-1.4182,1.3883,0.0246,
17.115152,-0.5643,0.3888,-0.3174,2.5320,-3.5720,-3.9370,-1.4182,1.3883,0.0246,
17.119244,-0.5643,0.3888,-0.3174,2.5320,-3.5720,-3.9370,-1.8521,-0.1166,1.5297,
17.122313,-0.5643,0.3888,-0.3174,0.7210,-3.6780,-2.0260,-1.8521,-0.1166,1.5297,
17.136498,-0.5643,0.3888,-0.3174,-0.7550,-0.3400,-0.3950,-1.8521,-0.1166,1.5297,
17.153927,-0.5643,0.3888,-0.3174,-1.9670,4.7190,-3.1850,-1.8521,-0.1166,1.5297,
17.176640,-1.0718,1.6405,-0.2612,-1.9670,4.7190,-3.1850,-1.8521,-0.1166,1.5297,
17.178834,-1.0718,1.6405,-0.2612,-1.9670,4.7190,-3.1850,-0.4092,1.5843,-0.6104,
17.180577,-1.0718,1.6405,-0.2612,-4.5530,8.3750,-1.3010,-0.4092,1.5843,-0.6104,
17.194021,-1.0718,1.6405,-0.2612,-3.3060,3.4860,-1.4320,-0.4092,1.5843,-0.6104,
17.216098,-1.0718,1.6405,-0.2612,2.6670,-4.2290,-2.4980,-0.4092,1.5843,-0.6104,
17.234400,-0.1261,0.5357,-0.1701,2.6670,-4.2290,-2.4980,-0.4092,1.5843,-0.6104,
17.236531,-0.1261,0.5357,-0.1701,2.6670,-4.2290,-2.4980,-1.1881,-1.0656,0.1446,
17.238190,-0.1261,0.5357,-0.1701,4.9080,-2.3660,-0.8770,-1.1881,-1.0656,0.1446,
17.256679,-0.1261,0.5357,-0.1701,3.6870,7.6470,4.4800,-1.1881,-1.0656,0.1446,
17.275234,-0.1261,0.5357,-0.1701,-1.8880,15.3820,5.7160,-1.1881,-1.0656,0.1446,
17.297949,-0.8556,1.3996,0.2088,-1.8880,15.3820,5.7160,-1.1881,-1.0656,0.1446,
17.302854,-0.8556,1.3996,0.2088,-1.8880,15.3820,5.7160,0.1668,1.3773,0.4367,
17.306024,-0.8556,1.3996,0.2088,-2.2760,6.0580,2.6170,0.1668,1.3773,0.4367,
17.315866,-0.8556,1.3996,0.2088,3.9990,-3.0160,-0.9240,0.1668,1.3773,0.4367,
17.338643,-0.8556,1.3996,0.2088,4.3440,-2.7670,0.5660,0.1668,1.3773,0.4367,
17.358054,-0.1728,0.6615,0.4444,4.3440,-2.7670,0.5660,0.1668,1.3773,0.4367,
17.360031,-0.1728,0.6615,0.4444,3.7930,-1.5990,5.3440,0.1668,1.3773,0.4367,
17.380204,-0.1728,0.6615,0.4444,3.7930,-1.5990,5.3440,-2.0152,2.3694,0.8526,
17.384681,-0.1728,0.6615,0.4444,2.5290,0.8740,7.4270,-2.0152,2.3694,0.8526,
17.396997,-0.1728,0.6615,0.4444,-0.3170,2.3620,2.8120,-2.0152,2.3694,0.8526,
17.419376,-0.4315,0.8739,0.0610,-0.3170,2.3620,2.8120,-2.0152,2.3694,0.8526,
17.423002,-0.4315,0.8739,0.0610,0.9220,0.2110,0.9180,-2.0152,2.3694,0.8526,
17.437419,-0.4315,0.8739,0.0610,0.9220,0.2110,0.9180,-1.3421,1.2444,0.7876,
17.440014,-0.4315,0.8739,0.0610,2.2950,-0.3930,0.3060,-1.3421,1.2444,0.7876,
17.459868,-0.4315,0.8739,0.0610,1.3580,-0.6360,-0.0140,-1.3421,1.2444,0.7876,
17.477814,-0.3981,0.7425,0.0351,1.3580,-0.6360,-0.0140,-1.3421,1.2444,0.7876,
17.480308,-0.3981,0.7425,0.0351,0.8710,-1.2960,0.3700,-1.3421,1.2444,0.7876,
17.500261,-0.3981,0.7425,0.0351,0.8710,-1.2960,0.3700,-1.6611,1.3584,0.5346,
17.504039,-0.3981,0.7425,0.0351,1.4060,-2.1220,1.8620,-1.6611,1.3584,0.5346,
17.518356,-0.3981,0.7425,0.0351,2.6810,-1.7970,2.2740,-1.6611,1.3584,0.5346,
17.540544,-0.1703,0.8616,0.2051,2.6810,-1.7970,2.2740,-1.6611,1.3584,0.5346,
17.542657,-0.1703,0.8616,0.2051,2.8260,-0.2740,1.5190,-1.6611,1.3584,0.5346,
17.559085,-0.1703,0.8616,0.2051,2.8260,-0.2740,1.5190,-1.1411,-0.0217,0.7707,
17.561090,-0.1703,0.8616,0.2051,1.5050,0.7650,1.1190,-1.1411,-0.0217,0.7707,
17.581091,-0.1703,0.8616,0.2051,-0.2980,0.1070,1.3520,-1.1411,-0.0217,0.7707,
17.599198,-0.4336,0.8148,0.2599,-0.2980,0.1070,1.3520,-1.1411,-0.0217,0.7707,
17.603246,-0.4336,0.8148,0.2599,-0.1970,-0.8970,1.5210,-1.1411,-0.0217,0.7707,
17.621453,-0.4336,0.8148,0.2599,0.2890,-0.8090,0.6010,-1.1411,-0.0217,0.7707,
17.639710,-0.4336,0.8148,0.2599,0.2890,-0.8090,0.6010,-0.7652,0.5763,0.9317,
17.643915,-0.4336,0.8148,0.2599,-0.3090,0.2010,-0.1870,-0.7652,0.5763,0.9317,
17.662164,-0.4709,0.9751,0.1421,-0.3090,0.2010,-0.1870,-0.7652,0.5763,0.9317,
17.666839,-0.4709,0.9751,0.1421,-1.0190,0.5120,0.0920,-0.7652,0.5763,0.9317,
17.679276,-0.4709,0.9751,0.1421,-0.9930,0.0930,0.6150,-0.7652,0.5763,0.9317,
17.702714,-0.4709,0.9751,0.1421,-0.9930,0.0930,0.6150,-0.0411,0.4234,0.4686,
17.708564,-0.4709,0.9751,0.1421,-1.4420,-0.5220,0.7770,-0.0411,0.4234,0.4686,
17.721525,-0.5960,0.9228,0.2401,-1.4420,-0.5220,0.7770,-0.0411,0.4234,0.4686,
17.724580,-0.5960,0.9228,0.2401,-2.4360,-0.0870,1.1070,-0.0411,0.4234,0.4686,
17.742473,-0.5960,0.9228,0.2401,-2.8290,1.2040,0.7280,-0.0411,0.4234,0.4686,
17.761095,-0.5960,0.9228,0.2401,-2.8290,1.2040,0.7280,1.4448,1.0394,-0.6354,
17.766744,-0.5960,0.9228,0.2401,-1.4690,2.1040,1.2920,1.4448,1.0394,-0.6354,
17.783570,-0.6276,1.1535,0.3208,-1.4690,2.1040,1.2920,1.4448,1.0394,-0.6354,
17.787506,-0.6276,1.1535,0.3208,-2.3840,2.2390,2.8020,1.4448,1.0394,-0.6354,
17.801360,-0.6276,1.1535,0.3208,-2.5390,0.6330,2.9640,1.4448,1.0394,-0.6354,
17.824510,-0.6276,1.1535,0.3208,-2.5390,0.6330,2.9640,1.4589,1.9163,-2.4083,
17.828735,-0.6276,1.1535,0.3208,1.0710,-0.2090,0.4530,1.4589,1.9163,-2.4083,
17.842355,-0.2416,1.1266,-0.0946,1.0710,-0.2090,0.4530,1.4589,1.9163,-2.4083,
17.846514,-0.2416,1.1266,-0.0946,2.4690,2.5560,0.0970,1.4589,1.9163,-2.4083,
17.864325,-0.2416,1.1266,-0.0946,1.4280,6.5570,4.4460,1.4589,1.9163,-2.4083,
17.883811,-0.2416,1.1266,-0.0946,1.5090,7.4150,6.6700,1.4589,1.9163,-2.4083,
17.905369,-0.4772,1.4169,0.1702,1.5090,7.4150,6.6700,1.4589,1.9163,-2.4083,
17.909573,-0.4772,1.4169,0.1702,1.5090,7.4150,6.6700,1.6188,0.3443,-2.1843,
17.912977,-0.4772,1.4169,0.1702,1.1720,6.2570,3.6450,1.6188,0.3443,-2.1843,
17.925605,-0.4772,1.4169,0.1702,0.1810,5.1600,-0.2670,1.6188,0.3443,-2.1843,
17.945373,-0.4772,1.4169,0.1702,0.8820,3.1320,-0.0270,1.6188,0.3443,-2.1843,
17.963776,-0.4821,0.9030,-0.0611,0.8820,3.1320,-0.0270,1.6188,0.3443,-2.1843,
17.968051,-0.4821,0.9030,-0.0611,0.8820,3.1320,-0.0270,-0.3762,2.3383,-1.9133,
17.971136,-0.4821,0.9030,-0.0611,1.6970,1.9240,2.1090,-0.3762,2.3383,-1.9133,
17.985623,-0.4821,0.9030,-0.0611,2.4390,1.3200,3.8050,-0.3762,2.3383,-1.9133,
18.005381,-0.4821,0.9030,-0.0611,3.1720,0.2800,6.0100,-0.3762,2.3383,-1.9133,
18.026619,-0.3211,0.6776,0.2956,3.1720,0.2800,6.0100,-0.3762,2.3383,-1.9133,
18.031782,-0.3211,0.6776,0.2956,3.1720,0.2800,6.0100,-0.5672,3.1493,-1.9484,
18.034393,-0.3211,0.6776,0.2956,3.4680,0.4070,6.5830,-0.5672,3.1493,-1.9484,
18.044384,-0.3211,0.6776,0.2956,5.2280,1.0590,6.1650,-0.5672,3.1493,-1.9484,
18.067075,-0.3211,0.6776,0.2956,6.3410,0.6330,3.9910,-0.5672,3.1493,-1.9484,
18.084971,-0.1032,0.5636,-0.2207,6.3410,0.6330,3.9910,-0.5672,3.1493,-1.9484,
18.088587,-0.1032,0.5636,-0.2207,6.3410,0.6330,3.9910,-1.3322,1.7904,-0.8753,
18.091396,-0.1032,0.5636,-0.2207,5.5960,-0.3680,2.0810,-1.3322,1.7904,-0.8753,
18.107446,-0.1032,0.5636,-0.2207,3.6770,-0.9460,2.7100,-1.3322,1.7904,-0.8753,
18.125528,-0.1032,0.5636,-0.2207,2.7170,-0.8500,3.3360,-1.3322,1.7904,-0.8753,
18.147609,-0.2915,0.5413,-0.1921,2.7170,-0.8500,3.3360,-1.3322,1.7904,-0.8753,
18.152270,-0.2915,0.5413,-0.1921,3.5670,-0.8410,2.2830,-1.3322,1.7904,-0.8753,
18.166290,-0.2915,0.5413,-0.1921,3.5670,-0.8410,2.2830,-1.6332,-0.0077,0.3007,
18.170569,-0.2915,0.5413,-0.1921,4.4690,-0.8130,1.3370,-1.6332,-0.0077,0.3007,
18.188519,-0.2915,0.5413,-0.1921,3.6260,0.0070,1.9810,-1.6332,-0.0077,0.3007,
18.208655,-0.3253,0.7926,-0.2491,3.6260,0.0070,1.9810,-1.6332,-0.0077,0.3007,
18.210818,-0.3253,0.7926,-0.2491,2.9040,1.0240,1.2550,-1.6332,-0.0077,0.3007,
18.228636,-0.3253,0.7926,-0.2491,2.9040,1.0240,1.2550,-0.8502,-0.1587,0.7917,
18.230918,-0.3253,0.7926,-0.2491,1.1860,1.3950,-1.2090,-0.8502,-0.1587,0.7917,
18.245826,-0.3253,0.7926,-0.2491,-1.1420,3.3720,1.0090,-0.8502,-0.1587,0.7917,
18.269276,-0.8714,1.1202,0.0121,-1.1420,3.3720,1.0090,-0.8502,-0.1587,0.7917,
18.273189,-0.8714,1.1202,0.0121,-2.4240,4.0200,3.3570,-0.8502,-0.1587,0.7917,
18.287559,-0.8714,1.1202,0.0121,-2.4240,4.0200,3.3570,-0.5072,-1.2077,-0.0934,
18.291710,-0.8714,1.1202,0.0121,-0.2660,-0.0820,1.1880,-0.5072,-1.2077,-0.0934,
18.309640,-0.8714,1.1202,0.0121,1.4260,-2.7850,-0.2980,-0.5072,-1.2077,-0.0934,
18.327830,-0.6620,0.7971,0.0129,1.4260,-2.7850,-0.2980,-0.5072,-1.2077,-0.0934,
18.329942,-0.6620,0.7971,0.0129,-0.1440,0.7090,2.4980,-0.5072,-1.2077,-0.0934,
18.350604,-0.6620,0.7971,0.0129,-0.1440,0.7090,2.4980,-0.6572,-0.5167,-0.7543,
18.354515,-0.6620,0.7971,0.0129,0.2170,8.8760,7.5330,-0.6572,-0.5167,-0.7543,
18.367876,-0.6620,0.7971,0.0129,-2.7780,15.8760,6.8770,-0.6572,-0.5167,-0.7543,
18.392722,-0.7845,1.4475,-0.4563,-2.7780,15.8760,6.8770,-0.6572,-0.5167,-0.7543,
18.396218,-0.7845,1.4475,-0.4563,-1.1550,7.2260,-2.1780,-0.6572,-0.5167,-0.7543,
18.408434,-0.7845,1.4475,-0.4563,6.1710,-2.7160,-0.4310,-0.6572,-0.5167,-0.7543,
18.431194,-0.7845,1.4475,-0.4563,6.1710,-2.7160,-0.4310,-0.9162,1.4843,1.4946,
18.433318,-0.7845,1.4475,-0.4563,7.7230,-2.0840,8.7840,-0.9162,1.4843,1.4946,
18.449880,-0.0298,0.8663,0.5879,7.7230,-2.0840,8.7840,-0.9162,1.4843,1.4946,
18.452218,-0.0298,0.8663,0.5879,5.4200,0.8960,8.1980,-0.9162,1.4843,1.4946,
18.471043,-0.0298,0.8663,0.5879,1.6250,3.1470,4.6900,-0.9162,1.4843,1.4946,
18.490486,-0.0298,0.8663,0.5879,1.6250,3.1470,4.6900,-1.3931,-2.3236,0.9677,
18.492374,-0.0298,0.8663,0.5879,-1.1840,2.0790,1.1650,-1.3931,-2.3236,0.9677,
18.512025,-0.5811,0.7696,0.1660,-1.1840,2.0790,1.1650,-1.3931,-2.3236,0.9677,
18.515034,-0.5811,0.7696,0.1660,-0.2970,-0.5060,3.1820,-1.3931,-2.3236,0.9677,
18.529733,-0.5811,0.7696,0.1660,1.2200,-1.7500,0.3520,-1.3931,-2.3236,0.9677,
18.552639,-0.5811,0.7696,0.1660,1.2200,-1.7500,0.3520,-0.9861,1.1253,0.6287,
18.556195,-0.5811,0.7696,0.1660,2.6240,-1.8170,-0.0030,-0.9861,1.1253,0.6287,
18.570161,-0.2260,0.6703,0.1062,2.6240,-1.8170,-0.0030,-0.9861,1.1253,0.6287,
18.571853,-0.2260,0.6703,0.1062,2.8040,-1.7480,2.4300,-0.9861,1.1253,0.6287,
18.593107,-0.2260,0.6703,0.1062,1.7810,-1.7420,2.1160,-0.9861,1.1253,0.6287,
18.610834,-0.2260,0.6703,0.1062,1.7810,-1.7420,2.1160,-0.6142,-1.0267,0.4187,
18.612032,-0.2260,0.6703,0.1062,0.1380,-0.6490,0.5270,-0.6142,-1.0267,0.4187,
18.633422,-0.7239,0.9629,-0.0399,0.1380,-0.6490,0.5270,-0.6142,-1.0267,0.4187,
18.636974,-0.7239,0.9629,-0.0399,-2.2990,0.9130,0.5370,-0.6142,-1.0267,0.4187,
18.651221,-0.7239,0.9629,-0.0399,-3.0820,0.3930,2.1950,-0.6142,-1.0267,0.4187,
18.674590,-0.7239,0.9629,-0.0399,-1.1610,-1.2790,1.5920,-0.6142,-1.0267,0.4187,
18.691886,-0.4636,0.7043,0.0808,-1.1610,-1.2790,1.5920,-0.6142,-1.0267,0.4187,
18.695306,-0.4636,0.7043,0.0808,-1.1610,-1.2790,1.5920,0.1308,0.1584,-0.0003,
18.698450,-0.4636,0.7043,0.0808,0.1660,-1.6500,1.8270,0.1308,0.1584,-0.0003,
18.715666,-0.4636,0.7043,0.0808,0.4720,-1.0660,2.3100,0.1308,0.1584,-0.0003,
18.732179,-0.4636,0.7043,0.0808,-0.0210,-1.0480,2.4460,0.1308,0.1584,-0.0003,
18.754711,-0.5191,0.7412,0.1148,-0.0210,-1.0480,2.4460,0.1308,0.1584,-0.0003,
18.758300,-0.5191,0.7412,0.1148,-0.0210,-1.0480,2.4460,0.4909,-0.2296,-0.6684,
18.761276,-0.5191,0.7412,0.1148,-0.1530,-1.1300,2.3440,0.4909,-0.2296,-0.6684,
18.775574,-0.5191,0.7412,0.1148,0.2430,-1.3100,2.8380,0.4909,-0.2296,-0.6684,
18.795908,-0.5191,0.7412,0.1148,0.8330,-1.9580,4.3910,0.4909,-0.2296,-0.6684,
18.814677,-0.5701,0.5391,0.3049,0.8330,-1.9580,4.3910,0.4909,-0.2296,-0.6684,
18.818634,-0.5701,0.5391,0.3049,0.8330,-1.9580,4.3910,2.6708,-0.1107,-3.5003,
18.821493,-0.5701,0.5391,0.3049,0.4540,-2.2250,4.8540,2.6708,-0.1107,-3.5003,
18.835053,-0.5701,0.5391,0.3049,-0.7740,-0.2830,2.3860,2.6708,-0.1107,-3.5003,
18.854819,-0.5701,0.5391,0.3049,2.3780,1.5840,-3.0910,2.6708,-0.1107,-3.5003,
18.875316,0.6021,0.6014,-0.6601,2.3780,1.5840,-3.0910,2.6708,-0.1107,-3.5003,
18.877366,0.6021,0.6014,-0.6601,2.3780,1.5840,-3.0910,1.2548,1.9903,-1.6694,
18.878897,0.6021,0.6014,-0.6601,12.5870,-0.2810,-2.7940,1.2548,1.9903,-1.6694,
18.895151,0.6021,0.6014,-0.6601,15.8570,-5.2010,9.8660,1.2548,1.9903,-1.6694,
18.915390,0.6021,0.6014,-0.6601,11.3710,-7.6470,10.6330,1.2548,1.9903,-1.6694,
18.935470,-0.1288,-0.0691,0.1409,11.3710,-7.6470,10.6330,1.2548,1.9903,-1.6694,
18.937498,-0.1288,-0.0691,0.1409,5.8260,-5.5750,6.0620,1.2548,1.9903,-1.6694,
18.955580,-0.1288,-0.0691,0.1409,5.8260,-5.5750,6.0620,1.6459,1.3853,-1.6994,
18.959689,-0.1288,-0.0691,0.1409,3.6170,-1.9790,6.8540,1.6459,1.3853,-1.6994,
