
time,gFx,gFy,gFz,ax,ay,az,wx,wy,wz,
0.026372,-0.0594,0.1324,1.1463,0.0000,0.0000,0.0000,0.0000,0.0000,0.0000,
0.028565,-0.0594,0.1324,1.1463,0.0000,0.0000,0.0000,-0.4021,-0.1470,-0.0399,
0.044618,-0.0594,0.1324,1.1463,0.0000,0.0000,0.0000,-0.4021,-0.1470,-0.0399,
0.064485,0.0909,0.0513,0.9408,0.0000,0.0000,0.0000,-0.4021,-0.1470,-0.0399,
0.066314,0.0909,0.0513,0.9408,-0.0509,-0.0287,-0.5268,-0.4021,-0.1470,-0.0399,
0.067823,0.0909,0.0513,0.9408,-0.0509,-0.0287,-0.5268,-0.4021,-0.1470,-0.0399,
0.084902,0.0909,0.0513,0.9408,-0.0509,-0.0287,-0.5268,-0.4021,-0.1470,-0.0399,
0.105064,-0.0010,0.2121,0.9284,-0.0509,-0.0287,-0.5268,-0.4021,-0.1470,-0.0399,
0.107065,-0.0010,0.2121,0.9284,-0.5435,0.8286,-0.6141,-0.4021,-0.1470,-0.0399,
0.108636,-0.0010,0.2121,0.9284,-0.5435,0.8286,-0.6141,0.5667,1.2421,0.8517,
0.124650,-0.0010,0.2121,0.9284,-0.5435,0.8286,-0.6141,0.4991,1.3289,0.9241,
0.143982,-0.1625,0.2875,0.9802,-0.5435,0.8286,-0.6141,0.4991,1.3289,0.9241,
0.145832,-0.1625,0.2875,0.9802,-1.1852,0.8844,0.0000,0.4991,1.3289,0.9241,
0.147647,-0.1625,0.2875,0.9802,-1.1852,0.8844,0.0000,0.4410,1.2874,1.1931,
0.164825,-0.1625,0.2875,0.9802,-1.1852,0.8844,0.0000,0.2722,1.1739,1.4706,
0.184993,-0.0767,0.1605,0.9215,-1.1852,0.8844,0.0000,0.2722,1.1739,1.4706,
0.187160,-0.0767,0.1605,0.9215,-0.1788,-0.2533,-0.5871,0.2722,1.1739,1.4706,
0.189227,-0.0767,0.1605,0.9215,-0.1788,-0.2533,-0.5871,-0.0096,1.1792,1.5079,
0.205104,-0.0767,0.1605,0.9215,-0.1788,-0.2533,-0.5871,-0.2301,1.0823,1.2852,
0.225106,-0.0376,0.1891,0.9990,-0.1788,-0.2533,-0.5871,-0.2301,1.0823,1.2852,
0.227977,-0.0376,0.1891,0.9990,0.1109,0.0283,0.1665,-0.2301,1.0823,1.2852,
0.229704,-0.0376,0.1891,0.9990,0.1109,0.0283,0.1665,-0.3190,0.8378,1.0168,
0.244881,-0.0376,0.1891,0.9990,0.1109,0.0283,0.1665,-0.2658,0.6631,0.7878,
0.264459,-0.1222,0.2555,1.0139,0.1109,0.0283,0.1665,-0.2658,0.6631,0.7878,
0.267714,-0.1222,0.2555,1.0139,-0.4230,0.4296,0.3826,-0.2658,0.6631,0.7878,
0.270472,-0.1222,0.2555,1.0139,-0.4230,0.4296,0.3826,-0.0911,0.5113,0.6248,
0.284312,-0.1222,0.2555,1.0139,-0.4230,0.4296,0.3826,0.0895,0.4325,0.4240,
0.304274,-0.1972,0.3166,0.8666,-0.4230,0.4296,0.3826,0.0895,0.4325,0.4240,
0.306775,-0.1972,0.3166,0.8666,-0.6266,0.5154,-0.8764,0.0895,0.4325,0.4240,
0.308589,-0.1972,0.3166,0.8666,-0.6266,0.5154,-0.8764,0.1699,0.6285,0.2029,
0.324367,-0.1972,0.3166,0.8666,-0.6266,0.5154,-0.8764,0.2306,1.1084,0.0453,
0.344265,-0.2893,0.4224,1.0041,-0.6266,0.5154,-0.8764,0.2306,1.1084,0.0453,
0.347272,-0.2893,0.4224,1.0041,-1.2119,1.4595,0.5475,0.2306,1.1084,0.0453,
0.348887,-0.2893,0.4224,1.0041,-1.2119,1.4595,0.5475,0.3739,1.2538,0.0650,
0.364091,-0.2893,0.4224,1.0041,-1.2119,1.4595,0.5475,0.4831,0.9923,0.2338,
0.384680,-0.3298,0.4432,0.8541,-1.2119,1.4595,0.5475,0.4831,0.9923,0.2338,
0.386791,-0.3298,0.4432,0.8541,-1.1986,1.4699,-0.7830,0.4831,0.9923,0.2338,
0.388641,-0.3298,0.4432,0.8541,-1.1986,1.4699,-0.7830,0.4165,0.6967,0.3286,
0.404578,-0.3298,0.4432,0.8541,-1.1986,1.4699,-0.7830,0.1614,0.5950,0.3670,
0.424570,-0.3626,0.4854,0.7986,-1.1986,1.4699,-0.7830,0.1614,0.5950,0.3670,
0.426839,-0.3626,0.4854,0.7986,-1.2994,1.7079,-1.2173,0.1614,0.5950,0.3670,
0.428646,-0.3626,0.4854,0.7986,-1.2994,1.7079,-1.2173,-0.0746,0.8336,0.4160,
0.443809,-0.3626,0.4854,0.7986,-1.2994,1.7079,-1.2173,-0.0543,1.0418,0.4730,
0.463884,-0.3594,0.4617,0.8898,-1.2994,1.7079,-1.2173,-0.0543,1.0418,0.4730,
0.467094,-0.3594,0.4617,0.8898,-0.9694,1.4257,-0.2273,-0.0543,1.0418,0.4730,
0.468961,-0.3594,0.4617,0.8898,-0.9694,1.4257,-0.2273,0.1145,0.8053,0.5044,
0.484462,-0.3594,0.4617,0.8898,-0.9694,1.4257,-0.2273,0.0378,0.4133,0.5886,
0.504319,-0.2702,0.4434,0.7227,-0.9694,1.4257,-0.2273,0.0378,0.4133,0.5886,
0.507739,-0.2702,0.4434,0.7227,0.0634,1.1242,-1.7747,0.0378,0.4133,0.5886,
0.509260,-0.2702,0.4434,0.7227,0.0634,1.1242,-1.7747,-0.3702,0.4911,0.4916,
0.524455,-0.2702,0.4434,0.7227,0.0634,1.1242,-1.7747,-0.2913,0.6663,0.3238,
0.544295,-0.2976,0.4529,0.9347,0.0634,1.1242,-1.7747,-0.2913,0.6663,0.3238,
0.547106,-0.2976,0.4529,0.9347,-0.0504,1.2502,0.3403,-0.2913,0.6663,0.3238,
0.549105,-0.2976,0.4529,0.9347,-0.0504,1.2502,0.3403,0.1214,0.8123,0.2493,
0.563696,-0.2976,0.4529,0.9347,-0.0504,1.2502,0.3403,0.4597,0.7276,0.3190,
0.585097,-0.4151,0.4908,0.7644,-0.0504,1.2502,0.3403,0.4597,0.7276,0.3190,
0.587200,-0.4151,0.4908,0.7644,-0.9566,1.4388,-1.1761,0.4597,0.7276,0.3190,
0.589014,-0.4151,0.4908,0.7644,-0.9566,1.4388,-1.1761,0.4655,0.9673,0.4400,
0.604556,-0.4151,0.4908,0.7644,-0.9566,1.4388,-1.1761,0.4256,1.1201,0.4847,
0.624624,-0.3762,0.4644,0.8367,-0.9566,1.4388,-1.1761,0.4256,1.1201,0.4847,
0.626883,-0.3762,0.4644,0.8367,-0.2798,0.9362,-0.2551,0.4256,1.1201,0.4847,
0.628721,-0.3762,0.4644,0.8367,-0.2798,0.9362,-0.2551,0.4144,0.9001,0.4602,
0.643301,-0.3762,0.4644,0.8367,-0.2798,0.9362,-0.2551,0.2887,0.6067,0.3840,
0.664147,-0.3745,0.3498,0.7771,-0.2798,0.9362,-0.2551,0.2887,0.6067,0.3840,
0.666324,-0.3745,0.3498,0.7771,-0.0708,-0.3752,-0.6754,0.2887,0.6067,0.3840,
0.668285,-0.3745,0.3498,0.7771,-0.0708,-0.3752,-0.6754,0.1321,0.4618,0.3968,
0.684465,-0.3745,0.3498,0.7771,-0.0708,-0.3752,-0.6754,0.1907,0.5167,0.3451,
0.704148,-0.5956,0.4969,0.9794,-0.0708,-0.3752,-0.6754,0.1907,0.5167,0.3451,
0.707855,-0.5956,0.4969,0.9794,-2.1320,0.9584,1.4042,0.1907,0.5167,0.3451,
0.709478,-0.5956,0.4969,0.9794,-2.1320,0.9584,1.4042,0.5997,0.7329,0.3973,
0.724106,-0.5956,0.4969,0.9794,-2.1320,0.9584,1.4042,0.8543,0.7052,0.4469,
0.744293,-0.3833,0.4737,0.7525,-2.1320,0.9584,1.4042,0.8543,0.7052,0.4469,
0.746366,-0.3833,0.4737,0.7525,0.1165,0.4297,-0.5898,0.8543,0.7052,0.4469,
0.748133,-0.3833,0.4737,0.7525,0.1165,0.4297,-0.5898,0.5997,0.7169,0.0581,
0.763743,-0.3833,0.4737,0.7525,0.1165,0.4297,-0.5898,0.4336,0.6876,-0.1332,
0.784400,-0.4806,0.5917,0.6946,0.1165,0.4297,-0.5898,0.4336,0.6876,-0.1332,
0.786687,-0.4806,0.5917,0.6946,-0.6033,1.4142,-0.9448,0.4336,0.6876,-0.1332,
0.788328,-0.4806,0.5917,0.6946,-0.6033,1.4142,-0.9448,0.1630,0.7398,-0.0208,
0.803628,-0.4806,0.5917,0.6946,-0.6033,1.4142,-0.9448,0.0447,0.9619,0.2269,
0.823800,-0.4979,0.4879,0.9894,-0.6033,1.4142,-0.9448,0.0447,0.9619,0.2269,
0.826874,-0.4979,0.4879,0.9894,-0.5311,0.3471,2.1070,0.0447,0.9619,0.2269,
0.828630,-0.4979,0.4879,0.9894,-0.5311,0.3471,2.1070,0.4820,0.9497,0.4953,
0.843447,-0.4979,0.4879,0.9894,-0.5311,0.3471,2.1070,0.7531,0.7558,0.4772,
0.863337,-0.3797,0.6235,0.6440,-0.5311,0.3471,2.1070,0.7531,0.7558,0.4772,
0.865349,-0.3797,0.6235,0.6440,0.7834,1.3937,-1.0129,0.7531,0.7558,0.4772,
0.867157,-0.3797,0.6235,0.6440,0.7834,1.3937,-1.0129,0.8224,0.0607,0.4277,
0.884579,-0.3797,0.6235,0.6440,0.7834,1.3937,-1.0129,0.6179,0.1656,0.3462,
0.903277,-0.3823,0.5248,0.5766,0.7834,1.3937,-1.0129,0.6179,0.1656,0.3462,
0.905826,-0.3823,0.5248,0.5766,0.7071,0.1350,-1.5089,0.6179,0.1656,0.3462,
0.907577,-0.3823,0.5248,0.5766,0.7071,0.1350,-1.5089,0.2397,0.2194,0.1119,
0.923904,-0.3823,0.5248,0.5766,0.7071,0.1350,-1.5089,0.0863,0.3398,0.1316,
0.943517,-0.4314,0.5524,0.9034,0.7071,0.1350,-1.5089,0.0863,0.3398,0.1316,
0.946099,-0.4314,0.5524,0.9034,0.2676,0.3353,1.7705,0.0863,0.3398,0.1316,
0.947969,-0.4314,0.5524,0.9034,0.2676,0.3353,1.7705,0.2929,0.3590,0.3159,
0.964069,-0.4314,0.5524,0.9034,0.2676,0.3353,1.7705,0.3643,0.3936,0.2988,
0.984207,-0.4703,0.6701,0.6157,0.2676,0.3353,1.7705,0.3643,0.3936,0.2988,
0.986250,-0.4703,0.6701,0.6157,-0.0800,1.3273,-0.9094,0.3643,0.3936,0.2988,
0.988175,-0.4703,0.6701,0.6157,-0.0800,1.3273,-0.9094,0.4101,0.4511,0.2312,
1.003933,-0.4703,0.6701,0.6157,-0.0800,1.3273,-0.9094,0.5151,0.1886,0.0527,
1.024011,-0.4950,0.7466,0.3643,-0.0800,1.3273,-0.9094,0.5151,0.1886,0.0527,
1.026365,-0.4950,0.7466,0.3643,-0.2604,1.8807,-3.1793,0.5151,0.1886,0.0527,
1.028271,-0.4950,0.7466,0.3643,-0.2604,1.8807,-3.1793,0.2035,0.5151,0.0543,
1.043466,-0.4950,0.7466,0.3643,-0.2604,1.8807,-3.1793,0.2759,1.0994,0.3052,
1.064211,-0.4901,0.9242,0.8797,-0.2604,1.8807,-3.1793,0.2759,1.0994,0.3052,
1.067969,-0.4901,0.9242,0.8797,-0.0377,3.5238,2.0759,0.2759,1.0994,0.3052,
1.069658,-0.4901,0.9242,0.8797,-0.0377,3.5238,2.0759,0.9752,1.4621,0.1316,
1.084245,-0.4901,0.9242,0.8797,-0.0377,3.5238,2.0759,1.5452,1.9627,-0.1449,
1.103855,-0.5194,0.9049,0.2084,-0.0377,3.5238,2.0759,1.5452,1.9627,-0.1449,
1.105908,-0.5194,0.9049,0.2084,0.0998,3.0096,-3.8665,1.5452,1.9627,-0.1449,
1.107759,-0.5194,0.9049,0.2084,0.0998,3.0096,-3.8665,0.9950,2.2674,-0.0623,
1.123532,-0.5194,0.9049,0.2084,0.0998,3.0096,-3.8665,0.2732,2.2136,0.0724,
1.143762,-0.6806,0.7857,0.7236,0.0998,3.0096,-3.8665,0.2732,2.2136,0.0724,
1.145837,-0.6806,0.7857,0.7236,-0.9833,1.6965,1.8199,0.2732,2.2136,0.0724,
1.147710,-0.6806,0.7857,0.7236,-0.9833,1.6965,1.8199,0.6946,2.1992,-0.0378,
1.162702,-0.6806,0.7857,0.7236,-0.9833,1.6965,1.8199,0.6131,2.0368,0.1992,
1.184444,-0.5499,0.6398,0.4608,-0.9833,1.6965,1.8199,0.6131,2.0368,0.1992,
1.188676,-0.5499,0.6398,0.4608,0.6860,0.1107,-0.1018,0.6131,2.0368,0.1992,
1.190734,-0.5499,0.6398,0.4608,0.6860,0.1107,-0.1018,0.0597,2.0714,0.3601,
1.203243,-0.5499,0.6398,0.4608,0.6860,0.1107,-0.1018,0.8192,2.9295,0.1971,
1.223616,-0.6025,0.7835,0.2700,0.6860,0.1107,-0.1018,0.8192,2.9295,0.1971,
1.225632,-0.6025,0.7835,0.2700,0.5075,1.3564,-1.2399,0.8192,2.9295,0.1971,
1.227491,-0.6025,0.7835,0.2700,0.5075,1.3564,-1.2399,1.7007,3.0461,0.3878,
1.244227,-0.6025,0.7835,0.2700,0.5075,1.3564,-1.2399,1.8685,2.3782,1.0253,
1.263069,-0.4827,0.8614,0.1590,0.5075,1.3564,-1.2399,1.8685,2.3782,1.0253,
1.266057,-0.4827,0.8614,0.1590,1.8108,1.6628,-1.1652,1.8685,2.3782,1.0253,
1.268050,-0.4827,0.8614,0.1590,1.8108,1.6628,-1.1652,1.8946,2.6925,1.6213,
1.282659,-0.4827,0.8614,0.1590,1.8108,1.6628,-1.1652,1.8184,3.2070,1.9617,
1.302979,-0.4930,0.7659,0.0711,1.8108,1.6628,-1.1652,1.8184,3.2070,1.9617,
1.305865,-0.4930,0.7659,0.0711,1.4218,0.0938,-0.7623,1.8184,3.2070,1.9617,
1.307825,-0.4930,0.7659,0.0711,1.4218,0.0938,-0.7623,1.3912,3.0078,2.0176,
1.323388,-0.4930,0.7659,0.0711,1.4218,0.0938,-0.7623,1.2474,2.8102,1.9265,
1.342532,-0.4708,0.8155,0.2621,1.4218,0.0938,-0.7623,1.2474,2.8102,1.9265,
1.345008,-0.4708,0.8155,0.2621,1.1236,0.0491,2.1587,1.2474,2.8102,1.9265,
1.346709,-0.4708,0.8155,0.2621,1.1236,0.0491,2.1587,1.5004,1.8386,2.0059,
1.363473,-0.4708,0.8155,0.2621,1.1236,0.0491,2.1587,1.3316,1.0717,1.9686,
1.383500,-0.3745,0.7400,0.1319,1.1236,0.0491,2.1587,1.3316,1.0717,1.9686,
1.386316,-0.3745,0.7400,0.1319,1.4206,-1.1220,1.6504,1.3316,1.0717,1.9686,
1.388304,-0.3745,0.7400,0.1319,1.4206,-1.1220,1.6504,1.0860,1.0418,1.6416,
1.402991,-0.3745,0.7400,0.1319,1.4206,-1.1220,1.6504,0.9460,0.9417,1.5132,
1.423112,-0.3012,0.6582,0.0623,1.4206,-1.1220,1.6504,0.9460,0.9417,1.5132,
1.425663,-0.3012,0.6582,0.0623,1.5774,-2.2019,1.5043,0.9460,0.9417,1.5132,
1.427662,-0.3012,0.6582,0.0623,1.5774,-2.2019,1.5043,0.6823,0.6221,1.3476,
1.442860,-0.3012,0.6582,0.0623,1.5774,-2.2019,1.5043,0.2567,1.2123,0.6408,
1.463735,-0.5297,0.7806,0.1608,1.5774,-2.2019,1.5043,0.2567,1.2123,0.6408,
1.466497,-0.5297,0.7806,0.1608,-1.0476,-1.1557,2.7896,0.2567,1.2123,0.6408,
1.468487,-0.5297,0.7806,0.1608,-1.0476,-1.1557,2.7896,0.1582,-0.4208,0.9326,
1.482603,-0.5297,0.7806,0.1608,-1.0476,-1.1557,2.7896,-0.2258,-0.8799,0.8426,
1.502467,-0.3401,0.6428,-0.0684,-1.0476,-1.1557,2.7896,-0.2258,-0.8799,0.8426,
1.505518,-0.3401,0.6428,-0.0684,0.5261,-2.6492,0.4283,-0.2258,-0.8799,0.8426,
1.507457,-0.3401,0.6428,-0.0684,0.5261,-2.6492,0.4283,-0.8181,-0.5129,0.4016,
1.522678,-0.3401,0.6428,-0.0684,0.5261,-2.6492,0.4283,-1.3774,-0.6557,0.3020,
1.543056,-0.4473,0.7808,-0.0640,0.5261,-2.6492,0.4283,-1.3774,-0.6557,0.3020,
1.545197,-0.4473,0.7808,-0.0640,-0.6310,-1.3874,-0.0120,-1.3774,-0.6557,0.3020,
1.547381,-0.4473,0.7808,-0.0640,-0.6310,-1.3874,-0.0120,-1.8738,-1.2037,0.3084,
1.563533,-0.4473,0.7808,-0.0640,-0.6310,-1.3874,-0.0120,-2.1854,-1.4706,0.0133,
1.582639,-0.4720,0.8214,0.1659,-0.6310,-1.3874,-0.0120,-2.1854,-1.4706,0.0133,
1.584911,-0.4720,0.8214,0.1659,-0.9233,-1.0260,1.3072,-2.1854,-1.4706,0.0133,
1.586874,-0.4720,0.8214,0.1659,-0.9233,-1.0260,1.3072,-1.9654,-1.3587,-0.2237,
1.603481,-0.4720,0.8214,0.1659,-0.9233,-1.0260,1.3072,-1.7380,-1.6016,-0.3345,
1.623260,-0.5174,0.8692,-0.0193,-0.9233,-1.0260,1.3072,-1.7380,-1.6016,-0.3345,
1.625410,-0.5174,0.8692,-0.0193,-1.2935,-0.4524,-1.3819,-1.7380,-1.6016,-0.3345,
1.627512,-0.5174,0.8692,-0.0193,-1.2935,-0.4524,-1.3819,-1.7300,-1.4083,-0.6147,
1.642654,-0.5174,0.8692,-0.0193,-1.2935,-0.4524,-1.3819,-1.7513,-1.3465,-0.9326,
1.662655,-0.6951,0.9286,-0.1129,-1.2935,-0.4524,-1.3819,-1.7513,-1.3465,-0.9326,
1.664958,-0.6951,0.9286,-0.1129,-2.8122,0.3656,-3.0757,-1.7513,-1.3465,-0.9326,
1.667022,-0.6951,0.9286,-0.1129,-2.8122,0.3656,-3.0757,-1.9010,-1.5611,-1.2597,
1.682838,-0.6951,0.9286,-0.1129,-2.8122,0.3656,-3.0757,-1.9910,-1.1888,-1.7806,
1.702399,-0.6562,1.0273,0.1170,-2.8122,0.3656,-3.0757,-1.9910,-1.1888,-1.7806,
1.704760,-0.6562,1.0273,0.1170,-2.0459,1.7755,-1.7141,-1.9910,-1.1888,-1.7806,
1.706531,-0.6562,1.0273,0.1170,-2.0459,1.7755,-1.7141,-1.6176,-1.0280,-2.1721,
1.722836,-0.6562,1.0273,0.1170,-2.0459,1.7755,-1.7141,-0.6599,-0.6168,-2.2046,
1.742834,-0.5568,0.8297,0.1424,-2.0459,1.7755,-1.7141,-0.6599,-0.6168,-2.2046,
1.745575,-0.5568,0.8297,0.1424,-0.4677,0.3809,-1.9544,-0.6599,-0.6168,-2.2046,
1.747778,-0.5568,0.8297,0.1424,-0.4677,0.3809,-1.9544,0.1747,-0.3606,-2.0826,
1.764049,-0.5568,0.8297,0.1424,-0.4677,0.3809,-1.9544,0.9033,-0.0490,-2.0714,
1.782761,-0.6428,0.6709,-0.0396,-0.4677,0.3809,-1.9544,0.9033,-0.0490,-2.0714,
1.784876,-0.6428,0.6709,-0.0396,-0.6909,-0.8312,-3.5302,0.9033,-0.0490,-2.0714,
1.786896,-0.6428,0.6709,-0.0396,-0.6909,-0.8312,-3.5302,1.2575,0.1449,-2.2807,
1.802610,-0.6428,0.6709,-0.0396,-0.6909,-0.8312,-3.5302,1.5883,-0.4938,-1.8823,
1.822772,0.0941,0.8341,0.0520,-0.6909,-0.8312,-3.5302,1.5883,-0.4938,-1.8823,
1.824999,0.0941,0.8341,0.0520,7.1125,1.0925,-2.2651,1.5883,-0.4938,-1.8823,
1.826871,0.0941,0.8341,0.0520,7.1125,1.0925,-2.2651,1.9153,-0.6349,-0.9049,
1.843142,0.0941,0.8341,0.0520,7.1125,1.0925,-2.2651,2.0000,0.0559,-0.5657,
1.861982,-0.5634,0.5707,0.0821,7.1125,1.0925,-2.2651,2.0000,0.0559,-0.5657,
1.864478,-0.5634,0.5707,0.0821,0.8464,-1.5042,-1.4888,2.0000,0.0559,-0.5657,
1.866623,-0.5634,0.5707,0.0821,0.8464,-1.5042,-1.4888,1.7481,0.8197,-1.0402,
1.882324,-0.5634,0.5707,0.0821,0.8464,-1.5042,-1.4888,1.1697,0.8357,-1.5436,
1.902295,-0.8358,0.8106,0.4564,0.8464,-1.5042,-1.4888,1.1697,0.8357,-1.5436,
1.904815,-0.8358,0.8106,0.4564,-1.4253,1.0483,2.7839,1.1697,0.8357,-1.5436,
1.906491,-0.8358,0.8106,0.4564,-1.4253,1.0483,2.7839,0.8352,0.6237,-1.6980,
1.922701,-0.8358,0.8106,0.4564,-1.4253,1.0483,2.7839,0.3372,0.9806,-1.7018,
1.942548,-0.9486,0.4586,-0.1163,-1.4253,1.0483,2.7839,0.3372,0.9806,-1.7018,
1.945231,-0.9486,0.4586,-0.1163,-2.0230,-1.9559,-2.4293,0.3372,0.9806,-1.7018,
1.947332,-0.9486,0.4586,-0.1163,-2.0230,-1.9559,-2.4293,-0.4384,0.7175,-1.0504,
1.962958,-0.9486,0.4586,-0.1163,-2.0230,-1.9559,-2.4293,-0.5854,-0.3302,-0.5800,
1.982459,-0.3635,0.4642,0.2355,-2.0230,-1.9559,-2.4293,-0.5854,-0.3302,-0.5800,
1.985505,-0.3635,0.4642,0.2355,3.9264,-1.6340,0.9457,-0.5854,-0.3302,-0.5800,
1.987633,-0.3635,0.4642,0.2355,3.9264,-1.6340,0.9457,0.7089,0.2903,-0.5497,
2.001973,-0.3635,0.4642,0.2355,3.9264,-1.6340,0.9457,1.2352,0.7207,-0.1774,
2.022400,-0.6911,0.4346,0.1539,3.9264,-1.6340,0.9457,1.2352,0.7207,-0.1774,
2.025605,-0.6911,0.4346,0.1539,0.8284,-1.8598,0.5369,1.2352,0.7207,-0.1774,
2.027679,-0.6911,0.4346,0.1539,0.8284,-1.8598,0.5369,1.2613,0.2131,0.7601,
2.041985,-0.6911,0.4346,0.1539,0.8284,-1.8598,0.5369,0.9811,-0.2551,1.8173,
2.062660,-0.3557,1.0166,0.2902,0.8284,-1.8598,0.5369,0.9811,-0.2551,1.8173,
2.064599,-0.3557,1.0166,0.2902,3.7834,3.4175,2.1423,0.9811,-0.2551,1.8173,
2.066344,-0.3557,1.0166,0.2902,3.7834,3.4175,2.1423,1.0408,-0.6764,1.4141,
2.082837,-0.3557,1.0166,0.2902,3.7834,3.4175,2.1423,2.1018,0.4677,0.9875,
2.101960,-0.4551,0.8966,0.0100,3.7834,3.4175,2.1423,2.1018,0.4677,0.9875,
2.104427,-0.4551,0.8966,0.0100,2.4545,1.8405,-0.2259,2.1018,0.4677,0.9875,
2.106370,-0.4551,0.8966,0.0100,2.4545,1.8405,-0.2259,2.6520,1.1350,1.0551,
2.121969,-0.4551,0.8966,0.0100,2.4545,1.8405,-0.2259,2.4895,1.4594,1.4061,
2.141598,-0.7087,0.8319,-0.5189,2.4545,1.8405,-0.2259,2.4895,1.4594,1.4061,
2.144899,-0.7087,0.8319,-0.5189,-0.4231,0.8708,-4.3054,2.4895,1.4594,1.4061,
2.147142,-0.7087,0.8319,-0.5189,-0.4231,0.8708,-4.3054,1.8823,0.6365,2.2765,
2.161962,-0.7087,0.8319,-0.5189,-0.4231,0.8708,-4.3054,1.3737,-0.9667,2.8416,
2.181908,-0.5140,1.0473,-0.5507,-0.4231,0.8708,-4.3054,1.3737,-0.9667,2.8416,
2.184734,-0.5140,1.0473,-0.5507,0.7226,2.4238,-4.1620,1.3737,-0.9667,2.8416,
2.186767,-0.5140,1.0473,-0.5507,0.7226,2.4238,-4.1620,1.0754,-1.8637,2.9476,
2.201922,-0.5140,1.0473,-0.5507,0.7226,2.4238,-4.1620,0.7840,-1.1516,2.3255,
2.222384,-0.2467,0.7214,-0.4432,0.7226,2.4238,-4.1620,0.7840,-1.1516,2.3255,
2.224470,-0.2467,0.7214,-0.4432,2.5365,-1.2926,-3.0439,0.7840,-1.1516,2.3255,
2.226369,-0.2467,0.7214,-0.4432,2.5365,-1.2926,-3.0439,0.3680,-0.2546,2.1066,
2.241899,-0.2467,0.7214,-0.4432,2.5365,-1.2926,-3.0439,-0.0735,0.2115,2.2621,
2.261539,-0.4488,1.0561,-0.0821,2.5365,-1.2926,-3.0439,-0.0735,0.2115,2.2621,
2.264788,-0.4488,1.0561,-0.0821,-0.1923,1.5964,0.5569,-0.0735,0.2115,2.2621,
2.267036,-0.4488,1.0561,-0.0821,-0.1923,1.5964,0.5569,-0.1667,0.2983,2.7958,
2.281761,-0.4488,1.0561,-0.0821,-0.1923,1.5964,0.5569,-0.2274,-0.2961,3.0056,
2.301877,-0.4395,1.2206,-0.1058,-0.1923,1.5964,0.5569,-0.2274,-0.2961,3.0056,
2.303948,-0.4395,1.2206,-0.1058,-1.1421,2.7702,0.2571,-0.2274,-0.2961,3.0056,
2.305705,-0.4395,1.2206,-0.1058,-1.1421,2.7702,0.2571,-0.0091,-0.5204,2.4432,
2.322402,-0.4395,1.2206,-0.1058,-1.1421,2.7702,0.2571,0.4410,-0.5960,1.8434,
2.341476,-0.4669,0.8184,-0.3721,-1.1421,2.7702,0.2571,0.4410,-0.5960,1.8434,
2.343520,-0.4669,0.8184,-0.3721,-2.1689,-1.3941,-2.3262,0.4410,-0.5960,1.8434,
2.345538,-0.4669,0.8184,-0.3721,-2.1689,-1.3941,-2.3262,0.4202,-1.1212,1.1798,
2.361721,-0.4669,0.8184,-0.3721,-2.1689,-1.3941,-2.3262,0.3451,-0.7920,1.2671,
2.381288,-0.3108,1.0735,-0.3990,-2.1689,-1.3941,-2.3262,0.3451,-0.7920,1.2671,
2.384033,-0.3108,1.0735,-0.3990,-1.0499,1.0183,-2.5301,0.3451,-0.7920,1.2671,
2.386088,-0.3108,1.0735,-0.3990,-1.0499,1.0183,-2.5301,0.1321,0.0208,1.2251,
2.401999,-0.3108,1.0735,-0.3990,-1.0499,1.0183,-2.5301,-0.1076,-0.4304,1.2847,
2.421811,0.0183,1.1580,-0.2157,-1.0499,1.0183,-2.5301,-0.1076,-0.4304,1.2847,
2.424414,0.0183,1.1580,-0.2157,1.7079,1.7592,-0.7433,-0.1076,-0.4304,1.2847,
2.426241,0.0183,1.1580,-0.2157,1.7079,1.7592,-0.7433,-0.1502,-0.3047,0.8639,
2.441445,0.0183,1.1580,-0.2157,1.7079,1.7592,-0.7433,-0.1411,0.2764,0.1358,
2.462269,0.3142,1.0930,-0.4288,1.7079,1.7592,-0.7433,-0.1411,0.2764,0.1358,
2.464704,0.3142,1.0930,-0.4288,4.4165,1.0859,-2.8883,-0.1411,0.2764,0.1358,
2.466456,0.3142,1.0930,-0.4288,4.4165,1.0859,-2.8883,-0.3915,0.8735,0.3190,
2.481692,0.3142,1.0930,-0.4288,4.4165,1.0859,-2.8883,-0.3925,1.1286,0.0032,
2.501824,0.2634,1.0412,-0.2304,4.4165,1.0859,-2.8883,-0.3925,1.1286,0.0032,
2.503863,0.2634,1.0412,-0.2304,3.8062,0.5502,-1.0446,-0.3925,1.1286,0.0032,
2.505573,0.2634,1.0412,-0.2304,3.8062,0.5502,-1.0446,-0.3105,0.8964,0.3372,
2.521969,0.2634,1.0412,-0.2304,3.8062,0.5502,-1.0446,-0.2423,0.6823,-0.1912,
2.541937,-0.0559,0.9853,-0.2536,3.8062,0.5502,-1.0446,-0.2423,0.6823,-0.1912,
2.544061,-0.0559,0.9853,-0.2536,0.5910,-0.0148,-1.3228,-0.2423,0.6823,-0.1912,
2.545949,-0.0559,0.9853,-0.2536,0.5910,-0.0148,-1.3228,-0.0783,1.0365,-0.7515,
2.561320,-0.0559,0.9853,-0.2536,0.5910,-0.0148,-1.3228,-0.0644,1.0690,-1.0653,
2.581202,-0.0271,0.8771,-0.4845,0.5910,-0.0148,-1.3228,-0.0644,1.0690,-1.0653,
2.583484,-0.0271,0.8771,-0.4845,1.1384,-1.0303,-3.5035,-0.0644,1.0690,-1.0653,
2.585303,-0.0271,0.8771,-0.4845,1.1384,-1.0303,-3.5035,-0.2413,1.0456,-1.3486,
2.601578,-0.0271,0.8771,-0.4845,1.1384,-1.0303,-3.5035,-0.4554,0.7627,-1.4461,
2.621435,-0.4063,0.7146,-0.3865,1.1384,-1.0303,-3.5035,-0.4554,0.7627,-1.4461,
2.623644,-0.4063,0.7146,-0.3865,-2.0876,-2.5418,-2.5712,-0.4554,0.7627,-1.4461,
2.625585,-0.4063,0.7146,-0.3865,-2.0876,-2.5418,-2.5712,-0.2397,0.9103,-1.0115,
2.641903,-0.2560,0.7600,-0.6147,-2.0876,-2.5418,-2.5712,-0.2397,0.9103,-1.0115,
2.644957,-0.2560,0.7600,-0.6147,-0.4444,-2.0622,-4.8170,-0.2397,0.9103,-1.0115,
2.647254,-0.2560,0.7600,-0.6147,-0.4444,-2.0622,-4.8170,-0.1694,0.4879,-0.6429,
2.661000,-0.0508,0.8392,-0.4544,-0.4444,-2.0622,-4.8170,-0.1694,0.4879,-0.6429,
2.663692,-0.0508,0.8392,-0.4544,1.6770,-1.2633,-3.2579,-0.1694,0.4879,-0.6429,
2.665269,-0.0508,0.8392,-0.4544,1.6770,-1.2633,-3.2579,-0.3483,0.7867,-0.8341,
2.681172,0.0298,0.8961,-0.1932,1.6770,-1.2633,-3.2579,-0.3483,0.7867,-0.8341,
2.683404,0.0298,0.8961,-0.1932,2.6064,-0.6763,-0.7291,-0.3483,0.7867,-0.8341,
2.685232,0.0298,0.8961,-0.1932,2.6064,-0.6763,-0.7291,-0.2035,0.8911,-1.4115,
2.701523,-0.1881,0.9914,-0.1502,2.6064,-0.6763,-0.7291,-0.2035,0.8911,-1.4115,
2.702959,-0.1881,0.9914,-0.1502,0.7156,0.3214,-0.3027,-0.2035,0.8911,-1.4115,
2.704027,-0.1881,0.9914,-0.1502,0.7156,0.3214,-0.3027,0.0746,0.5934,-1.6123,
2.721314,-0.4713,1.1346,-0.4146,0.7156,0.3214,-0.3027,0.0746,0.5934,-1.6123,
2.723832,-0.4713,1.1346,-0.4146,-1.7721,1.8132,-2.8472,0.0746,0.5934,-1.6123,
2.725257,-0.4713,1.1346,-0.4146,-1.7721,1.8132,-2.8472,0.0011,0.8165,-1.4397,
2.742399,-0.5196,1.1365,-0.3469,-1.7721,1.8132,-2.8472,0.0011,0.8165,-1.4397,
2.744555,-0.5196,1.1365,-0.3469,-2.0002,1.9177,-2.1354,0.0011,0.8165,-1.4397,
2.746372,-0.5196,1.1365,-0.3469,-2.0002,1.9177,-2.1354,-0.3393,1.4658,-1.0802,
2.761363,-0.3963,0.9848,-0.1578,-2.0002,1.9177,-2.1354,-0.3393,1.4658,-1.0802,
2.763568,-0.3963,0.9848,-0.1578,-0.6305,0.4907,-0.2517,-0.3393,1.4658,-1.0802,
2.765398,-0.3963,0.9848,-0.1578,-0.6305,0.4907,-0.2517,-0.4666,1.0834,-0.9582,
2.781466,-0.3909,0.8714,-0.1036,-0.6305,0.4907,-0.2517,-0.4666,1.0834,-0.9582,
2.783745,-0.3909,0.8714,-0.1036,-0.4307,-0.5685,0.2666,-0.4666,1.0834,-0.9582,
2.785606,-0.3909,0.8714,-0.1036,-0.4307,-0.5685,0.2666,-0.4304,0.5151,-0.9982,
2.802349,-0.4036,0.8387,-0.0515,-0.4307,-0.5685,0.2666,-0.4304,0.5151,-0.9982,
2.804558,-0.4036,0.8387,-0.0515,-0.3873,-0.8308,0.7344,-0.4304,0.5151,-0.9982,
2.806427,-0.4036,0.8387,-0.0515,-0.3873,-0.8308,0.7344,-0.4607,0.2216,-0.9023,
2.821536,-0.4053,0.8749,-0.0310,-0.3873,-0.8308,0.7344,-0.4607,0.2216,-0.9023,
2.823789,-0.4053,0.8749,-0.0310,-0.2469,-0.4219,0.8687,-0.4607,0.2216,-0.9023,
2.825613,-0.4053,0.8749,-0.0310,-0.2469,-0.4219,0.8687,-0.5119,0.1081,-0.8266,
2.841779,-0.4092,0.9227,-0.0352,-0.2469,-0.4219,0.8687,-0.5119,0.1081,-0.8266,
2.844040,-0.4092,0.9227,-0.0352,-0.1404,0.0982,0.7447,-0.5119,0.1081,-0.8266,
2.845832,-0.4092,0.9227,-0.0352,-0.1404,0.0982,0.7447,-0.6136,0.1401,-0.8352,
2.861192,-0.4891,0.9745,-0.0235,-0.1404,0.0982,0.7447,-0.6136,0.1401,-0.8352,
2.863095,-0.4891,0.9745,-0.0235,-0.7780,0.6585,0.7606,-0.6136,0.1401,-0.8352,
2.864823,-0.4891,0.9745,-0.0235,-0.7780,0.6585,0.7606,-0.8032,0.2365,-0.8181,
2.881627,-0.5282,1.0107,0.0489,-0.7780,0.6585,0.7606,-0.8032,0.2365,-0.8181,
2.883656,-0.5282,1.0107,0.0489,-1.0207,1.0643,1.3427,-0.8032,0.2365,-0.8181,
2.885671,-0.5282,1.0107,0.0489,-1.0207,1.0643,1.3427,-0.9955,0.1870,-0.7052,
2.901429,-0.5353,1.0637,0.1278,-1.0207,1.0643,1.3427,-0.9955,0.1870,-0.7052,
2.903564,-0.5353,1.0637,0.1278,-0.9690,1.6274,1.9551,-0.9955,0.1870,-0.7052,
2.905442,-0.5353,1.0637,0.1278,-0.9690,1.6274,1.9551,-1.0637,-0.1806,-0.4991,
2.921257,-0.5084,1.0713,0.1852,-0.9690,1.6274,1.9551,-1.0637,-0.1806,-0.4991,
2.922587,-0.5084,1.0713,0.1852,-0.6159,1.7320,2.3154,-1.0637,-0.1806,-0.4991,
2.923565,-0.5084,1.0713,0.1852,-0.6159,1.7320,2.3154,-0.9577,-0.4432,-0.2834,
2.941477,-0.4615,1.0383,0.2453,-0.6159,1.7320,2.3154,-0.9577,-0.4432,-0.2834,
2.943640,-0.4615,1.0383,0.2453,-0.1031,1.4260,2.6982,-0.9577,-0.4432,-0.2834,
2.945340,-0.4615,1.0383,0.2453,-0.1031,1.4260,2.6982,-0.6871,-0.5289,-0.1337,
2.961243,-0.4065,0.9697,0.2433,-0.1031,1.4260,2.6982,-0.6871,-0.5289,-0.1337,
2.964246,-0.4065,0.9697,0.2433,0.4612,0.7622,2.5121,-0.6871,-0.5289,-0.1337,
2.966035,-0.4065,0.9697,0.2433,0.4612,0.7622,2.5121,-0.3478,-0.5710,-0.0746,
2.980838,-0.3787,0.8966,0.1781,0.4612,0.7622,2.5121,-0.3478,-0.5710,-0.0746,
2.982866,-0.3787,0.8966,0.1781,0.7458,0.0513,1.7550,-0.3478,-0.5710,-0.0746,
2.984483,-0.3787,0.8966,0.1781,0.7458,0.0513,1.7550,-0.0911,-0.4591,-0.0644,
3.001600,-0.3794,0.8380,0.0726,0.7458,0.0513,1.7550,-0.0911,-0.4591,-0.0644,
3.003619,-0.3794,0.8380,0.0726,0.7497,-0.5175,0.6638,-0.0911,-0.4591,-0.0644,
3.005344,-0.3794,0.8380,0.0726,0.7497,-0.5175,0.6638,0.0426,-0.0506,-0.0362,
3.021534,-0.3860,0.7923,-0.0210,0.7497,-0.5175,0.6638,0.0426,-0.0506,-0.0362,
3.022867,-0.3860,0.7923,-0.0210,0.6914,-0.9620,-0.2503,0.0426,-0.0506,-0.0362,
3.023892,-0.3860,0.7923,-0.0210,0.6914,-0.9620,-0.2503,-0.0091,0.3185,0.0107,
3.041103,-0.4055,0.7556,-0.1085,0.6914,-0.9620,-0.2503,-0.0091,0.3185,0.0107,
3.043025,-0.4055,0.7556,-0.1085,0.4982,-1.3221,-1.0805,-0.0091,0.3185,0.0107,
3.044553,-0.4055,0.7556,-0.1085,0.4982,-1.3221,-1.0805,-0.1971,0.5246,0.0820,
3.061300,-0.4390,0.7625,-0.1329,0.4982,-1.3221,-1.0805,-0.1971,0.5246,0.0820,
3.064058,-0.4390,0.7625,-0.1329,0.1560,-1.2623,-1.3075,-0.1971,0.5246,0.0820,
3.065855,-0.4390,0.7625,-0.1329,0.1560,-1.2623,-1.3075,-0.4597,0.5758,0.1539,
3.081699,-0.4427,0.7798,-0.1246,0.1560,-1.2623,-1.3075,-0.4597,0.5758,0.1539,
3.083940,-0.4427,0.7798,-0.1246,0.0934,-1.1058,-1.2552,-0.4597,0.5758,0.1539,
3.085815,-0.4427,0.7798,-0.1246,0.0934,-1.1058,-1.2552,-0.6344,0.4591,0.2221,
3.101306,-0.4598,0.8013,-0.1082,0.0934,-1.1058,-1.2552,-0.6344,0.4591,0.2221,
3.103589,-0.4598,0.8013,-0.1082,-0.1113,-0.9133,-1.1618,-0.6344,0.4591,0.2221,
3.105552,-0.4598,0.8013,-0.1082,-0.1113,-0.9133,-1.1618,-0.6349,0.3563,0.1917,
3.121371,-0.4862,0.8358,-0.0953,-0.1113,-0.9133,-1.1618,-0.6349,0.3563,0.1917,
3.122815,-0.4862,0.8358,-0.0953,-0.4000,-0.5896,-1.1085,-0.6349,0.3563,0.1917,
3.123881,-0.4862,0.8358,-0.0953,-0.4000,-0.5896,-1.1085,-0.4820,0.2967,0.1502,
3.142175,-0.4942,0.8624,-0.1136,-0.4000,-0.5896,-1.1085,-0.4820,0.2967,0.1502,
3.144491,-0.4942,0.8624,-0.1136,-0.4995,-0.3377,-1.3354,-0.4820,0.2967,0.1502,
3.146531,-0.4942,0.8624,-0.1136,-0.4995,-0.3377,-1.3354,-0.2711,0.1523,0.1726,
3.160724,-0.4842,0.8473,-0.1522,-0.4995,-0.3377,-1.3354,-0.2711,0.1523,0.1726,
3.162990,-0.4842,0.8473,-0.1522,-0.4249,-0.4973,-1.7321,-0.2711,0.1523,0.1726,
3.164963,-0.4842,0.8473,-0.1522,-0.4249,-0.4973,-1.7321,-0.0735,0.0895,0.1790,
3.180787,-0.4710,0.8184,-0.1950,-0.4249,-0.4973,-1.7321,-0.0735,0.0895,0.1790,
3.182993,-0.4710,0.8184,-0.1950,-0.3199,-0.7921,-2.1374,-0.0735,0.0895,0.1790,
3.185037,-0.4710,0.8184,-0.1950,-0.3199,-0.7921,-2.1374,0.0794,0.1262,0.1928,
3.201296,-0.4503,0.8101,-0.2113,-0.3199,-0.7921,-2.1374,0.0794,0.1262,0.1928,
3.203646,-0.4503,0.8101,-0.2113,-0.1435,-0.8876,-2.2530,0.0794,0.1262,0.1928,
3.205566,-0.4503,0.8101,-0.2113,-0.1435,-0.8876,-2.2530,0.1779,0.1726,0.2237,
3.221314,-0.4495,0.8443,-0.1722,-0.1435,-0.8876,-2.2530,0.1779,0.1726,0.2237,
3.224232,-0.4495,0.8443,-0.1722,-0.1687,-0.5692,-1.8027,0.1779,0.1726,0.2237,
3.226330,-0.4495,0.8443,-0.1722,-0.1687,-0.5692,-1.8027,0.2461,0.1198,0.2583,
3.240916,-0.4583,0.8942,-0.0970,-0.1687,-0.5692,-1.8027,0.2461,0.1198,0.2583,
3.243257,-0.4583,0.8942,-0.0970,-0.2933,-0.0997,-0.9899,0.2461,0.1198,0.2583,
3.245236,-0.4583,0.8942,-0.0970,-0.2933,-0.0997,-0.9899,0.3015,0.0325,0.2487,
3.260758,-0.4881,0.9831,-0.0454,-0.2933,-0.0997,-0.9899,0.3015,0.0325,0.2487,
3.263107,-0.4881,0.9831,-0.0454,-0.6214,0.7548,-0.4082,0.3015,0.0325,0.2487,
3.264956,-0.4881,0.9831,-0.0454,-0.6214,0.7548,-0.4082,0.3217,-0.0511,0.2317,
3.280083,-0.5277,1.0942,-0.0450,-0.6214,0.7548,-0.4082,0.3217,-0.0511,0.2317,
3.282250,-0.5277,1.0942,-0.0450,-1.0504,1.8254,-0.3505,0.3217,-0.0511,0.2317,
3.283778,-0.5277,1.0942,-0.0450,-1.0504,1.8254,-0.3505,0.3361,-0.1305,0.2381,
3.300766,-0.5265,1.1668,-0.0738,-1.0504,1.8254,-0.3505,0.3361,-0.1305,0.2381,
3.303016,-0.5265,1.1668,-0.0738,-1.0805,2.5177,-0.5839,0.3361,-0.1305,0.2381,
3.304814,-0.5265,1.1668,-0.0738,-1.0805,2.5177,-0.5839,0.3180,-0.2306,0.2642,
3.320572,-0.5719,1.1907,-0.1673,-1.0805,2.5177,-0.5839,0.3180,-0.2306,0.2642,
3.322793,-0.5719,1.1907,-0.1673,-1.5722,2.7320,-1.4628,0.3180,-0.2306,0.2642,
3.324656,-0.5719,1.1907,-0.1673,-1.5722,2.7320,-1.4628,0.3063,-0.2349,0.3036,
3.340600,-0.6105,1.1150,-0.2394,-1.5722,2.7320,-1.4628,0.3063,-0.2349,0.3036,
3.342875,-0.6105,1.1150,-0.2394,-2.0038,1.9667,-2.1332,0.3063,-0.2349,0.3036,
3.344750,-0.6105,1.1150,-0.2394,-2.0038,1.9667,-2.1332,0.4107,-0.1124,0.3190,
3.360602,-0.6865,1.1912,-0.2937,-2.0038,1.9667,-2.1332,0.4107,-0.1124,0.3190,
3.363008,-0.6865,1.1912,-0.2937,-2.8050,2.6905,-2.6000,0.4107,-0.1124,0.3190,
3.364813,-0.6865,1.1912,-0.2937,-2.8050,2.6905,-2.6000,0.6306,-0.2338,0.3302,
3.380655,-0.6714,1.2499,-0.2511,-2.8050,2.6905,-2.6000,0.6306,-0.2338,0.3302,
3.383157,-0.6714,1.2499,-0.2511,-2.7144,3.2435,-2.0883,0.6306,-0.2338,0.3302,
3.384978,-0.6714,1.2499,-0.2511,-2.7144,3.2435,-2.0883,0.6557,-0.0597,0.2184,
3.400658,-0.5695,1.1634,-0.0713,-2.7144,3.2435,-2.0883,0.6557,-0.0597,0.2184,
3.403202,-0.5695,1.1634,-0.0713,-1.7548,2.3848,-0.2127,0.6557,-0.0597,0.2184,
3.405020,-0.5695,1.1634,-0.0713,-1.7548,2.3848,-0.2127,0.5246,-0.0463,0.1145,
3.420876,-0.3870,0.9706,0.0533,-1.7548,2.3848,-0.2127,0.5246,-0.0463,0.1145,
3.422458,-0.3870,0.9706,0.0533,0.0135,0.4926,1.0993,0.5246,-0.0463,0.1145,
3.423370,-0.3870,0.9706,0.0533,0.0135,0.4926,1.0993,0.5396,-0.3787,0.1113,
3.442741,-0.2318,0.8243,0.1761,0.0135,0.4926,1.0993,0.5396,-0.3787,0.1113,
3.444623,-0.2318,0.8243,0.1761,1.5184,-0.9433,2.3721,0.5396,-0.3787,0.1113,
3.446489,-0.2318,0.8243,0.1761,1.5184,-0.9433,2.3721,0.6546,-0.8080,0.0208,
3.460909,-0.0970,0.7886,0.2766,1.5184,-0.9433,2.3721,0.6546,-0.8080,0.0208,
3.463082,-0.0970,0.7886,0.2766,2.8472,-1.2857,3.4127,0.6546,-0.8080,0.0208,
3.464885,-0.0970,0.7886,0.2766,2.8472,-1.2857,3.4127,0.8820,-2.0075,-0.1284,
3.480443,-0.0120,0.8319,0.1913,2.8472,-1.2857,3.4127,0.8820,-2.0075,-0.1284,
3.482711,-0.0120,0.8319,0.1913,3.7317,-0.8396,2.5825,0.8820,-2.0075,-0.1284,
3.484515,-0.0120,0.8319,0.1913,3.7317,-0.8396,2.5825,0.9875,-3.1553,-0.3164,
3.500171,-0.0911,1.0051,0.0127,3.7317,-0.8396,2.5825,0.9875,-3.1553,-0.3164,
3.502466,-0.0911,1.0051,0.0127,3.0551,0.8957,0.7636,0.9875,-3.1553,-0.3164,
3.504103,-0.0911,1.0051,0.0127,3.0551,0.8957,0.7636,0.8506,-2.8299,-0.3467,
3.520891,-0.1820,1.1260,-0.1302,3.0551,0.8957,0.7636,0.8506,-2.8299,-0.3467,
3.522512,-0.1820,1.1260,-0.1302,2.2604,2.1188,-0.7111,0.8506,-2.8299,-0.3467,
3.523449,-0.1820,1.1260,-0.1302,2.2604,2.1188,-0.7111,0.5800,-1.0141,-0.1609,
3.540758,-0.2436,1.1126,-0.1222,2.2604,2.1188,-0.7111,0.5800,-1.0141,-0.1609,
3.543148,-0.2436,1.1126,-0.1222,1.6974,2.0069,-0.6112,0.5800,-1.0141,-0.1609,
3.544949,-0.2436,1.1126,-0.1222,1.6974,2.0069,-0.6112,0.2344,0.6748,0.0309,
3.561018,-0.2128,1.0515,-0.0222,1.6974,2.0069,-0.6112,0.2344,0.6748,0.0309,
3.563348,-0.2128,1.0515,-0.0222,1.9850,1.4088,0.4645,0.2344,0.6748,0.0309,
3.564996,-0.2128,1.0515,-0.0222,1.9850,1.4088,0.4645,0.0346,1.3018,0.1720,
3.580241,-0.1815,0.9406,0.0056,1.9850,1.4088,0.4645,0.0346,1.3018,0.1720,
3.582362,-0.1815,0.9406,0.0056,2.2137,0.2950,0.8398,0.0346,1.3018,0.1720,
3.584012,-0.1815,0.9406,0.0056,2.2137,0.2950,0.8398,0.0197,0.9683,0.2152,
3.599913,-0.1935,0.8370,-0.0147,2.2137,0.2950,0.8398,0.0197,0.9683,0.2152,
3.602092,-0.1935,0.8370,-0.0147,2.0421,-0.7368,0.7213,0.0197,0.9683,0.2152,
3.603963,-0.1935,0.8370,-0.0147,2.0421,-0.7368,0.7213,0.0943,0.5859,0.1875,
3.620902,-0.2543,0.7608,-0.0537,2.0421,-0.7368,0.7213,0.0943,0.5859,0.1875,
3.623291,-0.2543,0.7608,-0.0537,1.4019,-1.4968,0.4009,0.0943,0.5859,0.1875,
3.625075,-0.2543,0.7608,-0.0537,1.4019,-1.4968,0.4009,0.2109,0.6487,0.1364,
3.640118,-0.3303,0.7209,-0.0858,1.4019,-1.4968,0.4009,0.2109,0.6487,0.1364,
3.642559,-0.3303,0.7209,-0.0858,0.6204,-1.8935,0.1751,0.2109,0.6487,0.1364,
3.644321,-0.3303,0.7209,-0.0858,0.6204,-1.8935,0.1751,0.3995,1.0674,0.1236,
3.660712,-0.3655,0.6997,-0.1090,0.6204,-1.8935,0.1751,0.3995,1.0674,0.1236,
3.663049,-0.3655,0.6997,-0.1090,0.2302,-2.1026,0.1011,0.3995,1.0674,0.1236,
3.664837,-0.3655,0.6997,-0.1090,0.2302,-2.1026,0.1011,0.6477,1.5345,0.1156,
3.680642,-0.3977,0.6987,-0.1771,0.2302,-2.1026,0.1011,0.6477,1.5345,0.1156,
3.683028,-0.3977,0.6987,-0.1771,-0.1459,-2.1042,-0.3353,0.6477,1.5345,0.1156,
3.684963,-0.3977,0.6987,-0.1771,-0.1459,-2.1042,-0.3353,0.8906,1.7135,0.0932,
3.699993,-0.3645,0.7095,-0.3132,-0.1459,-2.1042,-0.3353,0.8906,1.7135,0.0932,
3.702336,-0.3645,0.7095,-0.3132,0.1102,-1.9783,-1.3824,0.8906,1.7135,0.0932,
3.704297,-0.3645,0.7095,-0.3132,0.1102,-1.9783,-1.3824,0.8511,1.3508,0.1518,
3.720347,-0.2858,0.7576,-0.3484,0.1102,-1.9783,-1.3824,0.8511,1.3508,0.1518,
3.722626,-0.2858,0.7576,-0.3484,0.8053,-1.4870,-1.4774,0.8511,1.3508,0.1518,
3.724380,-0.2858,0.7576,-0.3484,0.8053,-1.4870,-1.4774,0.5518,0.6365,0.1236,
3.740584,-0.2629,0.7859,-0.3086,0.8053,-1.4870,-1.4774,0.5518,0.6365,0.1236,
3.743094,-0.2629,0.7859,-0.3086,0.9828,-1.1959,-0.9433,0.5518,0.6365,0.1236,
3.745062,-0.2629,0.7859,-0.3086,0.9828,-1.1959,-0.9433,0.3835,0.2242,-0.0698,
3.759002,-0.2147,0.7471,-0.2768,0.9828,-1.1959,-0.9433,0.3835,0.2242,-0.0698,
3.760317,-0.2147,0.7471,-0.2768,1.4573,-1.5554,-0.5481,0.3835,0.2242,-0.0698,
3.761300,-0.2147,0.7471,-0.2768,1.4573,-1.5554,-0.5481,0.2498,-0.1007,-0.1268,
3.779521,-0.2081,0.6787,-0.3144,1.4573,-1.5554,-0.5481,0.2498,-0.1007,-0.1268,
3.780746,-0.2081,0.6787,-0.3144,1.5488,-2.2058,-0.8798,0.2498,-0.1007,-0.1268,
3.781558,-0.2081,0.6787,-0.3144,1.5488,-2.2058,-0.8798,0.0192,-0.3169,-0.1555,
3.800062,-0.2668,0.6809,-0.3667,1.5488,-2.2058,-0.8798,0.0192,-0.3169,-0.1555,
3.802051,-0.2668,0.6809,-0.3667,1.0156,-2.1722,-1.4116,0.0192,-0.3169,-0.1555,
3.803591,-0.2668,0.6809,-0.3667,1.0156,-2.1722,-1.4116,-0.3345,-0.3366,-0.1656,
3.819638,-0.3139,0.7122,-0.4012,1.0156,-2.1722,-1.4116,-0.3345,-0.3366,-0.1656,
3.821941,-0.3139,0.7122,-0.4012,0.5972,-1.8680,-1.8329,-0.3345,-0.3366,-0.1656,
3.823747,-0.3139,0.7122,-0.4012,0.5972,-1.8680,-1.8329,-0.6461,-0.3350,-0.1997,
3.839953,-0.3599,0.7688,-0.4307,0.5972,-1.8680,-1.8329,-0.6461,-0.3350,-0.1997,
3.842259,-0.3599,0.7688,-0.4307,0.1959,-1.3239,-2.2614,-0.6461,-0.3350,-0.1997,
3.844122,-0.3599,0.7688,-0.4307,0.1959,-1.3239,-2.2614,-0.8943,-0.1502,-0.2466,
3.860009,-0.4258,0.8477,-0.3860,0.1959,-1.3239,-2.2614,-0.8943,-0.1502,-0.2466,
3.862386,-0.4258,0.8477,-0.3860,-0.4013,-0.5656,-1.9928,-0.8943,-0.1502,-0.2466,
3.864329,-0.4258,0.8477,-0.3860,-0.4013,-0.5656,-1.9928,-0.9683,0.2498,-0.3723,
3.879794,-0.5279,0.9626,-0.2951,-0.4013,-0.5656,-1.9928,-0.9683,0.2498,-0.3723,
3.881902,-0.5279,0.9626,-0.2951,-1.3445,0.5547,-1.2550,-0.9683,0.2498,-0.3723,
3.883882,-0.5279,0.9626,-0.2951,-1.3445,0.5547,-1.2550,-0.6503,0.7015,-0.4778,
3.899805,-0.6430,1.1111,-0.3039,-1.3445,0.5547,-1.2550,-0.6503,0.7015,-0.4778,
3.901832,-0.6430,1.1111,-0.3039,-2.4101,2.0264,-1.4022,-0.6503,0.7015,-0.4778,
3.903381,-0.6430,1.1111,-0.3039,-2.4101,2.0264,-1.4022,-0.1294,0.6248,-0.4091,
3.919815,-0.5736,1.1285,-0.3779,-2.4101,2.0264,-1.4022,-0.1294,0.6248,-0.4091,
3.922255,-0.5736,1.1285,-0.3779,-1.6777,2.2243,-2.1017,-0.1294,0.6248,-0.4091,
3.924128,-0.5736,1.1285,-0.3779,-1.6777,2.2243,-2.1017,0.1087,0.3483,-0.1742,
3.940029,-0.5399,0.9899,-0.4300,-1.6777,2.2243,-2.1017,0.1087,0.3483,-0.1742,
3.942503,-0.5399,0.9899,-0.4300,-1.3279,0.8840,-2.5650,0.1087,0.3483,-0.1742,
3.944494,-0.5399,0.9899,-0.4300,-1.3279,0.8840,-2.5650,0.4250,0.8405,-0.3201,
3.960233,-0.5741,0.8260,-0.6127,-1.3279,0.8840,-2.5650,0.4250,0.8405,-0.3201,
3.962781,-0.5741,0.8260,-0.6127,-1.6357,-0.6824,-4.2143,0.4250,0.8405,-0.3201,
3.964772,-0.5741,0.8260,-0.6127,-1.6357,-0.6824,-4.2143,0.4202,0.6317,-0.6834,
3.980088,-0.6335,1.0222,-0.4798,-1.6357,-0.6824,-4.2143,0.4202,0.6317,-0.6834,
3.982052,-0.6335,1.0222,-0.4798,-2.1216,1.3108,-2.7876,0.4202,0.6317,-0.6834,
3.983582,-0.6335,1.0222,-0.4798,-2.1216,1.3108,-2.7876,0.2429,0.5321,-0.8389,
3.999779,-0.5199,1.2521,-0.3178,-2.1216,1.3108,-2.7876,0.2429,0.5321,-0.8389,
4.002233,-0.5199,1.2521,-0.3178,-0.8838,3.6428,-1.1141,0.2429,0.5321,-0.8389,
4.004095,-0.5199,1.2521,-0.3178,-0.8838,3.6428,-1.1141,-0.0186,-0.2940,-0.5321,
4.019710,-0.3755,1.2887,-0.1290,-0.8838,3.6428,-1.1141,-0.0186,-0.2940,-0.5321,
4.022278,-0.3755,1.2887,-0.1290,0.6342,4.0464,0.7084,-0.0186,-0.2940,-0.5321,
4.023964,-0.3755,1.2887,-0.1290,0.6342,4.0464,0.7084,-0.5161,-1.0557,-0.1747,
4.041811,-0.2424,1.3351,0.1107,0.6342,4.0464,0.7084,-0.5161,-1.0557,-0.1747,
4.043784,-0.2424,1.3351,0.1107,2.0088,4.4971,2.8768,-0.5161,-1.0557,-0.1747,
4.045417,-0.2424,1.3351,0.1107,2.0088,4.4971,2.8768,-0.6418,-1.4125,0.1273,
4.059976,-0.0762,1.1873,0.1781,2.0088,4.4971,2.8768,-0.6418,-1.4125,0.1273,
4.062087,-0.0762,1.1873,0.1781,3.6622,3.0160,3.3035,-0.6418,-1.4125,0.1273,
4.063802,-0.0762,1.1873,0.1781,3.6622,3.0160,3.3035,-0.3680,-1.4221,0.3478,
4.079190,0.0384,0.9450,0.1197,3.6622,3.0160,3.3035,-0.3680,-1.4221,0.3478,
4.081335,0.0384,0.9450,0.1197,4.7666,0.5996,2.5426,-0.3680,-1.4221,0.3478,
4.083019,0.0384,0.9450,0.1197,4.7666,0.5996,2.5426,-0.1300,-0.8384,0.3260,
4.100584,-0.1698,0.8795,0.0867,4.7666,0.5996,2.5426,-0.1300,-0.8384,0.3260,
4.102942,-0.1698,0.8795,0.0867,2.6924,-0.0740,2.1237,-0.1300,-0.8384,0.3260,
4.104695,-0.1698,0.8795,0.0867,2.6924,-0.0740,2.1237,-0.0554,0.2807,0.0623,
4.120126,-0.3291,0.9909,0.2250,2.6924,-0.0740,2.1237,-0.0554,0.2807,0.0623,
4.122353,-0.3291,0.9909,0.2250,1.1134,1.0110,3.4936,-0.0554,0.2807,0.0623,
4.124001,-0.3291,0.9909,0.2250,1.1134,1.0110,3.4936,-0.0975,0.3718,-0.1310,
4.139835,-0.3618,1.1043,0.3261,1.1134,1.0110,3.4936,-0.0975,0.3718,-0.1310,
4.142077,-0.3618,1.1043,0.3261,0.8057,2.1307,4.5001,-0.0975,0.3718,-0.1310,
4.143750,-0.3618,1.1043,0.3261,0.8057,2.1307,4.5001,-0.1177,-0.6008,-0.1933,
4.159941,-0.3726,1.0605,0.1940,0.8057,2.1307,4.5001,-0.1177,-0.6008,-0.1933,
4.162077,-0.3726,1.0605,0.1940,0.7491,1.7161,3.1320,-0.1177,-0.6008,-0.1933,
4.163800,-0.3726,1.0605,0.1940,0.7491,1.7161,3.1320,-0.1949,-0.7180,-0.3009,
4.179302,-0.3533,0.9719,0.0374,0.7491,1.7161,3.1320,-0.1949,-0.7180,-0.3009,
4.181514,-0.3533,0.9719,0.0374,1.0073,0.8690,1.4999,-0.1949,-0.7180,-0.3009,
4.183204,-0.3533,0.9719,0.0374,1.0073,0.8690,1.4999,-0.2535,0.4463,-0.3254,
4.199500,-0.3408,0.8433,-0.1163,1.0073,0.8690,1.4999,-0.2535,0.4463,-0.3254,
4.201630,-0.3408,0.8433,-0.1163,1.1755,-0.3669,-0.0098,-0.2535,0.4463,-0.3254,
4.203648,-0.3408,0.8433,-0.1163,1.1755,-0.3669,-0.0098,-0.3782,1.4434,-0.4245,
4.219640,-0.4236,0.7383,-0.2365,1.1755,-0.3669,-0.0098,-0.3782,1.4434,-0.4245,
4.221425,-0.4236,0.7383,-0.2365,0.4034,-1.3667,-1.1220,-0.3782,1.4434,-0.4245,
4.222223,-0.4236,0.7383,-0.2365,0.4034,-1.3667,-1.1220,-0.6296,1.5489,-0.4400,
4.239175,-0.4854,0.6508,-0.3469,0.4034,-1.3667,-1.1220,-0.6296,1.5489,-0.4400,
4.241299,-0.4854,0.6508,-0.3469,-0.1644,-2.1989,-2.1707,-0.6296,1.5489,-0.4400,
4.242969,-0.4854,0.6508,-0.3469,-0.1644,-2.1989,-2.1707,-0.9784,1.0514,-0.2008,
4.259407,-0.4661,0.6232,-0.2944,-0.1644,-2.1989,-2.1707,-0.9784,1.0514,-0.2008,
4.261647,-0.4661,0.6232,-0.2944,0.0341,-2.4743,-1.7272,-0.9784,1.0514,-0.2008,
4.263618,-0.4661,0.6232,-0.2944,0.0341,-2.4743,-1.7272,-1.2496,0.3739,-0.0149,
4.279367,-0.4124,0.6535,-0.1691,0.0341,-2.4743,-1.7272,-1.2496,0.3739,-0.0149,
4.281584,-0.4124,0.6535,-0.1691,0.5554,-2.2027,-0.6789,-1.2496,0.3739,-0.0149,
4.283461,-0.4124,0.6535,-0.1691,0.5554,-2.2027,-0.6789,-1.1228,0.1342,0.0304,
4.299232,-0.4185,0.7007,-0.0789,0.5554,-2.2027,-0.6789,-1.1228,0.1342,0.0304,
4.301666,-0.4185,0.7007,-0.0789,0.4879,-1.7633,0.0234,-1.1228,0.1342,0.0304,
4.303412,-0.4185,0.7007,-0.0789,0.4879,-1.7633,0.0234,-0.6946,0.2264,-0.0192,
4.319606,-0.4329,0.7412,-0.0618,0.4879,-1.7633,0.0234,-0.6946,0.2264,-0.0192,
4.321746,-0.4329,0.7412,-0.0618,0.3466,-1.3745,0.0920,-0.6946,0.2264,-0.0192,
4.323581,-0.4329,0.7412,-0.0618,0.3466,-1.3745,0.0920,-0.2684,0.4107,-0.0762,
4.339665,-0.4571,0.7810,-0.0784,0.3466,-1.3745,0.0920,-0.2684,0.4107,-0.0762,
4.341741,-0.4571,0.7810,-0.0784,0.1171,-0.9809,-0.0794,-0.2684,0.4107,-0.0762,
4.343304,-0.4571,0.7810,-0.0784,0.1171,-0.9809,-0.0794,-0.0256,0.2173,-0.0437,
4.359714,-0.4593,0.8055,-0.0926,0.1171,-0.9809,-0.0794,-0.0256,0.2173,-0.0437,
4.362023,-0.4593,0.8055,-0.0926,0.1000,-0.7379,-0.2027,-0.0256,0.2173,-0.0437,
4.363828,-0.4593,0.8055,-0.0926,0.1000,-0.7379,-0.2027,0.0538,-0.1672,0.0202,
4.379193,-0.4588,0.8255,-0.1065,0.1000,-0.7379,-0.2027,0.0538,-0.1672,0.0202,
4.381606,-0.4588,0.8255,-0.1065,0.1038,-0.5426,-0.3450,0.0538,-0.1672,0.0202,
4.383526,-0.4588,0.8255,-0.1065,0.1038,-0.5426,-0.3450,0.0229,-0.4202,0.0660,
4.399100,-0.4332,0.8316,-0.0970,0.1038,-0.5426,-0.3450,0.0229,-0.4202,0.0660,
4.401519,-0.4332,0.8316,-0.0970,0.3499,-0.4882,-0.2850,0.0229,-0.4202,0.0660,
4.403460,-0.4332,0.8316,-0.0970,0.3499,-0.4882,-0.2850,-0.0027,-0.4815,0.0959,
4.418721,-0.4109,0.8135,-0.1055,0.3499,-0.4882,-0.2850,-0.0027,-0.4815,0.0959,
4.420549,-0.4109,0.8135,-0.1055,0.5575,-0.6740,-0.4121,-0.0027,-0.4815,0.0959,
4.421802,-0.4109,0.8135,-0.1055,0.5575,-0.6740,-0.4121,0.0304,-0.4357,0.1566,
4.439511,-0.3882,0.8077,-0.1246,0.5575,-0.6740,-0.4121,0.0304,-0.4357,0.1566,
4.441828,-0.3882,0.8077,-0.1246,0.7583,-0.7453,-0.6320,0.0304,-0.4357,0.1566,
4.443924,-0.3882,0.8077,-0.1246,0.7583,-0.7453,-0.6320,0.1230,-0.3425,0.1822,
4.459683,-0.3875,0.8411,-0.1935,0.7583,-0.7453,-0.6320,0.1230,-0.3425,0.1822,
4.461971,-0.3875,0.8411,-0.1935,0.7374,-0.4325,-1.3137,0.1230,-0.3425,0.1822,
4.463861,-0.3875,0.8411,-0.1935,0.7374,-0.4325,-1.3137,0.2450,-0.2924,0.1928,
4.478615,-0.4446,0.8756,-0.2807,0.7374,-0.4325,-1.3137,0.2450,-0.2924,0.1928,
4.480545,-0.4446,0.8756,-0.2807,0.0882,-0.0850,-1.6063,0.2450,-0.2924,0.1928,
4.482017,-0.4446,0.8756,-0.2807,0.0882,-0.0850,-1.6063,0.3563,-0.1188,0.1758,
4.498723,-0.5257,0.9252,-0.3032,0.0882,-0.0850,-1.6063,0.3563,-0.1188,0.1758,
4.501144,-0.5257,0.9252,-0.3032,-0.7344,0.3938,-1.7754,0.3563,-0.1188,0.1758,
4.503070,-0.5257,0.9252,-0.3032,-0.7344,0.3938,-1.7754,0.3984,0.0277,0.1513,
4.519097,-0.5392,1.0024,-0.2333,-0.7344,0.3938,-1.7754,0.3984,0.0277,0.1513,
4.521235,-0.5392,1.0024,-0.2333,-0.8916,1.1490,-1.0092,0.3984,0.0277,0.1513,
4.523152,-0.5392,1.0024,-0.2333,-0.8916,1.1490,-1.0092,0.3542,-0.0154,0.1518,
4.538655,-0.5331,1.0886,-0.1627,-0.8916,1.1490,-1.0092,0.3542,-0.0154,0.1518,
4.540373,-0.5331,1.0886,-0.1627,-0.8576,1.9901,-0.2572,0.3542,-0.0154,0.1518,
4.541654,-0.5331,1.0886,-0.1627,-0.8576,1.9901,-0.2572,0.3899,-0.1284,0.1385,
4.559763,-0.5192,1.0837,-0.1810,-0.8576,1.9901,-0.2572,0.3899,-0.1284,0.1385,
4.562187,-0.5192,1.0837,-0.1810,-0.7417,1.9408,-0.3803,0.3899,-0.1284,0.1385,
4.563972,-0.5192,1.0837,-0.1810,-0.7417,1.9408,-0.3803,0.5992,-0.2237,0.2013,
4.579936,-0.5270,1.1228,-0.2641,-0.7417,1.9408,-0.3803,0.5992,-0.2237,0.2013,
4.582493,-0.5270,1.1228,-0.2641,-0.8468,2.3236,-1.1099,0.5992,-0.2237,0.2013,
4.584333,-0.5270,1.1228,-0.2641,-0.8468,2.3236,-1.1099,0.9358,-0.2306,0.2498,
4.598732,-0.5956,1.3251,-0.3222,-0.8468,2.3236,-1.1099,0.9358,-0.2306,0.2498,
4.601123,-0.5956,1.3251,-0.3222,-1.5557,4.3136,-1.5372,0.9358,-0.2306,0.2498,
4.603030,-0.5956,1.3251,-0.3222,-1.5557,4.3136,-1.5372,1.0557,-0.2328,0.1523,
4.619813,-0.6733,1.3835,-0.2218,-1.5557,4.3136,-1.5372,1.0557,-0.2328,0.1523,
4.622350,-0.6733,1.3835,-0.2218,-2.3355,4.9087,-0.3906,1.0557,-0.2328,0.1523,
4.624212,-0.6733,1.3835,-0.2218,-2.3355,4.9087,-0.3906,0.8384,-0.2024,0.0719,
4.639342,-0.5055,1.1306,-0.1134,-2.3355,4.9087,-0.3906,0.8384,-0.2024,0.0719,
4.641693,-0.5055,1.1306,-0.1134,-0.6956,2.4554,0.7998,0.8384,-0.2024,0.0719,
4.643653,-0.5055,1.1306,-0.1134,-0.6956,2.4554,0.7998,0.6333,-0.2690,0.1337,
4.659886,-0.3305,0.8326,-0.0244,-0.6956,2.4554,0.7998,0.6333,-0.2690,0.1337,
4.662086,-0.3305,0.8326,-0.0244,1.0061,-0.4521,1.7575,0.6333,-0.2690,0.1337,
4.663769,-0.3305,0.8326,-0.0244,1.0061,-0.4521,1.7575,0.4692,-0.3846,0.0810,
4.679064,-0.2367,0.7136,0.0547,1.0061,-0.4521,1.7575,0.4692,-0.3846,0.0810,
4.681097,-0.2367,0.7136,0.0547,1.9271,-1.6060,2.5812,0.4692,-0.3846,0.0810,
4.682919,-0.2367,0.7136,0.0547,1.9271,-1.6060,2.5812,0.3473,-0.7356,0.0154,
4.698354,-0.2475,0.8499,0.0748,1.9271,-1.6060,2.5812,0.3473,-0.7356,0.0154,
4.700214,-0.2475,0.8499,0.0748,1.8491,-0.2572,2.7746,0.3473,-0.7356,0.0154,
4.701376,-0.2475,0.8499,0.0748,1.8491,-0.2572,2.7746,0.2461,-1.0232,-0.0431,
4.718999,-0.2961,1.0376,0.0657,1.8491,-0.2572,2.7746,0.2461,-1.0232,-0.0431,
4.721351,-0.2961,1.0376,0.0657,1.4213,1.5952,2.6402,0.2461,-1.0232,-0.0431,
4.723087,-0.2961,1.0376,0.0657,1.4213,1.5952,2.6402,0.1316,-0.9476,-0.1513,
4.741137,-0.3401,1.0583,0.0699,1.4213,1.5952,2.6402,0.1316,-0.9476,-0.1513,
4.743257,-0.3401,1.0583,0.0699,1.0534,1.8170,2.6211,0.1316,-0.9476,-0.1513,
4.744861,-0.3401,1.0583,0.0699,1.0534,1.8170,2.6211,-0.0895,-0.7436,-0.1838,
4.758700,-0.3232,0.9535,0.1082,1.0534,1.8170,2.6211,-0.0895,-0.7436,-0.1838,
4.760878,-0.3232,0.9535,0.1082,1.2781,0.8027,2.9162,-0.0895,-0.7436,-0.1838,
4.762589,-0.3232,0.9535,0.1082,1.2781,0.8027,2.9162,-0.2919,-0.3105,-0.0517,
4.778381,-0.2956,0.9047,0.1200,1.2781,0.8027,2.9162,-0.2919,-0.3105,-0.0517,
4.780555,-0.2956,0.9047,0.1200,1.5688,0.3179,2.9536,-0.2919,-0.3105,-0.0517,
4.783007,-0.2956,0.9047,0.1200,1.5688,0.3179,2.9536,-0.2386,0.2844,0.0176,
4.798588,-0.2951,0.8534,0.0630,1.5688,0.3179,2.9536,-0.2386,0.2844,0.0176,
4.800627,-0.2951,0.8534,0.0630,1.5605,-0.1949,2.3803,-0.2386,0.2844,0.0176,
4.802378,-0.2951,0.8534,0.0630,1.5605,-0.1949,2.3803,-0.1497,0.6003,0.0304,
4.819232,-0.3054,0.7610,0.0132,1.5605,-0.1949,2.3803,-0.1497,0.6003,0.0304,
4.821444,-0.3054,0.7610,0.0132,1.4335,-1.1079,1.9195,-0.1497,0.6003,0.0304,
4.823256,-0.3054,0.7610,0.0132,1.4335,-1.1079,1.9195,-0.1619,0.6184,0.0991,
4.838809,-0.2883,0.6992,-0.0457,1.4335,-1.1079,1.9195,-0.1619,0.6184,0.0991,
4.841147,-0.2883,0.6992,-0.0457,1.5618,-1.7282,1.3692,-0.1619,0.6184,0.0991,
4.842971,-0.2883,0.6992,-0.0457,1.5618,-1.7282,1.3692,-0.1204,0.7585,0.1358,
4.858712,-0.3071,0.7009,-0.0941,1.5618,-1.7282,1.3692,-0.1204,0.7585,0.1358,
4.861010,-0.3071,0.7009,-0.0941,1.3263,-1.7277,0.9406,-0.1204,0.7585,0.1358,
4.862699,-0.3071,0.7009,-0.0941,1.3263,-1.7277,0.9406,0.0352,1.1292,0.0746,
4.877842,-0.3484,0.7373,-0.2299,1.3263,-1.7277,0.9406,0.0352,1.1292,0.0746,
4.880100,-0.3484,0.7373,-0.2299,0.8657,-1.3760,-0.2873,0.0352,1.1292,0.0746,
4.882366,-0.3484,0.7373,-0.2299,0.8657,-1.3760,-0.2873,0.2083,1.4179,-0.0149,
4.898192,-0.3931,0.7981,-0.3990,0.8657,-1.3760,-0.2873,0.2083,1.4179,-0.0149,
4.900429,-0.3931,0.7981,-0.3990,0.3723,-0.7701,-1.7881,0.2083,1.4179,-0.0149,
4.902335,-0.3931,0.7981,-0.3990,0.3723,-0.7701,-1.7881,0.2125,1.6996,-0.1965,
4.918551,-0.4744,0.7830,-0.4989,0.3723,-0.7701,-1.7881,0.2125,1.6996,-0.1965,
4.921035,-0.4744,0.7830,-0.4989,-0.4664,-0.8927,-2.5880,0.2125,1.6996,-0.1965,
4.923073,-0.4744,0.7830,-0.4989,-0.4664,-0.8927,-2.5880,0.1374,1.9500,-0.4597,
4.940940,-0.4959,0.7131,-0.4461,-0.4664,-0.8927,-2.5880,0.1374,1.9500,-0.4597,
4.943329,-0.4959,0.7131,-0.4461,-0.6919,-1.5325,-1.8849,0.1374,1.9500,-0.4597,
4.945417,-0.4959,0.7131,-0.4461,-0.6919,-1.5325,-1.8849,-0.2658,1.2820,-0.4858,
4.958771,-0.4258,0.6706,-0.3039,-0.6919,-1.5325,-1.8849,-0.2658,1.2820,-0.4858,
4.961117,-0.4258,0.6706,-0.3039,0.0133,-1.9219,-0.4297,-0.2658,1.2820,-0.4858,
4.963056,-0.4258,0.6706,-0.3039,0.0133,-1.9219,-0.4297,-0.7462,0.6615,-0.2945,
4.978725,-0.3357,0.7268,-0.1818,0.0133,-1.9219,-0.4297,-0.7462,0.6615,-0.2945,
4.980580,-0.3357,0.7268,-0.1818,0.9136,-1.3840,0.6962,-0.7462,0.6615,-0.2945,
4.981971,-0.3357,0.7268,-0.1818,0.9136,-1.3840,0.6962,-0.9944,0.8442,-0.2354,
4.998012,-0.2795,0.7217,-0.1710,0.9136,-1.3840,0.6962,-0.9944,0.8442,-0.2354,
5.000255,-0.2795,0.7217,-0.1710,1.4633,-1.4628,0.7031,-0.9944,0.8442,-0.2354,
5.001943,-0.2795,0.7217,-0.1710,1.4633,-1.4628,0.7031,-0.8772,0.4543,-0.2376,
5.018061,-0.2949,0.7085,-0.3110,1.4633,-1.4628,0.7031,-0.8772,0.4543,-0.2376,
5.020437,-0.2949,0.7085,-0.3110,1.3320,-1.6128,-0.7802,-0.8772,0.4543,-0.2376,
5.022389,-0.2949,0.7085,-0.3110,1.3320,-1.6128,-0.7802,-0.8139,0.0250,-0.2477,
5.040055,-0.3457,0.7327,-0.3946,1.3320,-1.6128,-0.7802,-0.8139,0.0250,-0.2477,
5.042352,-0.3457,0.7327,-0.3946,0.8753,-1.3906,-1.7362,-0.8139,0.0250,-0.2477,
5.044059,-0.3457,0.7327,-0.3946,0.8753,-1.3906,-1.7362,-0.9982,-0.0889,-0.2589,
5.058437,-0.4214,0.7967,-0.3770,0.8753,-1.3906,-1.7362,-0.9982,-0.0889,-0.2589,
5.060836,-0.4214,0.7967,-0.3770,0.1810,-0.7818,-1.7423,-0.9982,-0.0889,-0.2589,
5.062847,-0.4214,0.7967,-0.3770,0.1810,-0.7818,-1.7423,-1.1803,0.1848,-0.2913,
5.077830,-0.4007,0.8861,-0.3076,0.1810,-0.7818,-1.7423,-1.1803,0.1848,-0.2913,
5.080244,-0.4007,0.8861,-0.3076,0.4277,0.0759,-1.2493,-1.1803,0.1848,-0.2913,
5.081930,-0.4007,0.8861,-0.3076,0.4277,0.0759,-1.2493,-1.0093,0.6924,-0.2754,
5.097994,-0.4478,0.9577,-0.2267,0.4277,0.0759,-1.2493,-1.0093,0.6924,-0.2754,
5.099870,-0.4478,0.9577,-0.2267,-0.0106,0.7670,-0.5699,-1.0093,0.6924,-0.2754,
5.101664,-0.4478,0.9577,-0.2267,-0.0106,0.7670,-0.5699,-0.6610,0.7830,-0.2642,
5.118292,-0.6718,1.1008,-0.2392,-0.0106,0.7670,-0.5699,-0.6610,0.7830,-0.2642,
5.120473,-0.6718,1.1008,-0.2392,-2.1861,2.1716,-0.7372,-0.6610,0.7830,-0.2642,
5.122424,-0.6718,1.1008,-0.2392,-2.1861,2.1716,-0.7372,-0.4762,0.3760,-0.2093,
5.138400,-0.6411,1.0148,-0.2648,-2.1861,2.1716,-0.7372,-0.4762,0.3760,-0.2093,
5.140808,-0.6411,1.0148,-0.2648,-1.8603,1.3322,-1.0374,-0.4762,0.3760,-0.2093,
5.142684,-0.6411,1.0148,-0.2648,-1.8603,1.3322,-1.0374,-0.4037,0.2551,-0.1800,
5.159014,-0.5624,0.9333,-0.2922,-1.8603,1.3322,-1.0374,-0.4037,0.2551,-0.1800,
5.161401,-0.5624,0.9333,-0.2922,-1.0662,0.5361,-1.3524,-0.4037,0.2551,-0.1800,
5.163327,-0.5624,0.9333,-0.2922,-1.0662,0.5361,-1.3524,-0.1204,0.2248,-0.3734,
5.178096,-0.6308,1.2697,-0.0496,-1.0662,0.5361,-1.3524,-0.1204,0.2248,-0.3734,
5.180675,-0.6308,1.2697,-0.0496,-1.6793,3.8627,1.0244,-0.1204,0.2248,-0.3734,
5.182485,-0.6308,1.2697,-0.0496,-1.6793,3.8627,1.0244,0.3766,1.1718,-0.5262,
5.197687,-0.6276,1.4634,0.0112,-1.6793,3.8627,1.0244,0.3766,1.1718,-0.5262,
5.199971,-0.6276,1.4634,0.0112,-1.5956,5.8209,1.7910,0.3766,1.1718,-0.5262,
5.201684,-0.6276,1.4634,0.0112,-1.5956,5.8209,1.7910,0.6141,1.5745,-0.4607,
5.218331,-0.4674,1.3537,-0.0484,-1.5956,5.8209,1.7910,0.6141,1.5745,-0.4607,
5.221130,-0.4674,1.3537,-0.0484,-0.0037,4.8100,1.4543,0.6141,1.5745,-0.4607,
5.222969,-0.4674,1.3537,-0.0484,-0.0037,4.8100,1.4543,0.2072,0.6621,-0.2988,
5.238430,-0.2563,1.1570,-0.1588,-0.0037,4.8100,1.4543,0.2072,0.6621,-0.2988,
5.240648,-0.2563,1.1570,-0.1588,2.0891,2.9183,0.4678,0.2072,0.6621,-0.2988,
5.242340,-0.2563,1.1570,-0.1588,2.0891,2.9183,0.4678,-0.5188,-0.1907,-0.1332,
5.258721,-0.2013,0.9325,0.0518,2.0891,2.9183,0.4678,-0.5188,-0.1907,-0.1332,
5.260596,-0.2013,0.9325,0.0518,2.6577,0.7099,2.4268,-0.5188,-0.1907,-0.1332,
5.262278,-0.2013,0.9325,0.0518,2.6577,0.7099,2.4268,-0.9433,0.0117,-0.0916,
5.277800,-0.3481,0.8314,0.2502,2.6577,0.7099,2.4268,-0.9433,0.0117,-0.0916,
5.280103,-0.3481,0.8314,0.2502,1.2338,-0.3075,4.2129,-0.9433,0.0117,-0.0916,
5.281832,-0.3481,0.8314,0.2502,1.2338,-0.3075,4.2129,-0.5928,0.2067,0.0618,
5.298062,-0.3718,0.8294,0.1952,1.2338,-0.3075,4.2129,-0.5928,0.2067,0.0618,
5.300373,-0.3718,0.8294,0.1952,0.9841,-0.3528,3.5931,-0.5928,0.2067,0.0618,
5.302082,-0.3718,0.8294,0.1952,0.9841,-0.3528,3.5931,-0.2860,0.3451,0.1321,
5.317775,-0.4060,0.9418,0.1043,0.9841,-0.3528,3.5931,-0.2860,0.3451,0.1321,
5.320094,-0.4060,0.9418,0.1043,0.6149,0.7268,2.6857,-0.2860,0.3451,0.1321,
5.321645,-0.4060,0.9418,0.1043,0.6149,0.7268,2.6857,-0.3084,-0.8986,0.0101,
5.337729,-0.4488,0.9965,0.0870,0.6149,0.7268,2.6857,-0.3084,-0.8986,0.0101,
5.339954,-0.4488,0.9965,0.0870,0.2229,1.2524,2.3805,-0.3084,-0.8986,0.0101,
5.341559,-0.4488,0.9965,0.0870,0.2229,1.2524,2.3805,-0.3744,-1.3374,0.0415,
5.357485,-0.3990,0.9056,0.1002,0.2229,1.2524,2.3805,-0.3744,-1.3374,0.0415,
5.359693,-0.3990,0.9056,0.1002,0.7339,0.3387,2.2981,-0.3744,-1.3374,0.0415,
5.361925,-0.3990,0.9056,0.1002,0.7339,0.3387,2.2981,-0.3830,-1.3337,0.1316,
5.377206,-0.3687,0.8614,0.0569,0.7339,0.3387,2.2981,-0.3830,-1.3337,0.1316,
5.378056,-0.3687,0.8614,0.0569,1.0278,-0.1274,1.6532,-0.3830,-1.3337,0.1316,
5.378719,-0.3687,0.8614,0.0569,1.0278,-0.1274,1.6532,-0.3680,-0.9294,0.1374,
5.398039,-0.3132,0.8690,0.0498,1.0278,-0.1274,1.6532,-0.3680,-0.9294,0.1374,
5.400176,-0.3132,0.8690,0.0498,1.5512,-0.0849,1.4060,-0.3680,-0.9294,0.1374,
5.401891,-0.3132,0.8690,0.0498,1.5512,-0.0849,1.4060,-0.3643,-0.7563,0.1997,
5.417706,-0.3029,0.7683,0.0335,1.5512,-0.0849,1.4060,-0.3643,-0.7563,0.1997,
5.420064,-0.3029,0.7683,0.0335,1.6303,-1.0959,1.1131,-0.3643,-0.7563,0.1997,
5.421781,-0.3029,0.7683,0.0335,1.6303,-1.0959,1.1131,-0.3435,-0.8581,0.2019,
5.439947,-0.3955,0.7561,0.0933,1.6303,-1.0959,1.1131,-0.3435,-0.8581,0.2019,
5.442103,-0.3955,0.7561,0.0933,0.6978,-1.2407,1.5565,-0.3435,-0.8581,0.2019,
5.443875,-0.3955,0.7561,0.0933,0.6978,-1.2407,1.5565,-0.2754,-1.0450,0.1614,
5.457917,-0.4730,0.7916,0.1151,0.6978,-1.2407,1.5565,-0.2754,-1.0450,0.1614,
5.460343,-0.4730,0.7916,0.1151,-0.0784,-0.9124,1.6211,-0.2754,-1.0450,0.1614,
5.462213,-0.4730,0.7916,0.1151,-0.0784,-0.9124,1.6211,-0.1859,-1.1217,0.1896,
5.477842,-0.4292,0.7837,0.0997,-0.0784,-0.9124,1.6211,-0.1859,-1.1217,0.1896,
5.480043,-0.4292,0.7837,0.0997,0.3264,-1.0082,1.3327,-0.1859,-1.1217,0.1896,
5.481806,-0.4292,0.7837,0.0997,0.3264,-1.0082,1.3327,-0.1497,-1.0168,0.3020,
5.497624,-0.4119,0.7508,0.0613,0.3264,-1.0082,1.3327,-0.1497,-1.0168,0.3020,
5.499730,-0.4119,0.7508,0.0613,0.4499,-1.3596,0.8391,-0.1497,-1.0168,0.3020,
5.501474,-0.4119,0.7508,0.0613,0.4499,-1.3596,0.8391,-0.1156,-1.0999,0.3878,
5.517516,-0.3899,0.7263,0.0161,0.4499,-1.3596,0.8391,-0.1156,-1.0999,0.3878,
5.519911,-0.3899,0.7263,0.0161,0.6017,-1.6339,0.2782,-0.1156,-1.0999,0.3878,
5.521682,-0.3899,0.7263,0.0161,0.6017,-1.6339,0.2782,-0.1358,-1.0690,0.3973,
5.538191,-0.4009,0.7539,0.0166,0.6017,-1.6339,0.2782,-0.1358,-1.0690,0.3973,
5.540486,-0.4009,0.7539,0.0166,0.4256,-1.3984,0.1654,-0.1358,-1.0690,0.3973,
5.542335,-0.4009,0.7539,0.0166,0.4256,-1.3984,0.1654,-0.0746,-1.0839,0.3499,
5.557838,-0.4649,0.8135,0.0022,0.4256,-1.3984,0.1654,-0.0746,-1.0839,0.3499,
5.560146,-0.4649,0.8135,0.0022,-0.2643,-0.8443,-0.0824,-0.0746,-1.0839,0.3499,
5.562218,-0.4649,0.8135,0.0022,-0.2643,-0.8443,-0.0824,0.0533,-1.0195,0.2141,
5.577951,-0.4981,0.8477,-0.0366,-0.2643,-0.8443,-0.0824,0.0533,-1.0195,0.2141,
5.580268,-0.4981,0.8477,-0.0366,-0.5656,-0.4960,-0.5403,0.0533,-1.0195,0.2141,
5.582190,-0.4981,0.8477,-0.0366,-0.5656,-0.4960,-0.5403,0.1752,-1.0243,0.1832,
5.597514,-0.4928,0.8521,-0.0623,-0.5656,-0.4960,-0.5403,0.1752,-1.0243,0.1832,
5.600062,-0.4928,0.8521,-0.0623,-0.5461,-0.4678,-0.8469,0.1752,-1.0243,0.1832,
5.602093,-0.4928,0.8521,-0.0623,-0.5461,-0.4678,-0.8469,0.2051,-1.1164,0.1875,
5.617549,-0.4566,0.8441,-0.0574,-0.5461,-0.4678,-0.8469,0.2051,-1.1164,0.1875,
5.620083,-0.4566,0.8441,-0.0574,-0.2266,-0.5620,-0.8540,0.2051,-1.1164,0.1875,
5.622022,-0.4566,0.8441,-0.0574,-0.2266,-0.5620,-0.8540,0.2530,-1.2080,0.1758,
5.638318,-0.4339,0.8470,-0.0503,-0.2266,-0.5620,-0.8540,0.2530,-1.2080,0.1758,
5.640762,-0.4339,0.8470,-0.0503,-0.0386,-0.5480,-0.8364,0.2530,-1.2080,0.1758,
5.642788,-0.4339,0.8470,-0.0503,-0.0386,-0.5480,-0.8364,0.4629,-1.0131,0.1166,
5.657784,-0.4112,0.8043,-0.0107,-0.0386,-0.5480,-0.8364,0.4629,-1.0131,0.1166,
5.660323,-0.4112,0.8043,-0.0107,0.1593,-0.9788,-0.4478,0.4629,-1.0131,0.1166,
5.662093,-0.4112,0.8043,-0.0107,0.1593,-0.9788,-0.4478,0.8527,-0.9587,0.0314,
5.677755,-0.5626,0.7825,0.0481,0.1593,-0.9788,-0.4478,0.8527,-0.9587,0.0314,
5.680035,-0.5626,0.7825,0.0481,-1.3306,-1.1969,0.2024,0.8527,-0.9587,0.0314,
5.681939,-0.5626,0.7825,0.0481,-1.3306,-1.1969,0.2024,1.3161,-0.9321,-0.1294,
5.697313,-0.5978,0.8380,0.0408,-1.3306,-1.1969,0.2024,1.3161,-0.9321,-0.1294,
5.699593,-0.5978,0.8380,0.0408,-1.6560,-0.6476,0.2856,1.3161,-0.9321,-0.1294,
5.701398,-0.5978,0.8380,0.0408,-1.6560,-0.6476,0.2856,1.6991,-0.3329,-0.1704,
5.716932,-0.6012,0.8854,-0.1014,-1.6560,-0.6476,0.2856,1.6991,-0.3329,-0.1704,
5.719404,-0.6012,0.8854,-0.1014,-1.6593,-0.1681,-0.8357,1.6991,-0.3329,-0.1704,
5.721338,-0.6012,0.8854,-0.1014,-1.6593,-0.1681,-0.8357,1.7518,0.5529,-0.1816,
5.736990,-0.5924,0.9706,-0.3169,-1.6593,-0.1681,-0.8357,1.7518,0.5529,-0.1816,
5.739011,-0.5924,0.9706,-0.3169,-1.5447,0.6947,-2.5912,1.7518,0.5529,-0.1816,
5.740678,-0.5924,0.9706,-0.3169,-1.5447,0.6947,-2.5912,1.3854,1.3502,-0.1310,
5.757020,-0.5697,1.0730,-0.4676,-1.5447,0.6947,-2.5912,1.3854,1.3502,-0.1310,
5.759321,-0.5697,1.0730,-0.4676,-1.3177,1.7282,-3.7101,1.3854,1.3502,-0.1310,
5.761243,-0.5697,1.0730,-0.4676,-1.3177,1.7282,-3.7101,0.8458,1.2863,-0.0037,
5.777648,-0.4974,1.1048,-0.4280,-1.3177,1.7282,-3.7101,0.8458,1.2863,-0.0037,
5.780782,-0.4974,1.1048,-0.4280,-0.6341,2.0567,-3.0645,0.8458,1.2863,-0.0037,
5.782337,-0.4974,1.1048,-0.4280,-0.6341,2.0567,-3.0645,0.3782,0.6301,0.1119,
5.797560,-0.5472,1.3969,-0.2047,-0.6341,2.0567,-3.0645,0.3782,0.6301,0.1119,
5.799916,-0.5472,1.3969,-0.2047,-1.1571,4.9197,-0.7569,0.3782,0.6301,0.1119,
5.801695,-0.5472,1.3969,-0.2047,-1.1571,4.9197,-0.7569,0.1268,0.0804,0.0186,
5.816976,-0.5641,1.4702,-0.0621,-1.1571,4.9197,-0.7569,0.1268,0.0804,0.0186,
5.818545,-0.5641,1.4702,-0.0621,-1.3276,5.6396,0.6703,0.1268,0.0804,0.0186,
5.819506,-0.5641,1.4702,-0.0621,-1.3276,5.6396,0.6703,-0.0719,-0.2993,-0.1039,
5.836597,-0.4373,1.2804,0.0669,-1.3276,5.6396,0.6703,-0.0719,-0.2993,-0.1039,
5.838988,-0.4373,1.2804,0.0669,-0.0593,3.7862,1.8967,-0.0719,-0.2993,-0.1039,
5.840838,-0.4373,1.2804,0.0669,-0.0593,3.7862,1.8967,-0.1933,-0.7180,-0.1273,
5.856784,-0.2954,1.0945,0.1441,-0.0593,3.7862,1.8967,-0.1933,-0.7180,-0.1273,
5.859005,-0.2954,1.0945,0.1441,1.3711,1.9704,2.5584,-0.1933,-0.7180,-0.1273,
5.860652,-0.2954,1.0945,0.1441,1.3711,1.9704,2.5584,-0.2093,-0.9561,-0.1854,
5.877343,-0.1954,0.9254,0.2069,1.3711,1.9704,2.5584,-0.2093,-0.9561,-0.1854,
5.879204,-0.1954,0.9254,0.2069,2.4035,0.3250,3.0553,-0.2093,-0.9561,-0.1854,
5.880941,-0.1954,0.9254,0.2069,2.4035,0.3250,3.0553,-0.1662,-0.9667,-0.2722,
5.897245,-0.1175,0.9025,0.2223,2.4035,0.3250,3.0553,-0.1662,-0.9667,-0.2722,
5.899084,-0.1175,0.9025,0.2223,3.2335,0.1204,3.0930,-0.1662,-0.9667,-0.2722,
5.900344,-0.1175,0.9025,0.2223,3.2335,0.1204,3.0930,-0.0948,-0.7718,-0.3169,
5.917112,-0.0814,0.9594,0.2143,3.2335,0.1204,3.0930,-0.0948,-0.7718,-0.3169,
5.919529,-0.0814,0.9594,0.2143,3.6564,0.7045,2.9295,-0.0948,-0.7718,-0.3169,
5.920846,-0.0814,0.9594,0.2143,3.6564,0.7045,2.9295,-0.0522,-0.4527,-0.3867,
5.937805,-0.1507,1.0420,0.2108,3.6564,0.7045,2.9295,-0.0522,-0.4527,-0.3867,
5.939870,-0.1507,1.0420,0.2108,3.0508,1.5476,2.8462,-0.0522,-0.4527,-0.3867,
5.941522,-0.1507,1.0420,0.2108,3.0508,1.5476,2.8462,-0.0133,-0.0868,-0.3372,
5.958264,-0.2477,1.1121,0.2013,3.0508,1.5476,2.8462,-0.0133,-0.0868,-0.3372,
5.960273,-0.2477,1.1121,0.2013,2.1599,2.2653,2.7427,-0.0133,-0.0868,-0.3372,
5.961892,-0.2477,1.1121,0.2013,2.1599,2.2653,2.7427,0.1609,0.0245,-0.1289,
5.976854,-0.3007,0.9931,0.0977,2.1599,2.2653,2.7427,0.1609,0.0245,-0.1289,
5.979085,-0.3007,0.9931,0.0977,1.6622,1.1136,1.7575,0.1609,0.0245,-0.1289,
5.980618,-0.3007,0.9931,0.0977,1.6622,1.1136,1.7575,0.4277,0.0373,0.1380,
5.996492,-0.3855,0.8033,0.0017,1.6622,1.1136,1.7575,0.4277,0.0373,0.1380,
5.997959,-0.3855,0.8033,0.0017,0.8070,-0.7522,0.8937,0.4277,0.0373,0.1380,
5.999110,-0.3855,0.8033,0.0017,0.8070,-0.7522,0.8937,0.5646,0.3739,0.2525,
6.016399,-0.4613,0.6731,-0.0904,0.8070,-0.7522,0.8937,0.5646,0.3739,0.2525,
6.018230,-0.4613,0.6731,-0.0904,0.0143,-2.0406,0.1223,0.5646,0.3739,0.2525,
6.019576,-0.4613,0.6731,-0.0904,0.0143,-2.0406,0.1223,0.8362,1.2043,0.2514,
6.037188,-0.5294,0.6391,-0.1517,0.0143,-2.0406,0.1223,0.8362,1.2043,0.2514,
6.039558,-0.5294,0.6391,-0.1517,-0.7244,-2.3771,-0.2259,0.8362,1.2043,0.2514,
6.041423,-0.5294,0.6391,-0.1517,-0.7244,-2.3771,-0.2259,1.2975,2.0815,0.1907,
6.056382,-0.5126,0.6181,-0.3315,-0.7244,-2.3771,-0.2259,1.2975,2.0815,0.1907,
6.058342,-0.5126,0.6181,-0.3315,-0.6529,-2.5619,-1.5811,1.2975,2.0815,0.1907,
6.059793,-0.5126,0.6181,-0.3315,-0.6529,-2.5619,-1.5811,1.2570,1.4930,0.2301,
6.075808,-0.5126,0.6181,-0.3315,-0.6529,-2.5619,-1.5811,0.6658,0.4922,0.1731,
6.096259,-0.3694,0.6753,-0.3149,-0.6529,-2.5619,-1.5811,0.6658,0.4922,0.1731,
6.098271,-0.3694,0.6753,-0.3149,0.6055,-1.9622,-0.9176,0.6658,0.4922,0.1731,
6.099221,-0.3694,0.6753,-0.3149,0.6055,-1.9622,-0.9176,0.1411,0.1523,0.0985,
6.116779,-0.3694,0.6753,-0.3149,0.6055,-1.9622,-0.9176,-0.0447,0.0740,0.2184,
6.136596,-0.2617,0.7288,-0.2607,0.6055,-1.9622,-0.9176,-0.0447,0.0740,0.2184,
6.139067,-0.2617,0.7288,-0.2607,1.5971,-1.4602,-0.3505,-0.0447,0.0740,0.2184,
6.140765,-0.2617,0.7288,-0.2607,1.5971,-1.4602,-0.3505,0.1917,-0.3707,0.3366,
6.156559,-0.2617,0.7288,-0.2607,1.5971,-1.4602,-0.3505,0.0325,-0.0336,-0.0075,
6.177243,-0.1942,0.7723,-0.1112,1.5971,-1.4602,-0.3505,0.0325,-0.0336,-0.0075,
6.180343,-0.1942,0.7723,-0.1112,2.2190,-1.0514,1.1199,0.0325,-0.0336,-0.0075,
6.182231,-0.1942,0.7723,-0.1112,2.2190,-1.0514,1.1199,0.0149,-0.3292,-0.1113,
6.197213,-0.1942,0.7723,-0.1112,2.2190,-1.0514,1.1199,0.1854,-0.6663,-0.0128,
6.216900,-0.2348,0.9186,-0.4881,2.2190,-1.0514,1.1199,0.1854,-0.6663,-0.0128,
6.220276,-0.2348,0.9186,-0.4881,1.8790,0.3998,-2.6162,0.1854,-0.6663,-0.0128,
6.222328,-0.2348,0.9186,-0.4881,1.8790,0.3998,-2.6162,0.0288,-0.2679,0.0208,
6.239249,-0.2348,0.9186,-0.4881,1.8790,0.3998,-2.6162,-0.2679,0.1896,-0.0091,
6.256971,-0.2502,0.7429,-0.4043,1.8790,0.3998,-2.6162,-0.2679,0.1896,-0.0091,
6.259371,-0.2502,0.7429,-0.4043,1.7296,-1.3328,-1.8426,-0.2679,0.1896,-0.0091,
6.261229,-0.2502,0.7429,-0.4043,1.7296,-1.3328,-1.8426,-0.3095,0.3686,0.0629,
6.276142,-0.2502,0.7429,-0.4043,1.7296,-1.3328,-1.8426,-0.2131,0.1065,-0.1411,
6.295760,-0.9142,0.8778,0.0633,1.7296,-1.3328,-1.8426,-0.2131,0.1065,-0.1411,
6.298802,-0.9142,0.8778,0.0633,-4.7390,-0.0080,2.6748,-0.2131,0.1065,-0.1411,
6.300623,-0.9142,0.8778,0.0633,-4.7390,-0.0080,2.6748,-0.1939,-0.7819,-0.1012,
6.316647,-0.9142,0.8778,0.0633,-4.7390,-0.0080,2.6748,0.1326,-0.2301,-0.1955,
6.336852,-0.4278,1.0163,-0.5983,-4.7390,-0.0080,2.6748,0.1326,-0.2301,-0.1955,
6.339321,-0.4278,1.0163,-0.5983,0.1197,1.3736,-3.9005,0.1326,-0.2301,-0.1955,
6.340984,-0.4278,1.0163,-0.5983,0.1197,1.3736,-3.9005,-0.0234,0.0772,-0.3611,
6.358852,-0.4278,1.0163,-0.5983,0.1197,1.3736,-3.9005,-0.0623,0.4746,-0.7537,
6.375878,-0.7234,1.2164,0.1625,0.1197,1.3736,-3.9005,-0.0623,0.4746,-0.7537,
6.378101,-0.7234,1.2164,0.1625,-2.6089,3.4290,3.5891,-0.0623,0.4746,-0.7537,
6.379893,-0.7234,1.2164,0.1625,-2.6089,3.4290,3.5891,0.2328,0.8842,-1.0003,
6.395448,-0.7234,1.2164,0.1625,-2.6089,3.4290,3.5891,0.3925,0.2807,-0.5816,
6.416078,-0.4781,1.1309,-0.1498,-2.6089,3.4290,3.5891,0.3925,0.2807,-0.5816,
6.418388,-0.4781,1.1309,-0.1498,0.0121,2.7624,0.7404,0.3925,0.2807,-0.5816,
6.419967,-0.4781,1.1309,-0.1498,0.0121,2.7624,0.7404,0.0405,0.4485,-0.1667,
6.436081,-0.4781,1.1309,-0.1498,0.0121,2.7624,0.7404,0.1475,0.4495,0.0075,
6.456324,-0.2961,0.9149,-0.1610,0.0121,2.7624,0.7404,0.1475,0.4495,0.0075,
6.458453,-0.2961,0.9149,-0.1610,1.7817,0.6694,0.7456,0.1475,0.4495,0.0075,
6.460084,-0.2961,0.9149,-0.1610,1.7817,0.6694,0.7456,0.0170,0.3457,0.2067,
6.475904,-0.2961,0.9149,-0.1610,1.7817,0.6694,0.7456,-0.3856,0.1672,0.2876,
6.496170,-0.3589,1.0464,0.1036,1.7817,0.6694,0.7456,-0.3856,0.1672,0.2876,
6.498660,-0.3589,1.0464,0.1036,1.0602,1.8947,3.3248,-0.3856,0.1672,0.2876,
6.500089,-0.3589,1.0464,0.1036,1.0602,1.8947,3.3248,-0.7169,-0.0884,0.0842,
6.516752,-0.3589,1.0464,0.1036,1.0602,1.8947,3.3248,-0.8240,-0.0836,0.0437,
6.536391,-0.3638,1.0549,-0.1876,1.0602,1.8947,3.3248,-0.8240,-0.0836,0.0437,
6.538437,-0.3638,1.0549,-0.1876,0.9984,1.9000,0.1967,-0.8240,-0.0836,0.0437,
6.539901,-0.3638,1.0549,-0.1876,0.9984,1.9000,0.1967,-1.0013,-0.4506,0.1087,
6.556051,-0.3638,1.0549,-0.1876,0.9984,1.9000,0.1967,-0.9087,-0.4906,0.3041,
6.576237,-0.3862,1.2345,0.1603,0.9984,1.9000,0.1967,-0.9087,-0.4906,0.3041,
6.578462,-0.3862,1.2345,0.1603,0.7423,3.5523,3.1966,-0.9087,-0.4906,0.3041,
6.580055,-0.3862,1.2345,0.1603,0.7423,3.5523,3.1966,-0.2019,0.0613,0.5965,
6.596460,-0.3862,1.2345,0.1603,0.7423,3.5523,3.1966,0.0794,0.4735,0.7196,
6.616587,-0.3271,0.8128,-0.1058,0.7423,3.5523,3.1966,0.0794,0.4735,0.7196,
6.618780,-0.3271,0.8128,-0.1058,1.0618,-0.7124,0.5915,0.0794,0.4735,0.7196,
6.620581,-0.3271,0.8128,-0.1058,1.0618,-0.7124,0.5915,-0.0623,0.1550,0.7808,
6.638581,-0.3271,0.8128,-0.1058,1.0618,-0.7124,0.5915,-0.2056,-0.4171,1.0615,
6.656755,-0.3643,0.4082,-0.1556,1.0618,-0.7124,0.5915,-0.2056,-0.4171,1.0615,
6.659267,-0.3643,0.4082,-0.1556,0.3838,-4.8370,0.0354,-0.2056,-0.4171,1.0615,
6.661009,-0.3643,0.4082,-0.1556,0.3838,-4.8370,0.0354,-0.2392,-0.0852,1.4077,
6.676332,-0.3643,0.4082,-0.1556,0.3838,-4.8370,0.0354,-0.4767,0.3654,1.7955,
6.696680,-0.6845,0.2780,-0.1334,0.3838,-4.8370,0.0354,-0.4767,0.3654,1.7955,
6.700189,-0.6845,0.2780,-0.1334,-3.3368,-6.3691,0.1442,-0.4767,0.3654,1.7955,
6.702196,-0.6845,0.2780,-0.1334,-3.3368,-6.3691,0.1442,-0.3899,0.4048,2.5108,
6.715570,-0.6845,0.2780,-0.1334,-3.3368,-6.3691,0.1442,-0.3744,0.6067,3.5164,
6.735987,-0.1143,0.4407,0.1119,-3.3368,-6.3691,0.1442,-0.3744,0.6067,3.5164,
6.738935,-0.1143,0.4407,0.1119,1.1056,-5.1333,2.4629,-0.3744,0.6067,3.5164,
6.740466,-0.1143,0.4407,0.1119,1.1056,-5.1333,2.4629,-0.2477,0.6354,3.3407,
6.757615,-0.1143,0.4407,0.1119,1.1056,-5.1333,2.4629,0.2541,0.5859,2.1699,
6.775661,-0.1097,0.7153,-0.0496,1.1056,-5.1333,2.4629,0.2541,0.5859,2.1699,
6.779276,-0.1097,0.7153,-0.0496,0.0658,-2.6275,0.9220,0.2541,0.5859,2.1699,
6.781271,-0.1097,0.7153,-0.0496,0.0658,-2.6275,0.9220,0.7041,0.1204,1.2884,
6.795695,-0.1097,0.7153,-0.0496,0.0658,-2.6275,0.9220,0.5284,-0.9859,0.8762,
6.815342,-0.2250,1.3522,-0.2587,0.0658,-2.6275,0.9220,0.5284,-0.9859,0.8762,
6.817637,-0.2250,1.3522,-0.2587,-1.4168,3.6130,-0.9105,0.5284,-0.9859,0.8762,
6.819570,-0.2250,1.3522,-0.2587,-1.4168,3.6130,-0.9105,0.3680,-1.8813,0.9385,
6.835922,-0.2250,1.3522,-0.2587,-1.4168,3.6130,-0.9105,0.3265,-1.4072,1.0844,
6.855746,0.0303,0.9508,-0.3076,-1.4168,3.6130,-0.9105,0.3265,-1.4072,1.0844,
6.858034,0.0303,0.9508,-0.3076,0.8227,-0.3214,-1.2903,0.3265,-1.4072,1.0844,
6.859947,0.0303,0.9508,-0.3076,0.8227,-0.3214,-1.2903,0.6658,-0.2024,1.3699,
6.876463,0.0303,0.9508,-0.3076,0.8227,-0.3214,-1.2903,0.9337,-0.4719,0.8890,
6.895338,0.0066,1.2047,-0.2658,0.8227,-0.3214,-1.2903,0.9337,-0.4719,0.8890,
6.897676,0.0066,1.2047,-0.2658,0.1865,2.2121,-0.5761,0.9337,-0.4719,0.8890,
6.899472,0.0066,1.2047,-0.2658,0.1865,2.2121,-0.5761,0.8357,0.0815,0.4160,
6.915399,0.0066,1.2047,-0.2658,0.1865,2.2121,-0.5761,0.0884,0.1704,0.2258,
6.935202,-0.0220,1.1397,-0.1923,0.1865,2.2121,-0.5761,0.0884,0.1704,0.2258,
6.937416,-0.0220,1.1397,-0.1923,-0.2271,1.6135,0.3213,0.0884,0.1704,0.2258,
6.939236,-0.0220,1.1397,-0.1923,-0.2271,1.6135,0.3213,-0.4400,0.0559,0.0586,
6.955512,-0.0220,1.1397,-0.1923,-0.2271,1.6135,0.3213,-0.4511,-0.0618,-0.0602,
6.976020,0.0308,1.2447,-0.1295,-0.2271,1.6135,0.3213,-0.4511,-0.0618,-0.0602,
6.978416,0.0308,1.2447,-0.1295,0.2905,2.6053,0.7662,-0.4511,-0.0618,-0.0602,
6.980036,0.0308,1.2447,-0.1295,0.2905,2.6053,0.7662,-0.1656,-0.1060,-0.1278,
6.996037,0.0308,1.2447,-0.1295,0.2905,2.6053,0.7662,0.3691,-0.2866,-0.1481,
7.015352,-0.2135,1.2242,-0.4522,0.2905,2.6053,0.7662,0.3691,-0.2866,-0.1481,
7.017970,-0.2135,1.2242,-0.4522,-2.0350,2.4127,-2.3578,0.3691,-0.2866,-0.1481,
7.019563,-0.2135,1.2242,-0.4522,-2.0350,2.4127,-2.3578,0.7814,-0.5412,0.1635,
7.036140,-0.2135,1.2242,-0.4522,-2.0350,2.4127,-2.3578,0.6115,-0.3127,0.5039,
7.055079,0.0042,1.1824,-0.1683,-2.0350,2.4127,-2.3578,0.6115,-0.3127,0.5039,
7.057874,0.0042,1.1824,-0.1683,0.0085,2.0644,0.6894,0.6115,-0.3127,0.5039,
7.059655,0.0042,1.1824,-0.1683,0.0085,2.0644,0.6894,0.3196,-0.7585,0.2615,
7.075628,0.0042,1.1824,-0.1683,0.0085,2.0644,0.6894,0.0176,-0.5220,-0.0586,
7.095261,0.0508,0.8929,-0.1593,0.0085,2.0644,0.6894,0.0176,-0.5220,-0.0586,
7.098460,0.0508,0.8929,-0.1593,0.4890,-0.7578,0.8383,0.0176,-0.5220,-0.0586,
7.100408,0.0508,0.8929,-0.1593,0.4890,-0.7578,0.8383,-0.1656,0.6269,-0.2306,
7.115165,0.0508,0.8929,-0.1593,0.4890,-0.7578,0.8383,-0.0197,1.5388,0.2482,
7.135560,0.1009,0.8582,0.0188,0.4890,-0.7578,0.8383,-0.0197,1.5388,0.2482,
7.139534,0.1009,0.8582,0.0188,0.8656,-1.1159,2.5073,-0.0197,1.5388,0.2482,
7.141346,0.1009,0.8582,0.0188,0.8656,-1.1159,2.5073,0.1273,0.9326,0.5358,
7.155047,0.1009,0.8582,0.0188,0.8656,-1.1159,2.5073,0.2429,-0.0405,0.6653,
7.175800,0.2631,0.8829,-0.0374,0.8656,-1.1159,2.5073,0.2429,-0.0405,0.6653,
7.178266,0.2631,0.8829,-0.0374,2.1667,-0.8566,1.9950,0.2429,-0.0405,0.6653,
7.179983,0.2631,0.8829,-0.0374,2.1667,-0.8566,1.9950,0.3084,-0.3686,0.7462,
7.194902,0.2631,0.8829,-0.0374,2.1667,-0.8566,1.9950,0.3702,-0.6386,0.9534,
7.214638,0.2907,1.1052,-0.2343,2.1667,-0.8566,1.9950,0.3702,-0.6386,0.9534,
7.217617,0.2907,1.1052,-0.2343,2.1333,1.3688,0.1775,0.3702,-0.6386,0.9534,
7.219511,0.2907,1.1052,-0.2343,2.1333,1.3688,0.1775,0.3680,-0.9555,1.0424,
7.234440,0.2907,1.1052,-0.2343,2.1333,1.3688,0.1775,0.2818,-0.2823,0.8027,
7.255538,0.2399,0.9936,-0.4117,2.1333,1.3688,0.1775,0.2818,-0.2823,0.8027,
7.259064,0.2399,0.9936,-0.4117,1.3326,0.3401,-1.4212,0.2818,-0.2823,0.8027,
7.261589,0.2399,0.9936,-0.4117,1.3326,0.3401,-1.4212,0.2328,0.7803,0.1422,
7.274978,0.2399,0.9936,-0.4117,1.3326,0.3401,-1.4212,0.4394,0.2450,-0.3308,
7.294546,0.3445,0.8773,-0.1823,1.3326,0.3401,-1.4212,0.4394,0.2450,-0.3308,
7.295884,0.3445,0.8773,-0.1823,2.2812,-0.7662,0.9141,0.4394,0.2450,-0.3308,
7.296765,0.3445,0.8773,-0.1823,2.2812,-0.7662,0.9141,0.5385,-0.1310,-0.8256,
7.314714,0.3445,0.8773,-0.1823,2.2812,-0.7662,0.9141,0.4948,0.1561,-1.3119,
7.334081,-0.1214,0.6086,-0.2140,2.2812,-0.7662,0.9141,0.4948,0.1561,-1.3119,
7.335736,-0.1214,0.6086,-0.2140,-1.8870,-3.3802,0.7960,0.4948,0.1561,-1.3119,
7.336944,-0.1214,0.6086,-0.2140,-1.8870,-3.3802,0.7960,0.5310,0.8959,-0.7617,
7.356305,-0.1214,0.6086,-0.2140,-1.8870,-3.3802,0.7960,0.3526,1.2485,-0.2477,
7.374282,0.1041,0.7451,-0.3872,-1.8870,-3.3802,0.7960,0.3526,1.2485,-0.2477,
7.375592,0.1041,0.7451,-0.3872,0.3833,-2.0025,-0.7642,0.3526,1.2485,-0.2477,
7.376502,0.1041,0.7451,-0.3872,0.3833,-2.0025,-0.7642,0.0671,1.2123,-0.1736,
7.394641,0.1041,0.7451,-0.3872,0.3833,-2.0025,-0.7642,-0.0911,0.9539,-0.2903,
7.414092,0.1539,0.8768,-0.3325,0.3833,-2.0025,-0.7642,-0.0911,0.9539,-0.2903,
7.416700,0.1539,0.8768,-0.3325,0.8273,-0.7197,-0.2611,-0.0911,0.9539,-0.2903,
7.418567,0.1539,0.8768,-0.3325,0.8273,-0.7197,-0.2611,-0.0559,0.5646,-0.3153,
7.435273,0.1539,0.8768,-0.3325,0.8273,-0.7197,-0.2611,-0.0234,0.1113,-0.3164,
7.453947,0.0606,0.7363,-0.3555,0.8273,-0.7197,-0.2611,-0.0234,0.1113,-0.3164,
7.456862,0.0606,0.7363,-0.3555,-0.0100,-2.1093,-0.5099,-0.0234,0.1113,-0.3164,
7.459151,0.0606,0.7363,-0.3555,-0.0100,-2.1093,-0.5099,-0.2557,-0.1561,-0.3222,
7.474506,0.0606,0.7363,-0.3555,-0.0100,-2.1093,-0.5099,-0.5614,0.0048,-0.2764,
7.494768,0.0904,0.7852,-0.4026,-0.0100,-2.1093,-0.5099,-0.5614,0.0048,-0.2764,
7.497338,0.0904,0.7852,-0.4026,0.4028,-1.6842,-1.1229,-0.5614,0.0048,-0.2764,
7.499297,0.0904,0.7852,-0.4026,0.4028,-1.6842,-1.1229,-0.7526,0.2791,-0.2663,
7.514669,0.0904,0.7852,-0.4026,0.4028,-1.6842,-1.1229,-0.8831,0.5763,-0.3249,
7.534169,0.0191,0.8736,-0.4151,0.4028,-1.6842,-1.1229,-0.8831,0.5763,-0.3249,
7.536537,0.0191,0.8736,-0.4151,-0.2312,-0.9081,-1.5540,-0.8831,0.5763,-0.3249,
7.538564,0.0191,0.8736,-0.4151,-0.2312,-0.9081,-1.5540,-0.8266,0.8554,-0.4032,
7.555152,0.0191,0.8736,-0.4151,-0.2312,-0.9081,-1.5540,-0.5598,0.5342,-0.4756,
7.574570,-0.0095,1.1140,-0.2670,-0.2312,-0.9081,-1.5540,-0.5598,0.5342,-0.4756,
7.577266,-0.0095,1.1140,-0.2670,-0.4100,1.3847,-0.3377,-0.5598,0.5342,-0.4756,
7.579090,-0.0095,1.1140,-0.2670,-0.4100,1.3847,-0.3377,-0.2360,-0.0336,-0.4298,
7.593956,-0.0095,1.1140,-0.2670,-0.4100,1.3847,-0.3377,-0.0719,-0.0703,-0.3169,
7.614722,-0.0420,1.2118,-0.2748,-0.4100,1.3847,-0.3377,-0.0719,-0.0703,-0.3169,
7.617126,-0.0420,1.2118,-0.2748,-0.5815,2.3249,-0.4725,-0.0719,-0.0703,-0.3169,
7.618975,-0.0420,1.2118,-0.2748,-0.5815,2.3249,-0.4725,0.3265,0.7840,-0.3041,
7.633797,-0.0420,1.2118,-0.2748,-0.5815,2.3249,-0.4725,0.7574,1.0472,-0.6104,
7.653812,-0.2978,1.0359,-0.7007,-0.5815,2.3249,-0.4725,0.7574,1.0472,-0.6104,
7.656601,-0.2978,1.0359,-0.7007,-2.9986,0.6490,-4.4442,0.7574,1.0472,-0.6104,
7.658631,-0.2978,1.0359,-0.7007,-2.9986,0.6490,-4.4442,0.4985,0.5763,-0.7920,
7.673560,-0.2978,1.0359,-0.7007,-2.9986,0.6490,-4.4442,0.4437,0.2152,-0.6381,
7.694692,0.0156,1.2352,-0.2805,-2.9986,0.6490,-4.4442,0.4437,0.2152,-0.6381,
7.697083,0.0156,1.2352,-0.2805,0.3045,2.6509,-0.1476,0.4437,0.2152,-0.6381,
7.698881,0.0156,1.2352,-0.2805,0.3045,2.6509,-0.1476,0.4815,-0.4416,-0.2445,
7.714463,0.0156,1.2352,-0.2805,0.3045,2.6509,-0.1476,-0.1023,-0.7601,0.2898,
7.733831,0.2067,1.1157,-0.0699,0.3045,2.6509,-0.1476,-0.1023,-0.7601,0.2898,
7.736435,0.2067,1.1157,-0.0699,2.2322,1.4997,1.9828,-0.1023,-0.7601,0.2898,
7.737949,0.2067,1.1157,-0.0699,2.2322,1.4997,1.9828,-0.6344,-0.6125,0.7270,
7.755718,0.2067,1.1157,-0.0699,2.2322,1.4997,1.9828,-0.8234,-0.5017,1.1894,
7.774044,0.3804,0.9313,0.0711,2.2322,1.4997,1.9828,-0.8234,-0.5017,1.1894,
7.777197,0.3804,0.9313,0.0711,3.6042,-0.3881,3.0680,-0.8234,-0.5017,1.1894,
7.779569,0.3804,0.9313,0.0711,3.6042,-0.3881,3.0680,-0.7036,-0.4906,1.6416,
7.793525,0.3804,0.9313,0.0711,3.6042,-0.3881,3.0680,-0.0969,-0.3095,1.6219,
7.813938,0.7134,0.9831,0.0445,3.6042,-0.3881,3.0680,-0.0969,-0.3095,1.6219,
7.816520,0.7134,0.9831,0.0445,6.2818,0.1096,2.6601,-0.0969,-0.3095,1.6219,
7.818207,0.7134,0.9831,0.0445,6.2818,0.1096,2.6601,-0.0266,-0.5071,0.8538,
7.833926,0.7134,0.9831,0.0445,6.2818,0.1096,2.6601,-0.3478,-0.4645,-0.1758,
7.854105,0.1686,1.1846,0.0230,6.2818,0.1096,2.6601,-0.3478,-0.4645,-0.1758,
7.856309,0.1686,1.1846,0.0230,0.8566,2.0788,2.3938,-0.3478,-0.4645,-0.1758,
7.857923,0.1686,1.1846,0.0230,0.8566,2.0788,2.3938,-0.7047,-0.0799,-0.8895,
7.875103,0.1686,1.1846,0.0230,0.8566,2.0788,2.3938,-0.9523,0.5167,-0.9044,
7.893881,0.0054,0.9723,0.0017,0.8566,2.0788,2.3938,-0.9523,0.5167,-0.9044,
7.896680,0.0054,0.9723,0.0017,-0.4391,-0.0958,1.8316,-0.9523,0.5167,-0.9044,
7.898874,0.0054,0.9723,0.0017,-0.4391,-0.0958,1.8316,-0.9129,1.3939,-0.7105,
7.913571,0.0054,0.9723,0.0017,-0.4391,-0.0958,1.8316,-0.6397,1.6336,-0.6818,
7.934259,-0.0718,0.8192,-0.2665,-0.4391,-0.0958,1.8316,-0.6397,1.6336,-0.6818,
7.936609,-0.0718,0.8192,-0.2665,-1.0347,-1.6601,-1.1266,-0.6397,1.6336,-0.6818,
7.938709,-0.0718,0.8192,-0.2665,-1.0347,-1.6601,-1.1266,-0.5172,1.4360,-0.5710,
7.954663,-0.0718,0.8192,-0.2665,-1.0347,-1.6601,-1.1266,-0.5348,0.9843,-0.4442,
7.974312,-0.0774,0.7688,-0.1742,-1.0347,-1.6601,-1.1266,-0.5348,0.9843,-0.4442,
7.976683,-0.0774,0.7688,-0.1742,-0.9600,-2.1876,-0.4385,-0.5348,0.9843,-0.4442,
7.978756,-0.0774,0.7688,-0.1742,-0.9600,-2.1876,-0.4385,-0.4836,0.2961,-0.3473,
7.994279,-0.0774,0.7688,-0.1742,-0.9600,-2.1876,-0.4385,-0.3174,-0.0794,-0.3196,
8.014041,-0.0704,0.7938,-0.0474,-0.9600,-2.1876,-0.4385,-0.3174,-0.0794,-0.3196,
8.017033,-0.0704,0.7938,-0.0474,-0.7665,-1.9643,0.6476,-0.3174,-0.0794,-0.3196,
8.019007,-0.0704,0.7938,-0.0474,-0.7665,-1.9643,0.6476,-0.1007,-0.1060,-0.2706,
8.033512,-0.0704,0.7938,-0.0474,-0.7665,-1.9643,0.6476,-0.0069,-0.0485,-0.2290,
8.054937,-0.0239,0.8524,-0.0958,-0.7665,-1.9643,0.6476,-0.0069,-0.0485,-0.2290,
8.057945,-0.0239,0.8524,-0.0958,-0.2109,-1.3923,0.1527,-0.0069,-0.0485,-0.2290,
8.059746,-0.0239,0.8524,-0.0958,-0.2109,-1.3923,0.1527,-0.0581,-0.1012,-0.1854,
8.074314,-0.0239,0.8524,-0.0958,-0.2109,-1.3923,0.1527,-0.2429,-0.2684,-0.1108,
8.093995,0.0340,0.9152,-0.1449,-0.2109,-1.3923,0.1527,-0.2429,-0.2684,-0.1108,
8.098314,0.0340,0.9152,-0.1449,0.4220,-0.7831,-0.3876,-0.2429,-0.2684,-0.1108,
8.100405,0.0340,0.9152,-0.1449,0.4220,-0.7831,-0.3876,-0.4634,-0.4096,0.0117,
8.113811,0.0340,0.9152,-0.1449,0.4220,-0.7831,-0.3876,-0.5087,-0.3036,0.1166,
8.134225,0.1087,0.9064,-0.1622,0.4220,-0.7831,-0.3876,-0.5087,-0.3036,0.1166,
8.136570,0.1087,0.9064,-0.1622,1.1431,-0.8877,-0.7483,-0.5087,-0.3036,0.1166,
8.138504,0.1087,0.9064,-0.1622,1.1431,-0.8877,-0.7483,-0.3728,-0.0565,0.1928,
8.154062,0.1087,0.9064,-0.1622,1.1431,-0.8877,-0.7483,-0.1385,0.1385,0.2642,
8.174177,0.0718,1.0083,-0.2587,1.1431,-0.8877,-0.7483,-0.1385,0.1385,0.2642,
8.176404,0.0718,1.0083,-0.2587,0.6774,0.1046,-1.7652,-0.1385,0.1385,0.2642,
8.178074,0.0718,1.0083,-0.2587,0.6774,0.1046,-1.7652,0.1443,0.2242,0.2988,
8.193943,0.0718,1.0083,-0.2587,0.6774,0.1046,-1.7652,0.3457,-0.1310,0.2818,
8.213269,-0.0821,1.2083,-0.1329,0.6774,0.1046,-1.7652,0.3457,-0.1310,0.2818,
8.216364,-0.0821,1.2083,-0.1329,-0.9434,2.0751,-0.4280,0.3457,-0.1310,0.2818,
8.218549,-0.0821,1.2083,-0.1329,-0.9434,2.0751,-0.4280,0.3723,-0.3148,0.2248,
8.233202,-0.0821,1.2083,-0.1329,-0.9434,2.0751,-0.4280,0.2541,-0.1726,0.1683,
8.253046,-0.1671,1.2692,-0.1630,-0.9434,2.0751,-0.4280,0.2541,-0.1726,0.1683,
8.255573,-0.1671,1.2692,-0.1630,-1.8441,2.6843,-0.5987,0.2541,-0.1726,0.1683,
8.257118,-0.1671,1.2692,-0.1630,-1.8441,2.6843,-0.5987,0.0836,0.0698,0.1800,
8.272865,-0.1671,1.2692,-0.1630,-1.8441,2.6843,-0.5987,0.0799,0.1103,0.2194,
8.293617,0.0503,1.5330,-0.2453,-1.8441,2.6843,-0.5987,0.0799,0.1103,0.2194,
8.296554,0.0503,1.5330,-0.2453,0.2053,5.2754,-1.3746,0.0799,0.1103,0.2194,
8.298368,0.0503,1.5330,-0.2453,0.2053,5.2754,-1.3746,0.2360,0.0128,0.1662,
8.313709,0.0503,1.5330,-0.2453,0.2053,5.2754,-1.3746,0.3638,-0.1023,0.1358,
8.333324,0.0007,1.0916,-0.0730,0.2053,5.2754,-1.3746,0.3638,-0.1023,0.1358,
8.337728,0.0007,1.0916,-0.0730,-0.3375,0.9640,0.4305,0.3638,-0.1023,0.1358,
8.339665,0.0007,1.0916,-0.0730,-0.3375,0.9640,0.4305,0.4043,-0.4053,0.1646,
8.356585,0.0007,1.0916,-0.0730,-0.3375,0.9640,0.4305,0.3377,-0.6003,0.1182,
8.373719,0.0914,0.7136,-0.0125,-0.3375,0.9640,0.4305,0.3377,-0.6003,0.1182,
8.376018,0.0914,0.7136,-0.0125,0.5227,-2.7220,1.1591,0.3377,-0.6003,0.1182,
8.377772,0.0914,0.7136,-0.0125,0.5227,-2.7220,1.1591,0.2413,-0.7238,0.0021,
8.393808,0.0914,0.7136,-0.0125,0.5227,-2.7220,1.1591,0.1124,-0.8485,-0.1417,
8.413594,0.2033,1.0119,0.0171,0.5227,-2.7220,1.1591,0.1124,-0.8485,-0.1417,
8.415918,0.2033,1.0119,0.0171,1.6623,0.2060,1.4951,0.1124,-0.8485,-0.1417,
8.417548,0.2033,1.0119,0.0171,1.6623,0.2060,1.4951,-0.0948,-1.0131,-0.2333,
8.432842,0.2033,1.0119,0.0171,1.6623,0.2060,1.4951,-0.2775,-1.1968,-0.2226,
8.453874,0.3122,1.1751,0.1820,1.6623,0.2060,1.4951,-0.2775,-1.1968,-0.2226,
8.457228,0.3122,1.1751,0.1820,2.8740,1.7930,3.0478,-0.2775,-1.1968,-0.2226,
8.459001,0.3122,1.1751,0.1820,2.8740,1.7930,3.0478,-0.1726,-1.3039,-0.1662,
8.473657,0.3122,1.1751,0.1820,2.8740,1.7930,3.0478,0.1859,-1.0892,-0.0570,
8.493452,0.2055,0.9850,0.0557,2.8740,1.7930,3.0478,0.1859,-1.0892,-0.0570,
8.495785,0.2055,0.9850,0.0557,1.9024,-0.0733,1.7907,0.1859,-1.0892,-0.0570,
8.497571,0.2055,0.9850,0.0557,1.9024,-0.0733,1.7907,0.5039,-0.5364,0.0767,
8.513919,0.2055,0.9850,0.0557,1.9024,-0.0733,1.7907,0.6860,0.1614,0.2306,
8.533661,0.1749,0.7757,-0.0796,1.9024,-0.0733,1.7907,0.6860,0.1614,0.2306,
8.537006,0.1749,0.7757,-0.0796,1.5208,-2.0951,0.6710,0.6860,0.1614,0.2306,
8.538968,0.1749,0.7757,-0.0796,1.5208,-2.0951,0.6710,0.8011,0.8272,0.2983,
8.553927,0.1749,0.7757,-0.0796,1.5208,-2.0951,0.6710,0.8815,1.3188,0.2493,
8.573840,0.1041,0.7253,-0.1451,1.5208,-2.0951,0.6710,0.8815,1.3188,0.2493,
8.576162,0.1041,0.7253,-0.1451,0.6513,-2.5313,0.3417,0.8815,1.3188,0.2493,
8.577966,0.1041,0.7253,-0.1451,0.6513,-2.5313,0.3417,0.9193,1.5414,0.1971,
8.593266,0.1041,0.7253,-0.1451,0.6513,-2.5313,0.3417,0.9497,1.5484,0.1449,
8.613497,0.0569,0.7317,-0.2424,0.6513,-2.5313,0.3417,0.9497,1.5484,0.1449,
8.615872,0.0569,0.7317,-0.2424,0.0046,-2.3939,-0.2812,0.9497,1.5484,0.1449,
8.617763,0.0569,0.7317,-0.2424,0.0046,-2.3939,-0.2812,0.9619,1.4440,0.1119,
8.633460,0.0569,0.7317,-0.2424,0.0046,-2.3939,-0.2812,0.8517,1.1207,0.0607,
8.653708,0.0743,0.7593,-0.3689,0.0046,-2.3939,-0.2812,0.8517,1.1207,0.0607,
8.658648,0.0743,0.7593,-0.3689,0.0267,-2.0397,-1.2086,0.8517,1.1207,0.0607,
8.660428,0.0743,0.7593,-0.3689,0.0267,-2.0397,-1.2086,0.6200,0.6589,-0.0352,
8.673107,0.0743,0.7593,-0.3689,0.0267,-2.0397,-1.2086,0.2216,0.0671,-0.1257,
8.693403,0.1136,0.7373,-0.4383,0.0267,-2.0397,-1.2086,0.2216,0.0671,-0.1257,
8.695907,0.1136,0.7373,-0.4383,0.4067,-2.2158,-1.7398,0.2216,0.0671,-0.1257,
8.697777,0.1136,0.7373,-0.4383,0.4067,-2.2158,-1.7398,-0.2477,-0.3952,-0.2109,
8.712812,0.1136,0.7373,-0.4383,0.4067,-2.2158,-1.7398,-0.6418,-0.4139,-0.1997,
8.733142,0.0975,0.8634,-0.4151,0.4067,-2.2158,-1.7398,-0.6418,-0.4139,-0.1997,
8.736484,0.0975,0.8634,-0.4151,0.3666,-1.0297,-1.6701,-0.6418,-0.4139,-0.1997,
8.738520,0.0975,0.8634,-0.4151,0.3666,-1.0297,-1.6701,-0.9087,-0.1049,-0.2019,
8.752141,0.0975,0.8634,-0.4151,0.3666,-1.0297,-1.6701,-0.8932,0.3984,-0.2786,
8.773146,-0.0467,1.0669,-0.4187,0.3666,-1.0297,-1.6701,-0.8932,0.3984,-0.2786,
8.776090,-0.0467,1.0669,-0.4187,-0.9615,0.8941,-1.9831,-0.8932,0.3984,-0.2786,
8.777798,-0.0467,1.0669,-0.4187,-0.9615,0.8941,-1.9831,-0.5518,0.7366,-0.4101,
8.792765,-0.0467,1.0669,-0.4187,-0.9615,0.8941,-1.9831,0.1204,0.6147,-0.4868,
8.812498,0.0479,1.3251,-0.3391,-0.9615,0.8941,-1.9831,0.1204,0.6147,-0.4868,
8.815648,0.0479,1.3251,-0.3391,0.0815,3.3988,-1.2974,0.1204,0.6147,-0.4868,
8.817348,0.0479,1.3251,-0.3391,0.0815,3.3988,-1.2974,0.3100,-0.3483,-0.1736,
8.832391,0.0479,1.3251,-0.3391,0.0815,3.3988,-1.2974,0.2077,-0.1949,-0.0474,
8.852326,0.0195,1.0630,-0.4525,0.0815,3.3988,-1.2974,0.2077,-0.1949,-0.0474,
8.854613,0.0195,1.0630,-0.4525,-0.1314,0.8498,-2.3054,0.2077,-0.1949,-0.0474,
8.856435,0.0195,1.0630,-0.4525,-0.1314,0.8498,-2.3054,0.7489,1.2213,-0.4426,
8.872465,0.0195,1.0630,-0.4525,-0.1314,0.8498,-2.3054,1.2091,0.7153,-0.6903,
8.892995,0.0618,1.3293,-0.4510,-0.1314,0.8498,-2.3054,1.2091,0.7153,-0.6903,
8.896302,0.0618,1.3293,-0.4510,0.4108,3.5436,-1.9296,1.2091,0.7153,-0.6903,
8.898619,0.0618,1.3293,-0.4510,0.4108,3.5436,-1.9296,0.9337,-1.0344,-0.5214,
8.912634,0.0618,1.3293,-0.4510,0.4108,3.5436,-1.9296,-0.0874,-2.3329,-0.1816,
8.933292,0.2094,1.0703,-0.0887,0.4108,3.5436,-1.9296,-0.0874,-2.3329,-0.1816,
8.936558,0.2094,1.0703,-0.0887,2.1669,1.0482,1.7819,-0.0874,-2.3329,-0.1816,
8.938378,0.2094,1.0703,-0.0887,2.1669,1.0482,1.7819,-0.9231,-2.8006,0.3334,
8.953140,0.2094,1.0703,-0.0887,2.1669,1.0482,1.7819,-1.0376,-2.1486,0.6924,
8.972977,0.4217,0.8915,0.0982,2.1669,1.0482,1.7819,-1.0376,-2.1486,0.6924,
8.975099,0.4217,0.8915,0.0982,4.2685,-0.8077,3.2122,-1.0376,-2.1486,0.6924,
8.976858,0.4217,0.8915,0.0982,4.2685,-0.8077,3.2122,-0.7622,-0.8490,0.7446,
8.992590,0.4217,0.8915,0.0982,4.2685,-0.8077,3.2122,-0.3638,-0.1987,0.4453,
9.012858,0.2624,1.0752,0.2507,4.2685,-0.8077,3.2122,-0.3638,-0.1987,0.4453,
9.016383,0.2624,1.0752,0.2507,2.5121,0.9407,4.4764,-0.3638,-0.1987,0.4453,
9.018296,0.2624,1.0752,0.2507,2.5121,0.9407,4.4764,-0.2887,-0.7073,0.1433,
9.033633,0.2624,1.0752,0.2507,2.5121,0.9407,4.4764,-0.2045,-0.9950,-0.0123,
9.053521,0.1131,1.1048,0.2670,2.5121,0.9407,4.4764,-0.2045,-0.9950,-0.0123,
9.055690,0.1131,1.1048,0.2670,1.0904,1.2109,4.5428,-0.2045,-0.9950,-0.0123,
9.057281,0.1131,1.1048,0.2670,1.0904,1.2109,4.5428,0.0027,-0.7404,-0.1907,
9.073063,0.1131,1.1048,0.2670,1.0904,1.2109,4.5428,0.2354,-0.1374,-0.3702,
9.093159,0.0525,0.8807,0.0257,1.0904,1.2109,4.5428,0.2354,-0.1374,-0.3702,
9.095420,0.0525,0.8807,0.0257,0.5963,-0.9914,2.1414,0.2354,-0.1374,-0.3702,
9.097159,0.0525,0.8807,0.0257,0.5963,-0.9914,2.1414,0.3334,0.3388,-0.5214,
9.112505,0.0525,0.8807,0.0257,0.5963,-0.9914,2.1414,0.1364,0.7713,-0.6349,
9.132613,-0.1280,0.7571,-0.3665,0.5963,-0.9914,2.1414,0.1364,0.7713,-0.6349,
9.134935,-0.1280,0.7571,-0.3665,-0.9944,-2.1806,-1.6069,0.1364,0.7713,-0.6349,
9.136814,-0.1280,0.7571,-0.3665,-0.9944,-2.1806,-1.6069,-0.3260,1.2394,-0.5752,
9.153697,-0.1280,0.7571,-0.3665,-0.9944,-2.1806,-1.6069,-0.7483,1.5851,-0.3382,
9.173147,-0.2262,0.6924,-0.4339,-0.9944,-2.1806,-1.6069,-0.7483,1.5851,-0.3382,
9.178624,-0.2262,0.6924,-0.4339,-1.8889,-2.8501,-2.4565,-0.7483,1.5851,-0.3382,
9.181069,-0.2262,0.6924,-0.4339,-1.8889,-2.8501,-2.4565,-0.8954,1.1601,0.0107,
9.192505,-0.2262,0.6924,-0.4339,-1.8889,-2.8501,-2.4565,-0.5715,-0.1726,0.2402,
9.212047,-0.0545,0.9137,-0.1146,-1.8889,-2.8501,-2.4565,-0.5715,-0.1726,0.2402,
9.215944,-0.0545,0.9137,-0.1146,-0.2885,-0.7309,0.3958,-0.5715,-0.1726,0.2402,
9.217997,-0.0545,0.9137,-0.1146,-0.2885,-0.7309,0.3958,-0.1662,-0.9731,0.1641,
9.232323,-0.0545,0.9137,-0.1146,-0.2885,-0.7309,0.3958,-0.0170,-0.9076,0.0948,
9.252905,-0.1761,0.9218,-0.1432,-0.2885,-0.7309,0.3958,-0.0170,-0.9076,0.0948,
9.255440,-0.1761,0.9218,-0.1432,-1.4729,-0.6585,0.0717,-0.0170,-0.9076,0.0948,
9.257299,-0.1761,0.9218,-0.1432,-1.4729,-0.6585,0.0717,-0.0160,-0.3036,0.1310,
9.272862,-0.1761,0.9218,-0.1432,-1.4729,-0.6585,0.0717,-0.1092,0.2551,0.1667,
9.292309,-0.1586,0.8983,-0.2687,-1.4729,-0.6585,0.0717,-0.1092,0.2551,0.1667,
9.295411,-0.1586,0.8983,-0.2687,-1.3451,-0.8920,-1.1758,-0.1092,0.2551,0.1667,
9.297447,-0.1586,0.8983,-0.2687,-1.3451,-0.8920,-1.1758,-0.1917,0.2796,0.1667,
9.312536,-0.1586,0.8983,-0.2687,-1.3451,-0.8920,-1.1758,-0.1150,0.0644,0.1854,
9.332748,-0.0110,0.8973,-0.2883,-1.3451,-0.8920,-1.1758,-0.1150,0.0644,0.1854,
9.335414,-0.0110,0.8973,-0.2883,0.0312,-0.9094,-1.4119,-0.1150,0.0644,0.1854,
9.337233,-0.0110,0.8973,-0.2883,0.0312,-0.9094,-1.4119,0.0794,0.0245,0.2226,
9.354314,-0.0110,0.8973,-0.2883,0.0312,-0.9094,-1.4119,0.2653,-0.0314,0.2226,
9.374580,-0.0787,1.0608,-0.1459,0.0312,-0.9094,-1.4119,0.2653,-0.0314,0.2226,
9.377469,-0.0787,1.0608,-0.1459,-0.6918,0.7045,0.0696,0.2653,-0.0314,0.2226,
9.379158,-0.0787,1.0608,-0.1459,-0.6918,0.7045,0.0696,0.2972,-0.2961,0.1875,
9.392350,-0.0787,1.0608,-0.1459,-0.6918,0.7045,0.0696,0.1257,-0.4133,0.1593,
9.412804,-0.1151,1.1595,-0.1488,-0.6918,0.7045,0.0696,0.1257,-0.4133,0.1593,
9.416315,-0.1151,1.1595,-0.1488,-1.0825,1.6846,0.1228,0.1257,-0.4133,0.1593,
9.418299,-0.1151,1.1595,-0.1488,-1.0825,1.6846,0.1228,-0.0831,-0.1316,0.1289,
9.432151,-0.1151,1.1595,-0.1488,-1.0825,1.6846,0.1228,-0.0905,0.3686,0.1188,
9.452219,0.0093,1.3383,-0.3699,-1.0825,1.6846,0.1228,-0.0905,0.3686,0.1188,
9.454484,0.0093,1.3383,-0.3699,0.0809,3.4316,-2.0775,-0.0905,0.3686,0.1188,
9.456213,0.0093,1.3383,-0.3699,0.0809,3.4316,-2.0775,0.2370,0.5774,0.1641,
9.471149,0.0093,1.3383,-0.3699,0.0809,3.4316,-2.0775,0.3318,0.3366,0.1507,
9.491875,-0.0337,1.4343,-0.0286,0.0809,3.4316,-2.0775,0.3318,0.3366,0.1507,
9.493993,-0.0337,1.4343,-0.0286,-0.4303,4.3911,1.3762,0.3318,0.3366,0.1507,
9.495216,-0.0337,1.4343,-0.0286,-0.4303,4.3911,1.3762,0.3159,-0.1944,0.1145,
9.511302,-0.0337,1.4343,-0.0286,-0.4303,4.3911,1.3762,0.3201,-0.4692,0.2088,
9.532440,0.0288,0.7740,0.0279,-0.4303,4.3911,1.3762,0.3201,-0.4692,0.2088,
9.536157,0.0288,0.7740,0.0279,0.1464,-2.0603,2.0402,0.3201,-0.4692,0.2088,
9.537927,0.0288,0.7740,0.0279,0.1464,-2.0603,2.0402,0.2823,-0.5230,0.1960,
9.554176,0.0288,0.7740,0.0279,0.1464,-2.0603,2.0402,0.1992,-0.5806,0.0559,
9.572088,0.1705,0.8771,-0.0472,0.1464,-2.0603,2.0402,0.1992,-0.5806,0.0559,
9.574331,0.1705,0.8771,-0.0472,1.5085,-1.0396,1.3588,0.1992,-0.5806,0.0559,
9.576145,0.1705,0.8771,-0.0472,1.5085,-1.0396,1.3588,-0.0618,-0.7452,0.0000,
9.591725,0.1705,0.8771,-0.0472,1.5085,-1.0396,1.3588,-0.3979,-0.8048,-0.0176,
9.611844,0.3154,1.1871,-0.0371,1.5085,-1.0396,1.3588,-0.3979,-0.8048,-0.0176,
9.613449,0.3154,1.1871,-0.0371,2.9790,1.9812,1.3658,-0.3979,-0.8048,-0.0176,
9.614580,0.3154,1.1871,-0.0371,2.9790,1.9812,1.3658,-0.5816,-0.4767,-0.0085,
9.631340,0.3154,1.1871,-0.0371,2.9790,1.9812,1.3658,-0.4943,0.1965,0.1417,
9.651903,0.1319,1.0141,-0.1576,2.9790,1.9812,1.3658,-0.4943,0.1965,0.1417,
9.654014,0.1319,1.0141,-0.1576,1.1452,0.2503,-0.0309,-0.4943,0.1965,0.1417,
9.655804,0.1319,1.0141,-0.1576,1.1452,0.2503,-0.0309,-0.1768,1.0290,0.3957,
9.671705,0.1319,1.0141,-0.1576,1.1452,0.2503,-0.0309,0.3505,1.8195,0.4112,
9.692146,0.0374,0.8404,-0.0814,1.1452,0.2503,-0.0309,0.3505,1.8195,0.4112,
9.694419,0.0374,0.8404,-0.0814,-0.0410,-1.4443,0.7175,0.3505,1.8195,0.4112,
9.696260,0.0374,0.8404,-0.0814,-0.0410,-1.4443,0.7175,0.9960,1.9771,0.4160,
9.711200,0.0374,0.8404,-0.0814,-0.0410,-1.4443,0.7175,1.3135,1.2426,0.4703,
9.732047,0.1561,0.7158,-0.2103,-0.0410,-1.4443,0.7175,1.3135,1.2426,0.4703,
9.736358,0.1561,0.7158,-0.2103,0.8439,-2.5763,-0.1364,1.3135,1.2426,0.4703,
9.738204,0.1561,0.7158,-0.2103,0.8439,-2.5763,-0.1364,1.1398,0.2344,0.3957,
9.755229,0.1561,0.7158,-0.2103,0.8439,-2.5763,-0.1364,0.7798,-0.2365,0.2312,
9.772539,0.1412,0.7278,-0.2602,0.8439,-2.5763,-0.1364,0.7798,-0.2365,0.2312,
9.775086,0.1412,0.7278,-0.2602,0.5792,-2.3689,-0.2584,0.7798,-0.2365,0.2312,
9.776912,0.1412,0.7278,-0.2602,0.5792,-2.3689,-0.2584,0.4906,-0.0186,0.1103,
9.791511,0.1412,0.7278,-0.2602,0.5792,-2.3689,-0.2584,0.3313,0.3563,0.0304,
9.811421,0.1791,0.8060,-0.2621,0.5792,-2.3689,-0.2584,0.3313,0.3563,0.0304,
9.814931,0.1791,0.8060,-0.2621,0.9073,-1.5615,-0.1276,0.3313,0.3563,0.0304,
9.817012,0.1791,0.8060,-0.2621,0.9073,-1.5615,-0.1276,0.2498,0.4964,-0.0511,
9.831275,0.1791,0.8060,-0.2621,0.9073,-1.5615,-0.1276,0.1135,0.3968,-0.1395,
9.851780,0.1627,0.7395,-0.3877,0.9073,-1.5615,-0.1276,0.1135,0.3968,-0.1395,
9.854236,0.1627,0.7395,-0.3877,0.7388,-2.1981,-1.3049,0.1135,0.3968,-0.1395,
9.856099,0.1627,0.7395,-0.3877,0.7388,-2.1981,-1.3049,-0.1939,0.1342,-0.2045,
9.872198,0.1627,0.7395,-0.3877,0.7388,-2.1981,-1.3049,-0.5784,-0.0565,-0.1955,
9.891657,0.1419,0.7916,-0.4288,0.7388,-2.1981,-1.3049,-0.5784,-0.0565,-0.1955,
9.893884,0.1419,0.7916,-0.4288,0.6074,-1.7322,-1.8550,-0.5784,-0.0565,-0.1955,
9.895849,0.1419,0.7916,-0.4288,0.6074,-1.7322,-1.8550,-0.8970,-0.1758,-0.1726,
9.911684,0.1419,0.7916,-0.4288,0.6074,-1.7322,-1.8550,-1.1191,-0.2807,-0.1518,
9.931944,0.0562,0.9303,-0.3987,0.6074,-1.7322,-1.8550,-1.1191,-0.2807,-0.1518,
9.935978,0.0562,0.9303,-0.3987,-0.1574,-0.4586,-1.9137,-1.1191,-0.2807,-0.1518,
9.938086,0.0562,0.9303,-0.3987,-0.1574,-0.4586,-1.9137,-1.0530,-0.1214,-0.1395,
9.954807,0.0562,0.9303,-0.3987,-0.1574,-0.4586,-1.9137,-0.5800,0.1081,-0.1417,
9.971163,0.0459,1.2335,-0.1368,-0.1574,-0.4586,-1.9137,-0.5800,0.1081,-0.1417,
9.973315,0.0459,1.2335,-0.1368,-0.2054,2.4519,0.3566,-0.5800,0.1081,-0.1417,
9.974554,0.0459,1.2335,-0.1368,-0.2054,2.4519,0.3566,-0.1188,-0.2344,-0.1044,
9.991275,0.0459,1.2335,-0.1368,-0.2054,2.4519,0.3566,0.1273,-0.3973,-0.0293,
10.011015,0.0322,1.2267,-0.2206,-0.2054,2.4519,0.3566,0.1273,-0.3973,-0.0293,
10.013348,0.0322,1.2267,-0.2206,-0.2924,2.3835,-0.4551,0.1273,-0.3973,-0.0293,
10.015048,0.0322,1.2267,-0.2206,-0.2924,2.3835,-0.4551,0.6892,0.6471,-0.2461,
10.031240,0.0322,1.2267,-0.2206,-0.2924,2.3835,-0.4551,1.3609,0.5710,-0.5049,
10.050955,-0.0828,1.4854,-0.4788,-0.2924,2.3835,-0.4551,1.3609,0.5710,-0.5049,
10.053170,-0.0828,1.4854,-0.4788,-1.3213,4.9881,-2.6066,1.3609,0.5710,-0.5049,
10.055020,-0.0828,1.4854,-0.4788,-1.3213,4.9881,-2.6066,1.3843,-0.5704,-0.3819,
10.071350,-0.0828,1.4854,-0.4788,-1.3213,4.9881,-2.6066,0.7441,-1.6181,0.1129,
10.091944,0.2125,1.0671,-0.3396,-1.3213,4.9881,-2.6066,0.7441,-1.6181,0.1129,
10.094403,0.2125,1.0671,-0.3396,1.7286,0.9841,-0.8193,0.7441,-1.6181,0.1129,
10.096076,0.2125,1.0671,-0.3396,1.7286,0.9841,-0.8193,-0.2274,-1.6943,0.5390,
10.110955,0.2125,1.0671,-0.3396,1.7286,0.9841,-0.8193,-0.9092,-0.8719,0.8219,
10.131855,0.3613,0.7236,0.0308,1.7286,0.9841,-0.8193,-0.9092,-0.8719,0.8219,
10.135502,0.3613,0.7236,0.0308,3.0081,-2.4274,2.5982,-0.9092,-0.8719,0.8219,
10.137444,0.3613,0.7236,0.0308,3.0081,-2.4274,2.5982,-1.0301,-0.1891,1.0930,
10.152110,0.3613,0.7236,0.0308,3.0081,-2.4274,2.5982,-0.3739,0.0186,1.0887,
10.172144,0.6616,0.9342,-0.0071,3.0081,-2.4274,2.5982,-0.3739,0.0186,1.0887,
10.174517,0.6616,0.9342,-0.0071,5.4956,-0.3908,1.9464,-0.3739,0.0186,1.0887,
10.176204,0.6616,0.9342,-0.0071,5.4956,-0.3908,1.9464,0.4842,-0.2013,0.3766,
10.190707,0.6616,0.9342,-0.0071,5.4956,-0.3908,1.9464,-0.0921,-0.7260,-0.5603,
10.211315,0.2685,1.2218,-0.1783,5.4956,-0.3908,1.9464,-0.0921,-0.7260,-0.5603,
10.213604,0.2685,1.2218,-0.1783,1.7170,2.4399,0.3612,-0.0921,-0.7260,-0.5603,
10.215343,0.2685,1.2218,-0.1783,1.7170,2.4399,0.3612,-0.7899,-0.9721,-1.2416,
10.231463,0.2685,1.2218,-0.1783,1.7170,2.4399,0.3612,-1.0818,-0.8352,-0.9721,
10.251547,-0.1835,1.0312,-0.0027,1.7170,2.4399,0.3612,-1.0818,-0.8352,-0.9721,
10.253625,-0.1835,1.0312,-0.0027,-2.2272,0.4680,1.7335,-1.0818,-0.8352,-0.9721,
10.255550,-0.1835,1.0312,-0.0027,-2.2272,0.4680,1.7335,-1.2400,-0.5209,-0.3734,
10.270902,-0.1835,1.0312,-0.0027,-2.2272,0.4680,1.7335,-1.1175,-0.4309,-0.1720,
10.291367,0.1742,0.7879,0.2548,-2.2272,0.4680,1.7335,-1.1175,-0.4309,-0.1720,
10.294299,0.1742,0.7879,0.2548,1.3876,-1.9976,3.7669,-1.1175,-0.4309,-0.1720,
10.296107,0.1742,0.7879,0.2548,1.3876,-1.9976,3.7669,-0.8474,-0.8527,-0.3318,
10.310640,0.1742,0.7879,0.2548,1.3876,-1.9976,3.7669,-0.5965,-1.2836,-0.5502,
10.331573,0.0068,0.7896,-0.0081,1.3876,-1.9976,3.7669,-0.5965,-1.2836,-0.5502,
10.335434,0.0068,0.7896,-0.0081,-0.0336,-2.0172,0.9188,-0.5965,-1.2836,-0.5502,
10.337191,0.0068,0.7896,-0.0081,-0.0336,-2.0172,0.9188,-0.4288,-0.7830,-0.5470,
10.353845,0.0068,0.7896,-0.0081,-0.0336,-2.0172,0.9188,-0.4623,0.1124,-0.4304,
10.372070,-0.1913,0.7605,-0.2494,-0.0336,-2.0172,0.9188,-0.4623,0.1124,-0.4304,
10.375659,-0.1913,0.7605,-0.2494,-1.7717,-2.3182,-1.6196,-0.4623,0.1124,-0.4304,
10.378001,-0.1913,0.7605,-0.2494,-1.7717,-2.3182,-1.6196,-0.4634,0.9215,-0.2093,
10.390949,-0.1913,0.7605,-0.2494,-1.7717,-2.3182,-1.6196,-0.3260,1.1484,0.0043,
10.411456,-0.2426,0.9147,-0.3530,-1.7717,-2.3182,-1.6196,-0.3260,1.1484,0.0043,
10.413947,-0.2426,0.9147,-0.3530,-2.2649,-0.8188,-2.7840,-0.3260,1.1484,0.0043,
10.415945,-0.2426,0.9147,-0.3530,-2.2649,-0.8188,-2.7840,-0.1369,0.5124,0.0735,
10.430582,-0.2426,0.9147,-0.3530,-2.2649,-0.8188,-2.7840,-0.0325,-0.2738,-0.0011,
10.450753,-0.1788,0.9381,-0.1099,-2.2649,-0.8188,-2.7840,-0.0325,-0.2738,-0.0011,
10.453038,-0.1788,0.9381,-0.1099,-1.6445,-0.5906,-0.4248,-0.0325,-0.2738,-0.0011,
10.455100,-0.1788,0.9381,-0.1099,-1.6445,-0.5906,-0.4248,0.0559,-0.2727,-0.0373,
10.471313,-0.1788,0.9381,-0.1099,-1.6445,-0.5906,-0.4248,0.1768,0.1795,-0.0154,
10.490868,-0.1148,0.8536,-0.1801,-1.6445,-0.5906,-0.4248,0.1768,0.1795,-0.0154,
10.493305,-0.1148,0.8536,-0.1801,-1.0040,-1.4156,-1.0651,0.1768,0.1795,-0.0154,
10.495339,-0.1148,0.8536,-0.1801,-1.0040,-1.4156,-1.0651,0.2120,0.4756,0.0352,
10.510793,-0.1148,0.8536,-0.1801,-1.0040,-1.4156,-1.0651,0.1763,0.4330,0.0943,
10.531262,0.0257,0.9496,-0.2367,-1.0040,-1.4156,-1.0651,0.1763,0.4330,0.0943,
10.533669,0.0257,0.9496,-0.2367,0.3417,-0.4678,-1.5260,0.1763,0.4330,0.0943,
10.535519,0.0257,0.9496,-0.2367,0.3417,-0.4678,-1.5260,0.1395,0.2141,0.1188,
10.551643,0.0257,0.9496,-0.2367,0.3417,-0.4678,-1.5260,0.0889,-0.0767,0.0623,
10.570486,0.0740,1.1426,-0.0853,0.3417,-0.4678,-1.5260,0.0889,-0.0767,0.0623,
10.573618,0.0740,1.1426,-0.0853,0.7781,1.4288,0.0227,0.0889,-0.0767,0.0623,
10.575544,0.0740,1.1426,-0.0853,0.7781,1.4288,0.0227,-0.0394,-0.3089,0.0112,
10.590625,0.0740,1.1426,-0.0853,0.7781,1.4288,0.0227,-0.2242,-0.2818,0.0181,
10.610763,0.0242,1.2132,-0.1747,0.7781,1.4288,0.0227,-0.2242,-0.2818,0.0181,
10.612806,0.0242,1.2132,-0.1747,0.2939,2.1163,-0.9056,-0.2242,-0.2818,0.0181,
10.614627,0.0242,1.2132,-0.1747,0.2939,2.1163,-0.9056,-0.2541,0.2019,0.1305,
10.630393,0.0242,1.2132,-0.1747,0.2939,2.1163,-0.9056,-0.0437,0.4922,0.3084,
10.650500,0.0550,1.3796,-0.1764,0.2939,2.1163,-0.9056,-0.0437,0.4922,0.3084,
10.652639,0.0550,1.3796,-0.1764,0.4994,3.7421,-0.9804,-0.0437,0.4922,0.3084,
10.654329,0.0550,1.3796,-0.1764,0.4994,3.7421,-0.9804,0.2482,0.1236,0.3462,
10.670585,0.0550,1.3796,-0.1764,0.4994,3.7421,-0.9804,0.2423,-0.4938,0.2578,
10.689965,-0.0193,1.1719,-0.0437,0.4994,3.7421,-0.9804,0.2423,-0.4938,0.2578,
10.691923,-0.0193,1.1719,-0.0437,-0.3403,1.7160,0.4165,0.2423,-0.4938,0.2578,
10.693189,-0.0193,1.1719,-0.0437,-0.3403,1.7160,0.4165,0.0133,-0.8916,0.2360,
10.709972,-0.0193,1.1719,-0.0437,-0.3403,1.7160,0.4165,-0.0575,-1.2123,0.3089,
10.730787,0.0799,0.8226,0.0432,-0.3403,1.7160,0.4165,-0.0575,-1.2123,0.3089,
10.733588,0.0799,0.8226,0.0432,0.5575,-1.7072,1.2581,-0.0575,-1.2123,0.3089,
10.735664,0.0799,0.8226,0.0432,0.5575,-1.7072,1.2581,-0.0522,-1.4360,0.2386,
10.753291,0.0799,0.8226,0.0432,0.5575,-1.7072,1.2581,-0.1369,-1.4951,0.1193,
10.770489,0.1422,0.9616,0.0371,0.5575,-1.7072,1.2581,-0.1369,-1.4951,0.1193,
10.773266,0.1422,0.9616,0.0371,1.1258,-0.3479,1.1494,-0.1369,-1.4951,0.1193,
10.775237,0.1422,0.9616,0.0371,1.1258,-0.3479,1.1494,-0.2945,-1.3002,0.0666,
10.790356,0.1422,0.9616,0.0371,1.1258,-0.3479,1.1494,-0.4677,-0.9369,0.0410,
10.810463,0.3318,1.3630,0.1327,1.1258,-0.3479,1.1494,-0.4677,-0.9369,0.0410,
10.812710,0.3318,1.3630,0.1327,2.9953,3.5754,1.9484,-0.4677,-0.9369,0.0410,
10.814335,0.3318,1.3630,0.1327,2.9953,3.5754,1.9484,-0.3260,-0.7180,0.0208,
10.830712,0.3318,1.3630,0.1327,2.9953,3.5754,1.9484,0.3542,-0.3270,0.1816,
10.850584,0.2099,1.0554,-0.0081,2.9953,3.5754,1.9484,0.3542,-0.3270,0.1816,
10.852699,0.2099,1.0554,-0.0081,1.7740,0.5626,0.5803,0.3542,-0.3270,0.1816,
10.854384,0.2099,1.0554,-0.0081,1.7740,0.5626,0.5803,1.3326,0.5694,0.3505,
10.870593,0.2099,1.0554,-0.0081,1.7740,0.5626,0.5803,2.1556,1.2384,0.4160,
10.890712,0.1725,0.7446,-0.2274,1.7740,0.5626,0.5803,2.1556,1.2384,0.4160,
10.892791,0.1725,0.7446,-0.2274,1.1783,-2.4077,-0.9191,2.1556,1.2384,0.4160,
10.894882,0.1725,0.7446,-0.2274,1.1783,-2.4077,-0.9191,2.0208,0.7063,0.5369,
10.910067,0.1725,0.7446,-0.2274,1.1783,-2.4077,-0.9191,1.3614,-0.0937,0.5752,
10.930549,0.2343,0.9122,-0.2311,1.1783,-2.4077,-0.9191,1.3614,-0.0937,0.5752,
10.932941,0.2343,0.9122,-0.2311,1.5139,-0.6406,-0.3229,1.3614,-0.0937,0.5752,
10.934828,0.2343,0.9122,-0.2311,1.5139,-0.6406,-0.3229,0.7308,-0.5747,0.4405,
10.950813,0.2343,0.9122,-0.2311,1.5139,-0.6406,-0.3229,0.3819,-0.7393,0.2013,
10.970314,0.2265,0.7549,-0.1500,1.5139,-0.6406,-0.3229,0.3819,-0.7393,0.2013,
10.972777,0.2265,0.7549,-0.1500,1.3695,-2.1262,0.7060,0.3819,-0.7393,0.2013,
10.974675,0.2265,0.7549,-0.1500,1.3695,-2.1262,0.7060,0.1987,-0.7910,0.0623,
10.989889,0.2265,0.7549,-0.1500,1.3695,-2.1262,0.7060,0.1614,-0.6892,0.0511,
11.009907,0.1659,0.5060,-0.2152,1.3695,-2.1262,0.7060,0.1614,-0.6892,0.0511,
11.012226,0.1659,0.5060,-0.2152,0.8199,-4.5481,0.1597,0.1614,-0.6892,0.0511,
11.013982,0.1659,0.5060,-0.2152,0.8199,-4.5481,0.1597,0.2136,-0.5262,0.0181,
11.029875,0.1659,0.5060,-0.2152,0.8199,-4.5481,0.1597,0.1177,-0.3787,0.0314,
11.050323,0.0652,0.6745,-0.5292,0.8199,-4.5481,0.1597,0.1177,-0.3787,0.0314,
11.052480,0.0652,0.6745,-0.5292,-0.1341,-2.8800,-2.8398,0.1177,-0.3787,0.0314,
11.054593,0.0652,0.6745,-0.5292,-0.1341,-2.8800,-2.8398,-0.3137,-0.1774,0.0538,
11.070009,0.0652,0.6745,-0.5292,-0.1341,-2.8800,-2.8398,-0.8804,0.0048,0.0208,
11.090272,0.0274,0.6953,-0.5775,-0.1341,-2.8800,-2.8398,-0.8804,0.0048,0.0208,
11.093470,0.0274,0.6953,-0.5775,-0.5114,-2.7287,-3.5382,-0.8804,0.0048,0.0208,
11.095418,0.0274,0.6953,-0.5775,-0.5114,-2.7287,-3.5382,-1.1627,0.1124,-0.1236,
11.109445,0.0274,0.6953,-0.5775,-0.5114,-2.7287,-3.5382,-1.0535,0.0282,-0.2551,
11.129700,0.0474,0.9789,-0.3249,-0.5114,-2.7287,-3.5382,-1.0535,0.0282,-0.2551,
11.132384,0.0474,0.9789,-0.3249,-0.2482,-0.0381,-1.4833,-1.0535,0.0282,-0.2551,
11.134369,0.0474,0.9789,-0.3249,-0.2482,-0.0381,-1.4833,-0.7398,-0.7670,-0.3105,
11.151115,0.0794,1.2394,-0.1842,-0.2482,-0.0381,-1.4833,-0.7398,-0.7670,-0.3105,
11.154602,0.0794,1.2394,-0.1842,0.1504,2.4858,-0.2367,-0.7398,-0.7670,-0.3105,
11.156900,0.0794,1.2394,-0.1842,0.1504,2.4858,-0.2367,-0.4964,-1.7268,-0.2999,
11.169293,0.1102,1.3430,-0.1180,0.1504,2.4858,-0.2367,-0.4964,-1.7268,-0.2999,
11.171191,0.1102,1.3430,-0.1180,0.5629,3.4823,0.3360,-0.4964,-1.7268,-0.2999,
11.172523,0.1102,1.3430,-0.1180,0.5629,3.4823,0.3360,-0.3473,-1.4205,-0.1965,
11.190586,0.0171,1.3776,-0.0960,0.5629,3.4823,0.3360,-0.3473,-1.4205,-0.1965,
11.192500,0.0171,1.3776,-0.0960,-0.2698,3.8102,0.4979,-0.3473,-1.4205,-0.1965,
11.194363,0.0171,1.3776,-0.0960,-0.2698,3.8102,0.4979,0.5864,0.3340,-0.2908,
11.209588,-0.1014,1.3371,-0.3144,-0.2698,3.8102,0.4979,0.5864,0.3340,-0.2908,
11.211531,-0.1014,1.3371,-0.3144,-1.3847,3.4279,-1.5318,0.5864,0.3340,-0.2908,
11.213329,-0.1014,1.3371,-0.3144,-1.3847,3.4279,-1.5318,1.4573,1.0402,-0.5033,
11.229583,-0.0359,1.4575,-0.6469,-1.3847,3.4279,-1.5318,1.4573,1.0402,-0.5033,
11.231962,-0.0359,1.4575,-0.6469,-0.6810,4.6537,-4.5166,1.4573,1.0402,-0.5033,
11.234399,-0.0359,1.4575,-0.6469,-0.6810,4.6537,-4.5166,1.5510,0.0676,-0.3537,
11.249716,0.1930,1.4016,-0.6012,-0.6810,4.6537,-4.5166,1.5510,0.0676,-0.3537,
11.251207,0.1930,1.4016,-0.6012,1.6275,4.1644,-3.7721,1.5510,0.0676,-0.3537,
11.252160,0.1930,1.4016,-0.6012,1.6275,4.1644,-3.7721,0.3760,-1.4536,0.2184,
11.269179,0.3125,1.1341,-0.3193,1.6275,4.1644,-3.7721,0.3760,-1.4536,0.2184,
11.271217,0.3125,1.1341,-0.3193,2.8193,1.5601,-0.9300,0.3760,-1.4536,0.2184,
11.272943,0.3125,1.1341,-0.3193,2.8193,1.5601,-0.9300,-0.7025,-2.2019,0.7718,
11.290223,0.3833,1.0327,-0.0740,2.8193,1.5601,-0.9300,-0.7025,-2.2019,0.7718,
11.292507,0.3833,1.0327,-0.0740,3.4602,0.5407,1.3515,-0.7025,-2.2019,0.7718,
11.294214,0.3833,1.0327,-0.0740,3.4602,0.5407,1.3515,-1.0525,-1.6245,1.0951,
11.310228,0.4940,0.8333,0.0704,3.4602,0.5407,1.3515,-1.0525,-1.6245,1.0951,
11.312297,0.4940,0.8333,0.0704,4.3991,-1.4466,2.5766,-1.0525,-1.6245,1.0951,
11.314058,0.4940,0.8333,0.0704,4.3991,-1.4466,2.5766,-0.5534,-0.5060,1.1766,
11.329809,0.5270,0.7214,0.0772,4.3991,-1.4466,2.5766,-0.5534,-0.5060,1.1766,
11.331924,0.5270,0.7214,0.0772,4.5150,-2.5506,2.5429,-0.5534,-0.5060,1.1766,
11.333668,0.5270,0.7214,0.0772,4.5150,-2.5506,2.5429,-0.1742,-0.6967,0.7292,
11.349494,0.4473,0.8258,-0.0467,4.5150,-2.5506,2.5429,-0.1742,-0.6967,0.7292,
11.351802,0.4473,0.8258,-0.0467,3.6190,-1.5242,1.3054,-0.1742,-0.6967,0.7292,
11.353520,0.4473,0.8258,-0.0467,3.6190,-1.5242,1.3054,-0.2956,-1.4248,0.0431,
11.369986,0.4307,1.0197,-0.0967,3.6190,-1.5242,1.3054,-0.2956,-1.4248,0.0431,
11.372429,0.4307,1.0197,-0.0967,3.4975,0.3672,0.7790,-0.2956,-1.4248,0.0431,
11.374069,0.4307,1.0197,-0.0967,3.4975,0.3672,0.7790,-0.8735,-1.6698,-0.5044,
11.389557,0.1053,1.2279,0.0222,3.4975,0.3672,0.7790,-0.8735,-1.6698,-0.5044,
11.391700,0.1053,1.2279,0.0222,0.4609,2.3716,1.7982,-0.8735,-1.6698,-0.5044,
11.393361,0.1053,1.2279,0.0222,0.4609,2.3716,1.7982,-1.1547,-1.3934,-1.0493,
11.409779,-0.2209,1.1311,0.1234,0.4609,2.3716,1.7982,-1.1547,-1.3934,-1.0493,
11.412033,-0.2209,1.1311,0.1234,-2.4916,1.3801,2.5787,-1.1547,-1.3934,-1.0493,
11.413769,-0.2209,1.1311,0.1234,-2.4916,1.3801,2.5787,-1.1057,-0.8618,-0.6860,
11.429782,-0.0777,0.9320,0.3225,-2.4916,1.3801,2.5787,-1.1057,-0.8618,-0.6860,
11.431958,-0.0777,0.9320,0.3225,-0.9335,-0.6025,4.3194,-1.1057,-0.8618,-0.6860,
11.433715,-0.0777,0.9320,0.3225,-0.9335,-0.6025,4.3194,-0.8884,-0.4810,-0.0016,
11.449368,0.2248,0.8333,0.3105,-0.9335,-0.6025,4.3194,-0.8884,-0.4810,-0.0016,
11.451811,0.2248,0.8333,0.3105,2.0412,-1.5888,4.0309,-0.8884,-0.4810,-0.0016,
11.453596,0.2248,0.8333,0.3105,2.0412,-1.5888,4.0309,-0.4224,-0.9848,0.0362,
11.470026,0.1229,0.8539,0.0877,2.0412,-1.5888,4.0309,-0.4224,-0.9848,0.0362,
11.472268,0.1229,0.8539,0.0877,1.0544,-1.3956,1.7681,-0.4224,-0.9848,0.0362,
11.474042,0.1229,0.8539,0.0877,1.0544,-1.3956,1.7681,-0.1513,-1.2661,-0.2924,
11.489561,0.0459,0.8458,-0.1116,1.0544,-1.3956,1.7681,-0.1513,-1.2661,-0.2924,
11.491817,0.0459,0.8458,-0.1116,0.3798,-1.4779,-0.2123,-0.1513,-1.2661,-0.2924,
11.493724,0.0459,0.8458,-0.1116,0.3798,-1.4779,-0.2123,-0.1662,-0.7175,-0.3712,
11.509238,-0.0237,0.8385,-0.1937,0.3798,-1.4779,-0.2123,-0.1662,-0.7175,-0.3712,
11.511607,-0.0237,0.8385,-0.1937,-0.2176,-1.5528,-1.0488,-0.1662,-0.7175,-0.3712,
11.513613,-0.0237,0.8385,-0.1937,-0.2176,-1.5528,-1.0488,-0.3904,-0.0474,-0.3308,
11.529536,-0.0755,0.8258,-0.1940,-0.2176,-1.5528,-1.0488,-0.3904,-0.0474,-0.3308,
11.531833,-0.0755,0.8258,-0.1940,-0.6599,-1.6834,-1.1274,-0.3904,-0.0474,-0.3308,
11.533720,-0.0755,0.8258,-0.1940,-0.6599,-1.6834,-1.1274,-0.5987,0.3814,-0.2045,
11.549749,-0.1138,0.8375,-0.1859,-0.6599,-1.6834,-1.1274,-0.5987,0.3814,-0.2045,
11.552287,-0.1138,0.8375,-0.1859,-1.0013,-1.5766,-1.1647,-0.5987,0.3814,-0.2045,
11.554258,-0.1138,0.8375,-0.1859,-1.0013,-1.5766,-1.1647,-0.5758,0.4432,-0.0282,
11.569562,-0.1258,0.8817,-0.1942,-1.0013,-1.5766,-1.1647,-0.5758,0.4432,-0.0282,
11.572591,-0.1258,0.8817,-0.1942,-1.1184,-1.1501,-1.3575,-0.5758,0.4432,-0.0282,
11.575779,-0.1258,0.8817,-0.1942,-1.1184,-1.1501,-1.3575,-0.3601,0.1976,0.1688,
11.588891,-0.1207,0.9083,-0.2123,-1.1184,-1.1501,-1.3575,-0.3601,0.1976,0.1688,
11.590198,-0.1207,0.9083,-0.2123,-1.1031,-0.8931,-1.6047,-0.3601,0.1976,0.1688,
11.590994,-0.1207,0.9083,-0.2123,-1.1031,-0.8931,-1.6047,-0.1044,-0.2759,0.2344,
11.609150,-0.1275,0.9416,-0.2165,-1.1031,-0.8931,-1.6047,-0.1044,-0.2759,0.2344,
11.611390,-0.1275,0.9416,-0.2165,-1.2110,-0.5686,-1.6622,-0.1044,-0.2759,0.2344,
11.612948,-0.1275,0.9416,-0.2165,-1.2110,-0.5686,-1.6622,0.0543,-0.6541,0.1917,
11.629658,-0.1695,0.9401,-0.2199,-1.2110,-0.5686,-1.6622,0.0543,-0.6541,0.1917,
11.632211,-0.1695,0.9401,-0.2199,-1.6473,-0.5821,-1.6762,0.0543,-0.6541,0.1917,
11.634257,-0.1695,0.9401,-0.2199,-1.6473,-0.5821,-1.6762,0.0703,-0.6195,0.1465,
11.648846,-0.1644,0.8815,-0.2001,-1.6473,-0.5821,-1.6762,0.0703,-0.6195,0.1465,
11.650563,-0.1644,0.8815,-0.2001,-1.6125,-1.1556,-1.4604,0.0703,-0.6195,0.1465,
11.651843,-0.1644,0.8815,-0.2001,-1.6125,-1.1556,-1.4604,0.0186,-0.3148,0.1726,
11.669517,-0.1160,0.8294,-0.1884,-1.6125,-1.1556,-1.4604,0.0186,-0.3148,0.1726,
11.672135,-0.1160,0.8294,-0.1884,-1.1669,-1.6652,-1.3391,0.0186,-0.3148,0.1726,
11.674260,-0.1160,0.8294,-0.1884,-1.1669,-1.6652,-1.3391,0.0256,-0.1358,0.1981,
11.689391,-0.0589,0.8187,-0.2174,-1.1669,-1.6652,-1.3391,0.0256,-0.1358,0.1981,
11.692023,-0.0589,0.8187,-0.2174,-0.6440,-1.7701,-1.6189,0.0256,-0.1358,0.1981,
11.694001,-0.0589,0.8187,-0.2174,-0.6440,-1.7701,-1.6189,0.0836,-0.1965,0.2088,
11.709531,-0.0066,0.8863,-0.2428,-0.6440,-1.7701,-1.6189,0.0836,-0.1965,0.2088,
11.712114,-0.0066,0.8863,-0.2428,-0.1704,-1.1057,-1.8512,0.0836,-0.1965,0.2088,
11.713966,-0.0066,0.8863,-0.2428,-0.1704,-1.1057,-1.8512,0.1108,-0.4373,0.2285,
11.728858,0.0418,0.9924,-0.2089,-0.1704,-1.1057,-1.8512,0.1108,-0.4373,0.2285,
11.731511,0.0418,0.9924,-0.2089,0.2637,-0.0648,-1.4956,0.1108,-0.4373,0.2285,
11.733412,0.0418,0.9924,-0.2089,0.2637,-0.0648,-1.4956,0.1411,-0.7734,0.2317,
11.751961,0.0371,1.1138,-0.1461,0.2637,-0.0648,-1.4956,0.1411,-0.7734,0.2317,
11.754027,0.0371,1.1138,-0.1461,0.1816,1.1275,-0.8502,0.1411,-0.7734,0.2317,
11.755633,0.0371,1.1138,-0.1461,0.1816,1.1275,-0.8502,0.1593,-0.8804,0.1992,
11.768871,0.0462,1.2144,-0.1214,0.1816,1.1275,-0.8502,0.1593,-0.8804,0.1992,
11.771008,0.0462,1.2144,-0.1214,0.2418,2.1166,-0.5738,0.1593,-0.8804,0.1992,
11.772715,0.0462,1.2144,-0.1214,0.2418,2.1166,-0.5738,0.0884,-0.8756,0.1987,
11.788893,0.0506,1.2552,-0.1498,0.2418,2.1166,-0.5738,0.0884,-0.8756,0.1987,
11.791212,0.0506,1.2552,-0.1498,0.2570,2.5184,-0.8303,0.0884,-0.8756,0.1987,
11.792962,0.0506,1.2552,-0.1498,0.2570,2.5184,-0.8303,-0.0378,-0.8133,0.2173,
11.808973,-0.0249,1.2147,-0.2240,0.2570,2.5184,-0.8303,-0.0378,-0.8133,0.2173,
11.810628,-0.0249,1.2147,-0.2240,-0.5149,2.1216,-1.5614,-0.0378,-0.8133,0.2173,
11.811744,-0.0249,1.2147,-0.2240,-0.5149,2.1216,-1.5614,-0.0682,-0.5113,0.2562,
11.828930,-0.0450,1.1829,-0.3191,-0.5149,2.1216,-1.5614,-0.0682,-0.5113,0.2562,
11.830478,-0.0450,1.1829,-0.3191,-0.7549,1.8110,-2.5031,-0.0682,-0.5113,0.2562,
11.831641,-0.0450,1.1829,-0.3191,-0.7549,1.8110,-2.5031,0.1087,-0.2429,0.3329,
11.848922,0.0493,1.3657,-0.3354,-0.7549,1.8110,-2.5031,0.1087,-0.2429,0.3329,
11.851397,0.0493,1.3657,-0.3354,0.1074,3.6055,-2.6406,0.1087,-0.2429,0.3329,
11.853114,0.0493,1.3657,-0.3354,0.1074,3.6055,-2.6406,0.4069,-0.3457,0.3329,
11.868899,0.0738,1.4712,-0.1893,0.1074,3.6055,-2.6406,0.4069,-0.3457,0.3329,
11.870938,0.0738,1.4712,-0.1893,0.2866,4.6481,-1.1267,0.4069,-0.3457,0.3329,
11.872654,0.0738,1.4712,-0.1893,0.2866,4.6481,-1.1267,0.5145,-0.5582,0.2828,
11.889173,0.0838,1.1104,-0.0909,0.2866,4.6481,-1.1267,0.5145,-0.5582,0.2828,
11.891565,0.0838,1.1104,-0.0909,0.3383,1.1225,-0.0563,0.5145,-0.5582,0.2828,
11.893234,0.0838,1.1104,-0.0909,0.3383,1.1225,-0.0563,0.4570,-1.0519,0.2791,
11.908567,0.1385,0.9799,-0.0684,0.3383,1.1225,-0.0563,0.4570,-1.0519,0.2791,
11.910805,0.1385,0.9799,-0.0684,0.8388,-0.1452,0.2635,0.4570,-1.0519,0.2791,
11.912589,0.1385,0.9799,-0.0684,0.8388,-0.1452,0.2635,0.3633,-1.4701,0.2663,
11.929440,0.1578,0.9135,-0.0855,0.8388,-0.1452,0.2635,0.3633,-1.4701,0.2663,
11.930926,0.1578,0.9135,-0.0855,1.0048,-0.7865,0.1822,0.3633,-1.4701,0.2663,
11.931725,0.1578,0.9135,-0.0855,1.0048,-0.7865,0.1822,0.1188,-1.8386,0.1939,
11.949371,0.1825,0.8805,-0.0784,1.0048,-0.7865,0.1822,0.1188,-1.8386,0.1939,
11.951670,0.1825,0.8805,-0.0784,1.2472,-1.1051,0.2946,0.1188,-1.8386,0.1939,
11.953360,0.1825,0.8805,-0.0784,1.2472,-1.1051,0.2946,-0.2679,-2.1359,0.0916,
11.969070,0.2673,0.9760,-0.0279,1.2472,-1.1051,0.2946,-0.2679,-2.1359,0.0916,
11.971306,0.2673,0.9760,-0.0279,2.1049,-0.1736,0.7606,-0.2679,-2.1359,0.0916,
11.972876,0.2673,0.9760,-0.0279,2.1049,-0.1736,0.7606,-0.7132,-2.1513,-0.0229,
11.989432,0.3733,1.1250,0.1226,2.1049,-0.1736,0.7606,-0.7132,-2.1513,-0.0229,
11.991875,0.3733,1.1250,0.1226,3.1903,1.2727,2.1178,-0.7132,-2.1513,-0.0229,
11.993487,0.3733,1.1250,0.1226,3.1903,1.2727,2.1178,-0.9225,-1.7790,-0.1449,
12.008624,0.4014,1.1969,0.2362,3.1903,1.2727,2.1178,-0.9225,-1.7790,-0.1449,
12.010774,0.4014,1.1969,0.2362,3.5235,1.9600,3.0667,-0.9225,-1.7790,-0.1449,
12.012424,0.4014,1.1969,0.2362,3.5235,1.9600,3.0667,-0.6354,-1.4445,-0.1667,
12.029216,0.3210,1.0967,0.2099,3.5235,1.9600,3.0667,-0.6354,-1.4445,-0.1667,
12.031424,0.3210,1.0967,0.2099,2.7884,0.9683,2.6953,-0.6354,-1.4445,-0.1667,
12.032974,0.3210,1.0967,0.2099,2.7884,0.9683,2.6953,-0.0618,-1.1627,-0.0011,
12.049134,0.2800,0.9286,0.0882,2.7884,0.9683,2.6953,-0.0618,-1.1627,-0.0011,
12.051452,0.2800,0.9286,0.0882,2.4012,-0.6797,1.4990,-0.0618,-1.1627,-0.0011,
12.053300,0.2800,0.9286,0.0882,2.4012,-0.6797,1.4990,0.3894,-0.8197,0.2056,
12.068416,0.2370,0.7764,-0.0330,2.4012,-0.6797,1.4990,0.3894,-0.8197,0.2056,
12.070179,0.2370,0.7764,-0.0330,1.9507,-2.1646,0.3933,0.3894,-0.8197,0.2056,
12.071585,0.2370,0.7764,-0.0330,1.9507,-2.1646,0.3933,0.6434,-0.2972,0.2775,
12.087938,0.1967,0.6806,-0.1031,1.9507,-2.1646,0.3933,0.6434,-0.2972,0.2775,
12.088834,0.1967,0.6806,-0.1031,1.5061,-3.0909,-0.1659,0.6434,-0.2972,0.2775,
12.089422,0.1967,0.6806,-0.1031,1.5061,-3.0909,-0.1659,0.7995,0.3979,0.2727,
12.107678,0.1236,0.6450,-0.1500,1.5061,-3.0909,-0.1659,0.7995,0.3979,0.2727,
12.108443,0.1236,0.6450,-0.1500,0.7298,-3.4233,-0.4733,0.7995,0.3979,0.2727,
12.108905,0.1236,0.6450,-0.1500,0.7298,-3.4233,-0.4733,0.8895,1.0258,0.2445,
12.127784,0.1156,0.6328,-0.1913,0.7298,-3.4233,-0.4733,0.8895,1.0258,0.2445,
12.128598,0.1156,0.6328,-0.1913,0.5812,-3.5213,-0.7157,0.8895,1.0258,0.2445,
12.129078,0.1156,0.6328,-0.1913,0.5812,-3.5213,-0.7157,0.8740,1.3438,0.2498,
12.147838,0.1178,0.6758,-0.2294,0.5812,-3.5213,-0.7157,0.8740,1.3438,0.2498,
12.148856,0.1178,0.6758,-0.2294,0.5211,-3.0754,-0.9355,0.8740,1.3438,0.2498,
12.149499,0.1178,0.6758,-0.2294,0.5211,-3.0754,-0.9355,0.7606,1.3156,0.2019,
12.168276,0.1134,0.7578,-0.2597,0.5211,-3.0754,-0.9355,0.7606,1.3156,0.2019,
12.171025,0.1134,0.7578,-0.2597,0.4028,-2.2473,-1.1029,0.7606,1.3156,0.2019,
12.172461,0.1134,0.7578,-0.2597,0.4028,-2.2473,-1.1029,0.6583,1.0749,0.1145,
12.188932,0.0911,0.8399,-0.2917,0.4028,-2.2473,-1.1029,0.6583,1.0749,0.1145,
12.191348,0.0911,0.8399,-0.2917,0.1306,-1.4215,-1.3052,0.6583,1.0749,0.1145,
12.193221,0.0911,0.8399,-0.2917,0.1306,-1.4215,-1.3052,0.6083,0.6232,-0.0378,
12.208555,0.0687,0.8636,-0.3601,0.1306,-1.4215,-1.3052,0.6083,0.6232,-0.0378,
12.211051,0.0687,0.8636,-0.3601,-0.1023,-1.1703,-1.8681,0.6083,0.6232,-0.0378,
12.212913,0.0687,0.8636,-0.3601,-0.1023,-1.1703,-1.8681,0.4357,-0.1502,-0.0559,
12.228278,0.1148,0.7952,-0.4449,-0.1023,-1.1703,-1.8681,0.4357,-0.1502,-0.0559,
12.230550,0.1148,0.7952,-0.4449,0.3660,-1.8267,-2.6127,0.4357,-0.1502,-0.0559,
12.232632,0.1148,0.7952,-0.4449,0.3660,-1.8267,-2.6127,0.0959,-0.8586,-0.0650,
12.248194,0.1378,0.7388,-0.5167,0.3660,-1.8267,-2.6127,0.0959,-0.8586,-0.0650,
12.250587,0.1378,0.7388,-0.5167,0.6338,-2.3774,-3.2855,0.0959,-0.8586,-0.0650,
12.252423,0.1378,0.7388,-0.5167,0.6338,-2.3774,-3.2855,-0.4165,-1.0211,-0.1065,
12.268724,0.1564,0.7573,-0.5016,0.6338,-2.3774,-3.2855,-0.4165,-1.0211,-0.1065,
12.271194,0.1564,0.7573,-0.5016,0.8719,-2.2114,-3.2032,-0.4165,-1.0211,-0.1065,
12.273039,0.1564,0.7573,-0.5016,0.8719,-2.2114,-3.2032,-0.9934,-0.8432,-0.1188,
12.288313,0.1329,0.7930,-0.4004,0.8719,-2.2114,-3.2032,-0.9934,-0.8432,-0.1188,
12.290805,0.1329,0.7930,-0.4004,0.6922,-1.8955,-2.3926,-0.9934,-0.8432,-0.1188,
12.292879,0.1329,0.7930,-0.4004,0.6922,-1.8955,-2.3926,-1.3603,-0.5657,-0.1683,
12.308444,0.1068,0.8885,-0.2673,0.6922,-1.8955,-2.3926,-1.3603,-0.5657,-0.1683,
12.310887,0.1068,0.8885,-0.2673,0.4845,-0.9995,-1.3446,-1.3603,-0.5657,-0.1683,
12.312735,0.1068,0.8885,-0.2673,0.4845,-0.9995,-1.3446,-1.2719,-0.2029,-0.2945,
12.328408,0.0247,1.0679,-0.1854,0.4845,-0.9995,-1.3446,-1.2719,-0.2029,-0.2945,
12.330811,0.0247,1.0679,-0.1854,-0.2582,0.7255,-0.7872,-1.2719,-0.2029,-0.2945,
12.332645,0.0247,1.0679,-0.1854,-0.2582,0.7255,-0.7872,-0.6748,0.2376,-0.4623,
12.350404,-0.1327,1.2311,-0.2030,-0.2582,0.7255,-0.7872,-0.6748,0.2376,-0.4623,
12.352601,-0.1327,1.2311,-0.2030,-1.7145,2.3076,-1.0932,-0.6748,0.2376,-0.4623,
12.354582,-0.1327,1.2311,-0.2030,-1.7145,2.3076,-1.0932,0.1262,0.4597,-0.4437,
12.368834,-0.2057,1.2868,-0.2981,-1.7145,2.3076,-1.0932,0.1262,0.4597,-0.4437,
12.371284,-0.2057,1.2868,-0.2981,-2.3523,2.8524,-2.0034,0.1262,0.4597,-0.4437,
12.373174,-0.2057,1.2868,-0.2981,-2.3523,2.8524,-2.0034,0.3824,-0.1848,-0.1060,
12.387958,-0.1153,1.3163,-0.3547,-2.3523,2.8524,-2.0034,0.3824,-0.1848,-0.1060,
12.390351,-0.1153,1.3163,-0.3547,-1.4423,3.1487,-2.4831,0.3824,-0.1848,-0.1060,
12.392148,-0.1153,1.3163,-0.3547,-1.4423,3.1487,-2.4831,0.9390,0.2871,-0.1582,
12.408306,-0.1419,1.2039,-0.5243,-1.4423,3.1487,-2.4831,0.9390,0.2871,-0.1582,
12.410771,-0.1419,1.2039,-0.5243,-1.6787,2.0668,-3.9639,0.9390,0.2871,-0.1582,
12.412588,-0.1419,1.2039,-0.5243,-1.6787,2.0668,-3.9639,1.4509,0.6764,-0.5401,
12.427864,-0.0770,1.2890,-0.6196,-1.6787,2.0668,-3.9639,1.4509,0.6764,-0.5401,
12.430342,-0.0770,1.2890,-0.6196,-0.9547,2.9354,-4.6192,1.4509,0.6764,-0.5401,
12.432214,-0.0770,1.2890,-0.6196,-0.9547,2.9354,-4.6192,1.2219,-0.4879,-0.5188,
12.448505,0.1070,1.3327,-0.5240,-0.9547,2.9354,-4.6192,1.2219,-0.4879,-0.5188,
12.450929,0.1070,1.3327,-0.5240,0.9636,3.4008,-3.4456,1.2219,-0.4879,-0.5188,
12.452705,0.1070,1.3327,-0.5240,0.9636,3.4008,-3.4456,-0.0762,-2.1859,-0.0341,
12.468425,0.1930,1.2022,-0.2096,0.9636,3.4008,-3.4456,-0.0762,-2.1859,-0.0341,
12.470512,0.1930,1.2022,-0.2096,1.8865,2.1197,-0.3770,-0.0762,-2.1859,-0.0341,
12.472187,0.1930,1.2022,-0.2096,1.8865,2.1197,-0.3770,-1.1377,-3.0094,0.6557,
12.488556,0.3418,1.1338,0.0164,1.8865,2.1197,-0.3770,-1.1377,-3.0094,0.6557,
12.490936,0.3418,1.1338,0.0164,3.3121,1.4140,1.6191,-1.1377,-3.0094,0.6557,
12.492600,0.3418,1.1338,0.0164,3.3121,1.4140,1.6191,-1.2117,-2.5657,1.2613,
12.508223,0.5961,0.9555,0.1314,3.3121,1.4140,1.6191,-1.2117,-2.5657,1.2613,
12.510373,0.5961,0.9555,0.1314,5.6285,-0.3632,2.5179,-1.2117,-2.5657,1.2613,
12.512142,0.5961,0.9555,0.1314,5.6285,-0.3632,2.5179,-0.6386,-1.1963,1.4328,
12.528358,0.7016,0.9074,0.1967,5.6285,-0.3632,2.5179,-0.6386,-1.1963,1.4328,
12.530576,0.7016,0.9074,0.1967,6.4122,-0.8401,3.0411,-0.6386,-1.1963,1.4328,
12.532315,0.7016,0.9074,0.1967,6.4122,-0.8401,3.0411,-0.2940,-0.9385,0.9119,
12.548498,0.5695,0.9985,0.2348,6.4122,-0.8401,3.0411,-0.2940,-0.9385,0.9119,
12.550914,0.5695,0.9985,0.2348,4.9603,0.0564,3.3676,-0.2940,-0.9385,0.9119,
12.552590,0.5695,0.9985,0.2348,4.9603,0.0564,3.3676,-0.0937,-1.0381,-0.0117,
12.568513,0.4363,1.1221,0.2030,4.9603,0.0564,3.3676,-0.0937,-1.0381,-0.0117,
12.571174,0.4363,1.1221,0.2030,3.6798,1.2658,3.0508,-0.0937,-1.0381,-0.0117,
12.572803,0.4363,1.1221,0.2030,3.6798,1.2658,3.0508,0.0879,-0.5625,-0.7201,
12.588779,0.1446,1.1976,0.1371,3.6798,1.2658,3.0508,0.0879,-0.5625,-0.7201,
12.591063,0.1446,1.1976,0.1371,0.9731,2.0000,2.4273,0.0879,-0.5625,-0.7201,
12.592627,0.1446,1.1976,0.1371,0.9731,2.0000,2.4273,0.1124,-0.4517,-1.2293,
12.608517,-0.2138,1.0879,0.1219,0.9731,2.0000,2.4273,0.1124,-0.4517,-1.2293,
12.610914,-0.2138,1.0879,0.1219,-2.2900,0.9196,2.3036,0.1124,-0.4517,-1.2293,
12.612748,-0.2138,1.0879,0.1219,-2.2900,0.9196,2.3036,-0.1449,-0.7329,-0.7004,
12.628070,-0.0217,0.8817,0.0916,-2.2900,0.9196,2.3036,-0.1449,-0.7329,-0.7004,
12.629964,-0.0217,0.8817,0.0916,-0.2559,-1.1060,1.9803,-0.1449,-0.7329,-0.7004,
12.631903,-0.0217,0.8817,0.0916,-0.2559,-1.1060,1.9803,-0.4048,-0.7947,-0.0911,
12.648623,0.1329,0.7977,0.0340,-0.2559,-1.1060,1.9803,-0.4048,-0.7947,-0.0911,
12.651045,0.1329,0.7977,0.0340,1.2939,-1.9381,1.3367,-0.4048,-0.7947,-0.0911,
12.652830,0.1329,0.7977,0.0340,1.2939,-1.9381,1.3367,-0.6024,-0.9816,-0.1294,
12.668539,0.0655,0.7156,-0.0616,1.2939,-1.9381,1.3367,-0.6024,-0.9816,-0.1294,
12.670632,0.0655,0.7156,-0.0616,0.6769,-2.7538,0.2830,-0.6024,-0.9816,-0.1294,
12.672035,0.0655,0.7156,-0.0616,0.6769,-2.7538,0.2830,-0.7521,-0.6786,-0.2498,
12.687994,0.0044,0.6657,-0.1268,0.6769,-2.7538,0.2830,-0.7521,-0.6786,-0.2498,
12.690290,0.0044,0.6657,-0.1268,0.1381,-3.2541,-0.5041,-0.7521,-0.6786,-0.2498,
12.692302,0.0044,0.6657,-0.1268,0.1381,-3.2541,-0.5041,-0.9215,-0.1305,-0.3089,
12.707767,-0.0552,0.6555,-0.1366,0.1381,-3.2541,-0.5041,-0.9215,-0.1305,-0.3089,
12.709755,-0.0552,0.6555,-0.1366,-0.3841,-3.3658,-0.7801,-0.9215,-0.1305,-0.3089,
12.711388,-0.0552,0.6555,-0.1366,-0.3841,-3.3658,-0.7801,-1.0583,0.2940,-0.2258,
12.727598,-0.0606,0.6902,-0.0977,-0.3841,-3.3658,-0.7801,-1.0583,0.2940,-0.2258,
12.729857,-0.0606,0.6902,-0.0977,-0.3952,-3.0347,-0.6055,-1.0583,0.2940,-0.2258,
12.731925,-0.0606,0.6902,-0.0977,-0.3952,-3.0347,-0.6055,-1.0594,0.4575,-0.0581,
12.748241,-0.0310,0.7940,-0.0708,-0.3952,-3.0347,-0.6055,-1.0594,0.4575,-0.0581,
12.750829,-0.0310,0.7940,-0.0708,-0.0964,-2.0222,-0.5476,-1.0594,0.4575,-0.0581,
12.752833,-0.0310,0.7940,-0.0708,-0.0964,-2.0222,-0.5476,-0.8581,0.3537,0.0826,
12.768475,0.0215,0.9139,-0.0652,-0.0964,-2.0222,-0.5476,-0.8581,0.3537,0.0826,
12.771074,0.0215,0.9139,-0.0652,0.4017,-0.8481,-0.6592,-0.8581,0.3537,0.0826,
12.772931,0.0215,0.9139,-0.0652,0.4017,-0.8481,-0.6592,-0.5369,0.1326,0.1294,
12.787133,0.0022,0.9738,-0.0591,0.4017,-0.8481,-0.6592,-0.5369,0.1326,0.1294,
12.789192,0.0022,0.9738,-0.0591,0.1874,-0.2612,-0.7040,-0.5369,0.1326,0.1294,
12.791169,0.0022,0.9738,-0.0591,0.1874,-0.2612,-0.7040,-0.1960,-0.1603,0.0996,
12.807745,-0.0425,0.9955,-0.0987,0.1874,-0.2612,-0.7040,-0.1960,-0.1603,0.0996,
12.810261,-0.0425,0.9955,-0.0987,-0.2707,-0.0478,-1.1307,-0.1960,-0.1603,0.0996,
12.812267,-0.0425,0.9955,-0.0987,-0.2707,-0.0478,-1.1307,0.0591,-0.3691,0.1108,
12.828228,-0.0816,0.9733,-0.1493,-0.2707,-0.0478,-1.1307,0.0591,-0.3691,0.1108,
12.829685,-0.0816,0.9733,-0.1493,-0.6766,-0.2662,-1.6158,0.0591,-0.3691,0.1108,
12.830621,-0.0816,0.9733,-0.1493,-0.6766,-0.2662,-1.6158,0.1257,-0.4171,0.1688,
12.847337,-0.1165,0.9227,-0.2145,-0.6766,-0.2662,-1.6158,0.1257,-0.4171,0.1688,
12.849391,-0.1165,0.9227,-0.2145,-1.0508,-0.7626,-2.2235,0.1257,-0.4171,0.1688,
12.851127,-0.1165,0.9227,-0.2145,-1.0508,-0.7626,-2.2235,0.0554,-0.3617,0.2658,
12.868597,-0.0726,0.9049,-0.2748,-1.0508,-0.7626,-2.2235,0.0554,-0.3617,0.2658,
12.871178,-0.0726,0.9049,-0.2748,-0.6727,-0.9378,-2.8045,0.0554,-0.3617,0.2658,
12.873147,-0.0726,0.9049,-0.2748,-0.6727,-0.9378,-2.8045,-0.0788,-0.2301,0.3537,
