
time,gFx,gFy,gFz,ax,ay,az,wx,wy,wz,
0.015338,0.0088,0.4063,0.8976,0.0000,0.0000,0.0000,0.0000,0.0000,0.0000,
0.024924,0.0088,0.4063,0.8976,0.0000,0.0000,0.0000,0.0943,0.0346,-0.1065,
0.033741,0.0088,0.4063,0.8976,0.0000,0.0000,0.0000,0.0943,0.0346,-0.1065,
0.054840,0.1270,0.3787,0.8951,0.0000,0.0000,0.0000,0.0943,0.0346,-0.1065,
0.056841,0.1270,0.3787,0.8951,-0.0260,-0.0775,-0.1832,0.0943,0.0346,-0.1065,
0.058394,0.1270,0.3787,0.8951,-0.0260,-0.0775,-0.1832,0.0943,0.0346,-0.1065,
0.074443,0.1270,0.3787,0.8951,-0.0260,-0.0775,-0.1832,0.0943,0.0346,-0.1065,
0.093926,0.1476,0.3711,0.7322,-0.0260,-0.0775,-0.1832,0.0943,0.0346,-0.1065,
0.096284,0.1476,0.3711,0.7322,-0.0072,-0.3794,-1.6523,0.0943,0.0346,-0.1065,
0.097943,0.1476,0.3711,0.7322,-0.0072,-0.3794,-1.6523,1.1388,0.7585,-0.4618,
0.114957,0.1476,0.3711,0.7322,-0.0072,-0.3794,-1.6523,1.1691,1.1856,-0.6967,
0.134031,0.0349,0.4644,0.8712,-0.0072,-0.3794,-1.6523,1.1691,1.1856,-0.6967,
0.136334,0.0349,0.4644,0.8712,-0.6173,0.2601,-0.2278,1.1691,1.1856,-0.6967,
0.138090,0.0349,0.4644,0.8712,-0.6173,0.2601,-0.2278,1.3763,1.2069,-0.7862,
0.154136,0.0349,0.4644,0.8712,-0.6173,0.2601,-0.2278,1.4562,0.9566,-0.8181,
0.175072,-0.0867,0.5309,0.7718,-0.6173,0.2601,-0.2278,1.4562,0.9566,-0.8181,
0.180414,-0.0867,0.5309,0.7718,-1.0124,0.3446,-0.9540,1.4562,0.9566,-0.8181,
0.182951,-0.0867,0.5309,0.7718,-1.0124,0.3446,-0.9540,1.4349,0.8400,-0.8586,
0.194250,-0.0867,0.5309,0.7718,-1.0124,0.3446,-0.9540,1.4349,0.9374,-0.8368,
0.214559,-0.1730,0.6049,0.7644,-1.0124,0.3446,-0.9540,1.4349,0.9374,-0.8368,
0.218299,-0.1730,0.6049,0.7644,-1.0214,0.5280,-0.6667,1.4349,0.9374,-0.8368,
0.220287,-0.1730,0.6049,0.7644,-1.0214,0.5280,-0.6667,1.4136,1.0914,-0.8416,
0.234471,-0.1730,0.6049,0.7644,-1.0214,0.5280,-0.6667,1.2954,0.8123,-0.8740,
0.254234,-0.3391,0.6257,0.7679,-1.0214,0.5280,-0.6667,1.2954,0.8123,-0.8740,
0.256419,-0.3391,0.6257,0.7679,-1.4986,0.4686,-0.2707,1.2954,0.8123,-0.8740,
0.258261,-0.3391,0.6257,0.7679,-1.4986,0.4686,-0.2707,1.1782,0.5561,-0.8234,
0.273872,-0.3391,0.6257,0.7679,-1.4986,0.4686,-0.2707,1.3705,0.7915,-0.7302,
0.294417,-0.4542,0.7068,0.7459,-1.4986,0.4686,-0.2707,1.3705,0.7915,-0.7302,
0.296580,-0.4542,0.7068,0.7459,-1.6129,0.9792,0.0468,1.3705,0.7915,-0.7302,
0.298170,-0.4542,0.7068,0.7459,-1.6129,0.9792,0.0468,1.6043,0.9412,-0.5816,
0.314360,-0.4542,0.7068,0.7459,-1.6129,0.9792,0.0468,1.5739,0.7968,-0.4650,
0.333985,-0.4060,0.6953,0.5218,-1.6129,0.9792,0.0468,1.5739,0.7968,-0.4650,
0.337181,-0.4060,0.6953,0.5218,-0.7619,0.4787,-1.6451,1.5739,0.7968,-0.4650,
0.339265,-0.4060,0.6953,0.5218,-0.7619,0.4787,-1.6451,1.2687,0.5300,-0.4389,
0.355058,-0.4060,0.6953,0.5218,-0.7619,0.4787,-1.6451,1.1350,0.5300,-0.4661,
0.375044,-0.4471,0.7600,0.5441,-0.7619,0.4787,-1.6451,1.1350,0.5300,-0.4661,
0.378649,-0.4471,0.7600,0.5441,-0.8965,0.8493,-1.0303,1.1350,0.5300,-0.4661,
0.380827,-0.4471,0.7600,0.5441,-0.8965,0.8493,-1.0303,1.2282,0.7020,-0.4373,
0.393865,-0.4471,0.7600,0.5441,-0.8965,0.8493,-1.0303,1.1047,0.5172,-0.3356,
0.414237,-0.4854,0.7327,0.3745,-0.8965,0.8493,-1.0303,1.1047,0.5172,-0.3356,
0.416419,-0.4854,0.7327,0.3745,-1.0000,0.3382,-2.2660,1.1047,0.5172,-0.3356,
0.418313,-0.4854,0.7327,0.3745,-1.0000,0.3382,-2.2660,0.7164,0.2898,-0.2594,
0.433881,-0.4854,0.7327,0.3745,-1.0000,0.3382,-2.2660,0.5406,0.3569,-0.2834,
0.456336,-0.5922,0.7222,0.6838,-1.0000,0.3382,-2.2660,0.5406,0.3569,-0.2834,
0.459416,-0.5922,0.7222,0.6838,-1.8815,0.1350,0.9924,0.5406,0.3569,-0.2834,
0.461835,-0.5922,0.7222,0.6838,-1.8815,0.1350,0.9924,0.8085,0.2706,-0.2040,
0.473963,-0.5922,0.7222,0.6838,-1.8815,0.1350,0.9924,0.8107,0.1683,-0.0900,
0.493547,-0.4251,0.7847,0.2797,-1.8815,0.1350,0.9924,0.8107,0.1683,-0.0900,
0.496152,-0.4251,0.7847,0.2797,-0.1304,0.5786,-2.6726,0.8107,0.1683,-0.0900,
0.498300,-0.4251,0.7847,0.2797,-0.1304,0.5786,-2.6726,0.5236,0.1332,-0.0527,
0.513777,-0.4251,0.7847,0.2797,-0.1304,0.5786,-2.6726,0.2162,0.1667,-0.0969,
0.533799,-0.5113,0.8128,0.4236,-0.1304,0.5786,-2.6726,0.2162,0.1667,-0.0969,
0.536667,-0.5113,0.8128,0.4236,-0.9005,0.7747,-1.0987,0.2162,0.1667,-0.0969,
0.538496,-0.5113,0.8128,0.4236,-0.9005,0.7747,-1.0987,0.1145,0.4080,-0.0144,
0.553309,-0.5113,0.8128,0.4236,-0.9005,0.7747,-1.0987,0.2780,0.2583,-0.0415,
0.573948,-0.3887,0.7615,0.4058,-0.9005,0.7747,-1.0987,0.2780,0.2583,-0.0415,
0.576060,-0.3887,0.7615,0.4058,0.3875,0.2201,-1.1323,0.2780,0.2583,-0.0415,
0.577775,-0.3887,0.7615,0.4058,0.3875,0.2201,-1.1323,0.3089,-0.0629,-0.0996,
0.594707,-0.3887,0.7615,0.4058,0.3875,0.2201,-1.1323,0.1854,-0.1646,-0.1917,
0.613524,-0.4253,0.7952,0.4346,0.3875,0.2201,-1.1323,0.1854,-0.1646,-0.1917,
0.616344,-0.4253,0.7952,0.4346,0.0518,0.5073,-0.7684,0.1854,-0.1646,-0.1917,
0.618229,-0.4253,0.7952,0.4346,0.0518,0.5073,-0.7684,0.2695,0.3286,-0.1577,
0.633900,-0.4253,0.7952,0.4346,0.0518,0.5073,-0.7684,0.4080,0.4197,-0.1683,
0.654782,-0.5309,0.7600,0.6496,0.0518,0.5073,-0.7684,0.4080,0.4197,-0.1683,
0.656919,-0.5309,0.7600,0.6496,-0.8597,0.1245,1.5009,0.4080,0.4197,-0.1683,
0.658679,-0.5309,0.7600,0.6496,-0.8597,0.1245,1.5009,0.5934,0.0474,-0.0431,
0.675726,-0.5309,0.7600,0.6496,-0.8597,0.1245,1.5009,0.9044,0.3185,-0.1220,
0.693807,-0.3694,0.7852,0.3594,-0.8597,0.1245,1.5009,0.9044,0.3185,-0.1220,
0.697441,-0.3694,0.7852,0.3594,0.7761,0.2371,-1.0851,0.9044,0.3185,-0.1220,
0.699436,-0.3694,0.7852,0.3594,0.7761,0.2371,-1.0851,1.0088,0.7787,-0.3004,
0.713461,-0.3694,0.7852,0.3594,0.7761,0.2371,-1.0851,1.0663,1.0695,-0.3963,
0.733947,-0.5431,0.8297,0.1671,0.7761,0.2371,-1.0851,1.0663,1.0695,-0.3963,
0.735968,-0.5431,0.8297,0.1671,-0.6568,0.5409,-2.4608,1.0663,1.0695,-0.3963,
0.737799,-0.5431,0.8297,0.1671,-0.6568,0.5409,-2.4608,0.9151,0.8874,-0.3350,
0.754671,-0.5431,0.8297,0.1671,-0.6568,0.5409,-2.4608,0.4735,0.0549,-0.1507,
0.773653,-0.4446,0.8465,0.3574,-0.6568,0.5409,-2.4608,0.4735,0.0549,-0.1507,
0.775847,-0.4446,0.8465,0.3574,0.4465,0.6279,-0.2780,0.4735,0.0549,-0.1507,
0.777684,-0.4446,0.8465,0.3574,0.4465,0.6279,-0.2780,0.3537,-0.3377,-0.1790,
0.794012,-0.4446,0.8465,0.3574,0.4465,0.6279,-0.2780,0.3931,-0.0048,-0.2722,
0.813511,-0.3750,0.8028,0.2091,0.4465,0.6279,-0.2780,0.3931,-0.0048,-0.2722,
0.816240,-0.3750,0.8028,0.2091,1.1610,0.1709,-1.6312,0.3931,-0.0048,-0.2722,
0.818041,-0.3750,0.8028,0.2091,1.1610,0.1709,-1.6312,0.4069,0.1891,-0.4218,
0.833441,-0.3750,0.8028,0.2091,1.1610,0.1709,-1.6312,0.4724,0.4176,-0.3180,
0.854797,-0.6440,0.8133,0.3196,1.1610,0.1709,-1.6312,0.4724,0.4176,-0.3180,
0.857991,-0.6440,0.8133,0.3196,-1.3159,0.2755,-0.3337,0.4724,0.4176,-0.3180,
0.860200,-0.6440,0.8133,0.3196,-1.3159,0.2755,-0.3337,0.5007,0.2487,-0.1555,
0.874049,-0.6440,0.8133,0.3196,-1.3159,0.2755,-0.3337,0.4394,-0.0911,-0.1582,
0.893110,-0.5155,0.8661,0.2008,-1.3159,0.2755,-0.3337,0.4394,-0.0911,-0.1582,
0.895215,-0.5155,0.8661,0.2008,0.0013,0.7483,-1.3095,0.4394,-0.0911,-0.1582,
0.897004,-0.5155,0.8661,0.2008,0.0013,0.7483,-1.3095,0.3068,-0.1736,-0.1614,
0.913334,-0.5155,0.8661,0.2008,0.0013,0.7483,-1.3095,0.1758,-0.2083,-0.1475,
0.933010,-0.4503,0.8201,0.4024,0.0013,0.7483,-1.3095,0.1758,-0.2083,-0.1475,
0.934892,-0.4503,0.8201,0.4024,0.6517,0.2882,0.7068,0.1758,-0.2083,-0.1475,
0.936478,-0.4503,0.8201,0.4024,0.6517,0.2882,0.7068,0.2067,-0.1965,-0.1513,
0.952860,-0.4503,0.8201,0.4024,0.6517,0.2882,0.7068,0.6557,0.3707,-0.1752,
0.973323,-0.3682,0.9262,0.4393,0.6517,0.2882,0.7068,0.6557,0.3707,-0.1752,
0.975268,-0.3682,0.9262,0.4393,1.4945,1.2947,1.2098,0.6557,0.3707,-0.1752,
0.976940,-0.3682,0.9262,0.4393,1.4945,1.2947,1.2098,1.3401,1.4322,-0.1816,
0.993883,-0.3682,0.9262,0.4393,1.4945,1.2947,1.2098,2.1364,2.6557,-0.0186,
1.012953,-0.4038,0.9523,0.0577,1.4945,1.2947,1.2098,2.1364,2.6557,-0.0186,
1.014988,-0.4038,0.9523,0.0577,1.3517,1.3664,-1.5614,2.1364,2.6557,-0.0186,
1.016782,-0.4038,0.9523,0.0577,1.3517,1.3664,-1.5614,2.7255,3.2853,0.2727,
1.032926,-0.4038,0.9523,0.0577,1.3517,1.3664,-1.5614,2.6834,1.3651,0.9603,
1.054313,-0.3682,0.8697,0.0406,1.3517,1.3664,-1.5614,2.6834,1.3651,0.9603,
1.057222,-0.3682,0.8697,0.0406,1.6007,0.2513,-0.3851,2.6834,1.3651,0.9603,
1.059280,-0.3682,0.8697,0.0406,1.6007,0.2513,-0.3851,2.3739,0.4858,1.2709,
1.073762,-0.3682,0.8697,0.0406,1.6007,0.2513,-0.3851,2.1087,1.1952,0.9017,
1.092845,-0.3613,1.0315,0.1796,1.6007,0.2513,-0.3851,2.1087,1.1952,0.9017,
1.095774,-0.3613,1.0315,0.1796,1.2827,1.5706,1.8549,2.1087,1.1952,0.9017,
1.097714,-0.3613,1.0315,0.1796,1.2827,1.5706,1.8549,2.0299,1.0578,0.8693,
1.112781,-0.3613,1.0315,0.1796,1.2827,1.5706,1.8549,1.8440,0.1055,1.1904,
1.134087,-0.3406,0.8778,0.0945,1.2827,1.5706,1.8549,1.8440,0.1055,1.1904,
1.137679,-0.3406,0.8778,0.0945,1.0940,-0.1105,1.7125,1.8440,0.1055,1.1904,
1.139388,-0.3406,0.8778,0.0945,1.0940,-0.1105,1.7125,1.5089,-0.5747,1.2235,
1.152489,-0.3406,0.8778,0.0945,1.0940,-0.1105,1.7125,1.3598,-0.7452,1.2448,
1.173476,-0.3782,0.8333,0.0589,1.0940,-0.1105,1.7125,1.3598,-0.7452,1.2448,
1.175565,-0.3782,0.8333,0.0589,0.3147,-0.7069,1.7009,1.3598,-0.7452,1.2448,
1.177385,-0.3782,0.8333,0.0589,0.3147,-0.7069,1.7009,1.1840,-0.7004,1.2799,
1.192503,-0.3782,0.8333,0.0589,0.3147,-0.7069,1.7009,0.7201,-0.6967,1.2549,
1.212833,-0.4346,0.8499,-0.1405,0.3147,-0.7069,1.7009,0.7201,-0.6967,1.2549,
1.215702,-0.4346,0.8499,-0.1405,-0.6447,-0.6894,-0.0481,0.7201,-0.6967,1.2549,
1.217849,-0.4346,0.8499,-0.1405,-0.6447,-0.6894,-0.0481,0.0059,-0.8336,1.2916,
1.232909,-0.4346,0.8499,-0.1405,-0.6447,-0.6894,-0.0481,-0.7159,-1.5388,1.2922,
1.252914,-0.4104,0.7894,-0.0379,-0.6447,-0.6894,-0.0481,-0.7159,-1.5388,1.2922,
1.255104,-0.4104,0.7894,-0.0379,-0.8092,-1.4722,0.6589,-0.7159,-1.5388,1.2922,
1.257041,-0.4104,0.7894,-0.0379,-0.8092,-1.4722,0.6589,-1.1233,-1.8584,1.0115,
1.273263,-0.4104,0.7894,-0.0379,-0.8092,-1.4722,0.6589,-1.4200,-1.5643,0.7601,
1.292455,-0.5038,0.8719,-0.0955,-0.8092,-1.4722,0.6589,-1.4200,-1.5643,0.7601,
1.295257,-0.5038,0.8719,-0.0955,-1.9624,-0.7931,-0.5837,-1.4200,-1.5643,0.7601,
1.297573,-0.5038,0.8719,-0.0955,-1.9624,-0.7931,-0.5837,-1.7950,-1.8131,0.5198,
1.312926,-0.5038,0.8719,-0.0955,-1.9624,-0.7931,-0.5837,-1.7444,-1.8285,0.3329,
1.333161,-0.7058,0.9333,-0.1864,-1.9624,-0.7931,-0.5837,-1.7444,-1.8285,0.3329,
1.335320,-0.7058,0.9333,-0.1864,-4.0699,-0.2253,-2.3234,-1.7444,-1.8285,0.3329,
1.337256,-0.7058,0.9333,-0.1864,-4.0699,-0.2253,-2.3234,-1.7268,-1.6709,0.2503,
1.352728,-0.7058,0.9333,-0.1864,-4.0699,-0.2253,-2.3234,-1.9574,-1.9942,-0.0495,
1.372464,-0.7505,0.9438,-0.0193,-4.0699,-0.2253,-2.3234,-1.9574,-1.9942,-0.0495,
1.375748,-0.7505,0.9438,-0.0193,-4.6150,-0.0644,-1.5776,-1.9574,-1.9942,-0.0495,
1.379043,-0.7505,0.9438,-0.0193,-4.6150,-0.0644,-1.5776,-1.8046,-2.2307,-0.5918,
1.394441,-0.7505,0.9438,-0.0193,-4.6150,-0.0644,-1.5776,-1.2751,-1.9468,-1.1308,
1.412165,-0.7776,0.9523,-0.0274,-4.6150,-0.0644,-1.5776,-1.2751,-1.9468,-1.1308,
1.413402,-0.7776,0.9523,-0.0274,-4.7146,0.2259,-2.4574,-1.2751,-1.9468,-1.1308,
1.414234,-0.7776,0.9523,-0.0274,-4.7146,0.2259,-2.4574,-0.7574,-1.7550,-1.3689,
1.432456,-0.7776,0.9523,-0.0274,-4.7146,0.2259,-2.4574,-0.3691,-1.6213,-1.5771,
1.453879,-0.7097,0.9313,-0.0982,-4.7146,0.2259,-2.4574,-0.3691,-1.6213,-1.5771,
1.456127,-0.7097,0.9313,-0.0982,-3.6827,0.2551,-3.5619,-0.3691,-1.6213,-1.5771,
1.457783,-0.7097,0.9313,-0.0982,-3.6827,0.2551,-3.5619,-0.1305,-1.3513,-1.7577,
1.472342,-0.7097,0.9313,-0.0982,-3.6827,0.2551,-3.5619,-0.0735,-0.9998,-1.9665,
1.492790,-0.6025,0.8240,0.1783,-3.6827,0.2551,-3.5619,-0.0735,-0.9998,-1.9665,
1.494806,-0.6025,0.8240,0.1783,-2.1085,-0.5224,-1.0518,-0.0735,-0.9998,-1.9665,
1.496789,-0.6025,0.8240,0.1783,-2.1085,-0.5224,-1.0518,0.3542,-0.3430,-2.1156,
1.512459,-0.6025,0.8240,0.1783,-2.1085,-0.5224,-1.0518,0.7404,-0.4692,-2.1444,
1.533571,-0.5267,0.6237,-0.0943,-2.1085,-0.5224,-1.0518,0.7404,-0.4692,-2.1444,
1.535729,-0.5267,0.6237,-0.0943,-0.6499,-2.1912,-3.5437,0.7404,-0.4692,-2.1444,
1.537703,-0.5267,0.6237,-0.0943,-0.6499,-2.1912,-3.5437,0.5891,-0.4714,-2.1401,
1.552559,-0.5267,0.6237,-0.0943,-0.6499,-2.1912,-3.5437,0.2743,0.0937,-2.0869,
1.572793,-0.5556,0.6838,0.1251,-0.6499,-2.1912,-3.5437,0.2743,0.0937,-2.0869,
1.574952,-0.5556,0.6838,0.1251,-0.2503,-1.2375,-1.2572,0.2743,0.0937,-2.0869,
1.576922,-0.5556,0.6838,0.1251,-0.2503,-1.2375,-1.2572,0.4378,0.1449,-1.8946,
1.593112,-0.5556,0.6838,0.1251,-0.2503,-1.2375,-1.2572,0.5555,-0.2189,-1.7630,
1.613178,-0.3865,0.5538,-0.0271,-0.2503,-1.2375,-1.2572,0.5555,-0.2189,-1.7630,
1.616694,-0.3865,0.5538,-0.0271,1.9704,-2.1584,-2.6042,0.5555,-0.2189,-1.7630,
1.618660,-0.3865,0.5538,-0.0271,1.9704,-2.1584,-2.6042,0.5811,0.0858,-1.8024,
1.632564,-0.3865,0.5538,-0.0271,1.9704,-2.1584,-2.6042,0.4085,0.1747,-1.5004,
1.652547,-0.3884,0.4476,-0.0315,1.9704,-2.1584,-2.6042,0.4085,0.1747,-1.5004,
1.654614,-0.3884,0.4476,-0.0315,2.4519,-2.8480,-2.4690,0.4085,0.1747,-1.5004,
1.656512,-0.3884,0.4476,-0.0315,2.4519,-2.8480,-2.4690,0.2200,-0.0277,-0.9619,
1.672478,-0.3884,0.4476,-0.0315,2.4519,-2.8480,-2.4690,1.0280,-0.6669,-0.4027,
1.692425,-0.4710,0.4859,0.0589,2.4519,-2.8480,-2.4690,1.0280,-0.6669,-0.4027,
1.694463,-0.4710,0.4859,0.0589,1.8086,-2.3516,-1.4944,1.0280,-0.6669,-0.4027,
1.696299,-0.4710,0.4859,0.0589,1.8086,-2.3516,-1.4944,2.0831,-0.4437,-0.0005,
1.712291,-0.4710,0.4859,0.0589,1.8086,-2.3516,-1.4944,2.3446,-0.8160,0.6445,
1.731921,-0.4415,0.6626,0.1764,1.8086,-2.3516,-1.4944,2.3446,-0.8160,0.6445,
1.734486,-0.4415,0.6626,0.1764,1.9594,-0.8637,0.1354,2.3446,-0.8160,0.6445,
1.736201,-0.4415,0.6626,0.1764,1.9594,-0.8637,0.1354,2.4996,-0.3963,0.7489,
1.752269,-0.4415,0.6626,0.1764,1.9594,-0.8637,0.1354,2.4538,0.6173,1.0770,
1.772615,-0.7244,0.7424,-0.0550,1.9594,-0.8637,0.1354,2.4538,0.6173,1.0770,
1.775252,-0.7244,0.7424,-0.0550,-1.0866,-0.4277,-1.3616,2.4538,0.6173,1.0770,
1.777615,-0.7244,0.7424,-0.0550,-1.0866,-0.4277,-1.3616,2.4411,0.6253,1.5292,
1.792460,-0.7244,0.7424,-0.0550,-1.0866,-0.4277,-1.3616,2.3910,-0.4016,1.9377,
1.812165,-0.4439,0.8775,-0.1099,-1.0866,-0.4277,-1.3616,2.3910,-0.4016,1.9377,
1.815298,-0.4439,0.8775,-0.1099,1.1194,0.4605,-1.1068,2.3910,-0.4016,1.9377,
1.817431,-0.4439,0.8775,-0.1099,1.1194,0.4605,-1.1068,2.3138,-0.5742,1.9974,
1.831857,-0.4439,0.8775,-0.1099,1.1194,0.4605,-1.1068,2.0725,0.0719,2.0634,
1.852176,-0.4637,1.3720,-0.0401,1.1194,0.4605,-1.1068,2.0725,0.0719,2.0634,
1.854714,-0.4637,1.3720,-0.0401,0.2498,4.9153,0.2544,2.0725,0.0719,2.0634,
1.856510,-0.4637,1.3720,-0.0401,0.2498,4.9153,0.2544,1.9116,0.5827,1.7177,
1.871576,-0.4637,1.3720,-0.0401,0.2498,4.9153,0.2544,3.0760,1.2895,1.2831,
1.891489,-0.8534,0.7053,-0.9826,0.2498,4.9153,0.2544,3.0760,1.2895,1.2831,
1.894084,-0.8534,0.7053,-0.9826,-4.1306,-1.7744,-7.9550,3.0760,1.2895,1.2831,
1.896214,-0.8534,0.7053,-0.9826,-4.1306,-1.7744,-7.9550,2.0826,-1.8168,1.7934,
1.912186,-0.8534,0.7053,-0.9826,-4.1306,-1.7744,-7.9550,0.6706,-1.9414,2.4613,
1.932075,-0.5025,1.1394,-0.5441,-4.1306,-1.7744,-7.9550,0.6706,-1.9414,2.4613,
1.935469,-0.5025,1.1394,-0.5441,-1.3024,2.2451,-3.4729,0.6706,-1.9414,2.4613,
1.937281,-0.5025,1.1394,-0.5441,-1.3024,2.2451,-3.4729,0.2780,-0.4943,1.8882,
1.951938,-0.5025,1.1394,-0.5441,-1.3024,2.2451,-3.4729,0.3840,-0.0634,2.0858,
1.972069,-0.2577,1.1480,-0.0892,-1.3024,2.2451,-3.4729,0.3840,-0.0634,2.0858,
1.974102,-0.2577,1.1480,-0.0892,0.4002,2.0938,1.0666,0.3840,-0.0634,2.0858,
1.975626,-0.2577,1.1480,-0.0892,0.4002,2.0938,1.0666,0.2445,-0.0772,2.6131,
1.992205,-0.2577,1.1480,-0.0892,0.4002,2.0938,1.0666,0.0847,0.3649,2.7692,
2.012398,-0.0528,1.4404,-0.1928,0.4002,2.0938,1.0666,0.0847,0.3649,2.7692,
2.014430,-0.0528,1.4404,-0.1928,1.3992,4.7117,0.1240,0.0847,0.3649,2.7692,
2.016055,-0.0528,1.4404,-0.1928,1.3992,4.7117,0.1240,-0.3771,0.2684,2.6999,
2.032330,-0.0528,1.4404,-0.1928,1.3992,4.7117,0.1240,-0.1827,0.3659,2.2440,
2.052013,-0.1033,1.0999,-0.3608,1.3992,4.7117,0.1240,-0.1827,0.3659,2.2440,
2.053867,-0.1033,1.0999,-0.3608,-0.0588,1.2102,-1.6118,-0.1827,0.3659,2.2440,
2.055665,-0.1033,1.0999,-0.3608,-0.0588,1.2102,-1.6118,-0.0964,0.3334,1.5654,
2.072563,-0.1033,1.0999,-0.3608,-0.0588,1.2102,-1.6118,-0.1369,-0.2397,1.1792,
2.091280,0.0076,1.0820,-0.2221,-0.0588,1.2102,-1.6118,-0.1369,-0.2397,1.1792,
2.093255,0.0076,1.0820,-0.2221,0.4986,0.9890,-0.2938,-0.1369,-0.2397,1.1792,
2.094941,0.0076,1.0820,-0.2221,0.4986,0.9890,-0.2938,-0.1896,-0.3430,0.9081,
2.111811,0.0076,1.0820,-0.2221,0.4986,0.9890,-0.2938,-0.0874,0.0879,0.4735,
2.131392,0.0076,1.0002,-0.1515,0.4986,0.9890,-0.2938,-0.0874,0.0879,0.4735,
2.133550,0.0076,1.0002,-0.1515,0.2428,0.1685,0.3430,-0.0874,0.0879,0.4735,
2.134910,0.0076,1.0002,-0.1515,0.2428,0.1685,0.3430,0.0522,0.6157,-0.0714,
2.151048,0.0076,1.0002,-0.1515,0.2428,0.1685,0.3430,0.0346,0.6392,-0.2993,
2.171200,0.0291,0.9789,-0.3459,0.2428,0.1685,0.3430,0.0346,0.6392,-0.2993,
2.173085,0.0291,0.9789,-0.3459,0.4788,-0.0338,-1.5336,0.0346,0.6392,-0.2993,
2.174717,0.0291,0.9789,-0.3459,0.4788,-0.0338,-1.5336,-0.2700,0.5539,-0.2471,
2.191537,0.0291,0.9789,-0.3459,0.4788,-0.0338,-1.5336,-0.2423,0.5742,-0.0277,
2.211367,0.0528,0.8421,-0.2055,0.4788,-0.0338,-1.5336,-0.2423,0.5742,-0.0277,
2.214348,0.0528,0.8421,-0.2055,0.7132,-1.3880,-0.2285,-0.2423,0.5742,-0.0277,
2.216551,0.0528,0.8421,-0.2055,0.7132,-1.3880,-0.2285,-0.1161,0.4490,0.2365,
2.231135,0.0528,0.8421,-0.2055,0.7132,-1.3880,-0.2285,-0.0969,0.4053,0.2860,
2.251675,0.1361,0.6469,-0.4845,0.7132,-1.3880,-0.2285,-0.0969,0.4053,0.2860,
2.253800,0.1361,0.6469,-0.4845,1.3988,-3.3099,-3.0015,-0.0969,0.4053,0.2860,
2.255610,0.1361,0.6469,-0.4845,1.3988,-3.3099,-3.0015,-0.3276,0.8714,0.4517,
2.271529,0.1361,0.6469,-0.4845,1.3988,-3.3099,-3.0015,-0.7313,1.0589,0.9092,
2.292141,0.0992,0.9159,-0.2172,1.3988,-3.3099,-3.0015,-0.7313,1.0589,0.9092,
2.295718,0.0992,0.9159,-0.2172,0.7076,-0.7045,-0.5819,-0.7313,1.0589,0.9092,
2.297844,0.0992,0.9159,-0.2172,0.7076,-0.7045,-0.5819,-0.4985,1.1462,1.3385,
2.312003,0.0992,0.9159,-0.2172,0.7076,-0.7045,-0.5819,-0.5502,0.7952,1.6821,
2.331193,0.1307,0.6601,-0.1903,0.7076,-0.7045,-0.5819,-0.5502,0.7952,1.6821,
2.333797,0.1307,0.6601,-0.1903,0.3768,-3.2057,-0.5421,-0.5502,0.7952,1.6821,
2.335457,0.1307,0.6601,-0.1903,0.3768,-3.2057,-0.5421,-0.5481,0.1912,2.0592,
2.351609,0.1307,0.6601,-0.1903,0.3768,-3.2057,-0.5421,-0.3547,-0.1731,2.1215,
2.371639,-0.0230,0.9567,-0.1085,0.3768,-3.2057,-0.5421,-0.3547,-0.1731,2.1215,
2.373743,-0.0230,0.9567,-0.1085,-1.9346,-0.2121,0.0870,-0.3547,-0.1731,2.1215,
2.375593,-0.0230,0.9567,-0.1085,-1.9346,-0.2121,0.0870,-0.2040,-0.5571,2.2685,
2.391594,-0.0230,0.9567,-0.1085,-1.9346,-0.2121,0.0870,-0.2178,-0.5374,2.2014,
2.411289,0.3318,1.2829,0.0151,-1.9346,-0.2121,0.0870,-0.2178,-0.5374,2.2014,
2.413808,0.3318,1.2829,0.0151,0.7349,3.1593,1.2617,-0.2178,-0.5374,2.2014,
2.415157,0.3318,1.2829,0.0151,0.7349,3.1593,1.2617,0.0075,-0.3963,1.6213,
2.430842,0.3318,1.2829,0.0151,0.7349,3.1593,1.2617,0.2759,-0.3276,0.6610,
2.451429,0.2147,1.4380,-0.3623,0.7349,3.1593,1.2617,0.2759,-0.3276,0.6610,
2.453234,0.2147,1.4380,-0.3623,-0.8217,4.8104,-2.3448,0.2759,-0.3276,0.6610,
2.455075,0.2147,1.4380,-0.3623,-0.8217,4.8104,-2.3448,0.0778,0.0570,0.1923,
2.471182,0.2147,1.4380,-0.3623,-0.8217,4.8104,-2.3448,-0.0144,0.1763,0.0538,
2.490928,0.4121,1.1499,-0.1038,-0.8217,4.8104,-2.3448,-0.0144,0.1763,0.0538,
2.493798,0.4121,1.1499,-0.1038,1.0615,2.0037,0.1862,-0.0144,0.1763,0.0538,
2.495254,0.4121,1.1499,-0.1038,1.0615,2.0037,0.1862,-0.0490,-0.0064,-0.1316,
2.510823,0.4121,1.1499,-0.1038,1.0615,2.0037,0.1862,0.2637,-0.1641,-0.5103,
2.531461,0.5690,1.3388,-0.1373,1.0615,2.0037,0.1862,0.2637,-0.1641,-0.5103,
2.533727,0.5690,1.3388,-0.1373,2.7218,3.8222,-0.0920,0.2637,-0.1641,-0.5103,
2.535432,0.5690,1.3388,-0.1373,2.7218,3.8222,-0.0920,0.6120,-0.7942,-0.7963,
2.551156,0.5690,1.3388,-0.1373,2.7218,3.8222,-0.0920,0.5870,-1.8232,-1.9686,
2.571436,-0.1908,0.8668,-0.2143,2.7218,3.8222,-0.0920,0.5870,-1.8232,-1.9686,
2.573075,-0.1908,0.8668,-0.2143,-4.1314,-0.9107,-0.4886,0.5870,-1.8232,-1.9686,
2.574726,-0.1908,0.8668,-0.2143,-4.1314,-0.9107,-0.4886,0.9577,-1.6251,-1.8504,
2.591476,-0.1908,0.8668,-0.2143,-4.1314,-0.9107,-0.4886,0.9603,-0.1193,-0.8975,
2.611502,0.5045,0.6670,-0.5174,-4.1314,-0.9107,-0.4886,0.9603,-0.1193,-0.8975,
2.614318,0.5045,0.6670,-0.5174,3.2135,-2.8885,-2.9849,0.9603,-0.1193,-0.8975,
2.616200,0.5045,0.6670,-0.5174,3.2135,-2.8885,-2.9849,0.3302,0.8474,-0.6285,
2.630752,0.5045,0.6670,-0.5174,3.2135,-2.8885,-2.9849,-0.4304,-0.0591,-0.2381,
2.651263,0.2526,0.3643,0.0249,3.2135,-2.8885,-2.9849,-0.4304,-0.0591,-0.2381,
2.653342,0.2526,0.3643,0.0249,0.8751,-5.8878,2.2846,-0.4304,-0.0591,-0.2381,
2.655059,0.2526,0.3643,0.0249,0.8751,-5.8878,2.2846,-0.2360,-0.0644,0.2727,
2.671276,0.2526,0.3643,0.0249,0.8751,-5.8878,2.2846,0.3111,0.4107,1.6735,
2.690542,0.3342,0.7683,-0.3232,0.8751,-5.8878,2.2846,0.3111,0.4107,1.6735,
2.692698,0.3342,0.7683,-0.3232,1.2941,-1.8552,-1.1259,0.3111,0.4107,1.6735,
2.694204,0.3342,0.7683,-0.3232,1.2941,-1.8552,-1.1259,0.0740,-0.2461,2.3084,
2.711012,0.3342,0.7683,-0.3232,1.2941,-1.8552,-1.1259,0.0820,-0.6184,2.5465,
2.730855,0.3198,1.1846,-0.1715,1.2941,-1.8552,-1.1259,0.0820,-0.6184,2.5465,
2.733429,0.3198,1.1846,-0.1715,0.2838,2.4671,0.4320,0.0820,-0.6184,2.5465,
2.734921,0.3198,1.1846,-0.1715,0.2838,2.4671,0.4320,0.0410,-0.9699,2.2472,
2.750626,0.3198,1.1846,-0.1715,0.2838,2.4671,0.4320,0.2280,-0.7697,0.9614,
2.770845,0.2289,1.2105,-0.4427,0.2838,2.4671,0.4320,0.2280,-0.7697,0.9614,
2.772712,0.2289,1.2105,-0.4427,-1.1104,2.9319,-2.0680,0.2280,-0.7697,0.9614,
2.774577,0.2289,1.2105,-0.4427,-1.1104,2.9319,-2.0680,0.1529,-0.1752,-0.0383,
2.791083,0.2289,1.2105,-0.4427,-1.1104,2.9319,-2.0680,0.0783,-0.0426,-0.3143,
2.811037,0.3442,1.1233,-0.2272,-1.1104,2.9319,-2.0680,0.0783,-0.0426,-0.3143,
2.813223,0.3442,1.1233,-0.2272,0.0927,2.0645,0.0994,0.0783,-0.0426,-0.3143,
2.814780,0.3442,1.1233,-0.2272,0.0927,2.0645,0.0994,0.1364,0.0218,-0.4985,
2.830271,0.3442,1.1233,-0.2272,0.0927,2.0645,0.0994,0.1678,0.1113,-0.7798,
2.850905,0.2917,0.9748,-0.2700,0.0927,2.0645,0.0994,0.1678,0.1113,-0.7798,
2.852767,0.2917,0.9748,-0.2700,-0.1991,0.5421,-0.2734,0.1678,0.1113,-0.7798,
2.854551,0.2917,0.9748,-0.2700,-0.1991,0.5421,-0.2734,0.1561,0.2296,-1.1409,
2.870308,0.2917,0.9748,-0.2700,-0.1991,0.5421,-0.2734,0.0778,0.5662,-0.6999,
2.890850,0.2436,0.7576,-0.3623,-0.1991,0.5421,-0.2734,0.0778,0.5662,-0.6999,
2.894034,0.2436,0.7576,-0.3623,-0.3730,-1.6760,-1.1557,0.0778,0.5662,-0.6999,
2.896672,0.2436,0.7576,-0.3623,-0.3730,-1.6760,-1.1557,-0.2003,0.4139,-0.2178,
2.911300,0.2436,0.7576,-0.3623,-0.3730,-1.6760,-1.1557,-0.1790,0.3137,-0.1364,
2.931137,0.2875,0.8986,-0.1859,-0.3730,-1.6760,-1.1557,-0.1790,0.3137,-0.1364,
2.933295,0.2875,0.8986,-0.1859,0.0865,-0.3290,0.4721,-0.1790,0.3137,-0.1364,
2.934916,0.2875,0.8986,-0.1859,0.0865,-0.3290,0.4721,-0.0218,0.2338,-0.1358,
2.951011,0.2875,0.8986,-0.1859,0.0865,-0.3290,0.4721,0.0708,0.2455,-0.0698,
2.970845,0.1532,0.8099,-0.2924,0.0865,-0.3290,0.4721,0.0708,0.2455,-0.0698,
2.974132,0.1532,0.8099,-0.2924,-1.2099,-1.2065,-0.5808,0.0708,0.2455,-0.0698,
2.976338,0.1532,0.8099,-0.2924,-1.2099,-1.2065,-0.5808,0.1571,0.3132,0.1534,
2.990974,0.1532,0.8099,-0.2924,-1.2099,-1.2065,-0.5808,0.0826,0.2306,0.3329,
3.011198,0.3132,0.8619,-0.2726,-1.2099,-1.2065,-0.5808,0.0826,0.2306,0.3329,
3.014798,0.3132,0.8619,-0.2726,0.2463,-0.6567,-0.3639,0.0826,0.2306,0.3329,
3.016627,0.3132,0.8619,-0.2726,0.2463,-0.6567,-0.3639,-0.0080,-0.0037,0.3675,
3.030074,0.3132,0.8619,-0.2726,0.2463,-0.6567,-0.3639,-0.1023,-0.0293,0.3185,
3.050381,0.3166,0.8534,-0.2470,0.2463,-0.6567,-0.3639,-0.1023,-0.0293,0.3185,
3.052599,0.3166,0.8534,-0.2470,0.1562,-0.7040,-0.1232,-0.1023,-0.0293,0.3185,
3.054321,0.3166,0.8534,-0.2470,0.1562,-0.7040,-0.1232,-0.1763,-0.0719,0.3489,
3.069951,0.3166,0.8534,-0.2470,0.1562,-0.7040,-0.1232,-0.2264,-0.2200,0.4479,
3.089783,0.3508,0.9196,-0.2739,0.1562,-0.7040,-0.1232,-0.2264,-0.2200,0.4479,
3.092564,0.3508,0.9196,-0.2739,0.3582,-0.0214,-0.4284,-0.2264,-0.2200,0.4479,
3.094541,0.3508,0.9196,-0.2739,0.3582,-0.0214,-0.4284,-0.2722,-0.3867,0.4692,
3.110173,0.3508,0.9196,-0.2739,0.3582,-0.0214,-0.4284,-0.3835,-0.3579,0.4373,
3.130034,0.2998,0.9064,-0.2983,0.3582,-0.0214,-0.4284,-0.3835,-0.3579,0.4373,
3.132708,0.2998,0.9064,-0.2983,-0.2675,-0.1195,-0.7183,-0.3835,-0.3579,0.4373,
3.134566,0.2998,0.9064,-0.2983,-0.2675,-0.1195,-0.7183,-0.4815,-0.3883,0.3505,
3.150032,0.2998,0.9064,-0.2983,-0.2675,-0.1195,-0.7183,-0.5699,-0.3057,0.2450,
3.169923,0.2028,0.9606,-0.2841,-0.2675,-0.1195,-0.7183,-0.5699,-0.3057,0.2450,
3.172640,0.2028,0.9606,-0.2841,-1.2679,0.4024,-0.6951,-0.5699,-0.3057,0.2450,
3.174552,0.2028,0.9606,-0.2841,-1.2679,0.4024,-0.6951,-0.5992,-0.1348,0.0916,
3.189910,0.2028,0.9606,-0.2841,-1.2679,0.4024,-0.6951,-0.5438,0.0660,-0.0458,
3.210300,0.0977,0.8863,-0.2729,-1.2679,0.4024,-0.6951,-0.5438,0.0660,-0.0458,
3.212381,0.0977,0.8863,-0.2729,-2.2683,-0.3749,-0.7608,-0.5438,0.0660,-0.0458,
3.214316,0.0977,0.8863,-0.2729,-2.2683,-0.3749,-0.7608,-0.4474,0.2301,-0.1001,
3.230224,0.0977,0.8863,-0.2729,-2.2683,-0.3749,-0.7608,-0.3691,0.2780,-0.0767,
3.250362,0.1429,0.8893,-0.2697,-2.2683,-0.3749,-0.7608,-0.3691,0.2780,-0.0767,
3.252687,0.1429,0.8893,-0.2697,-1.7806,-0.3935,-0.8858,-0.3691,0.2780,-0.0767,
3.254599,0.1429,0.8893,-0.2697,-1.7806,-0.3935,-0.8858,-0.3654,0.1896,-0.0320,
3.270342,0.1429,0.8893,-0.2697,-1.7806,-0.3935,-0.8858,-0.4155,0.0282,-0.0240,
3.289933,0.2560,0.9868,-0.2209,-1.7806,-0.3935,-0.8858,-0.4155,0.0282,-0.0240,
3.292136,0.2560,0.9868,-0.2209,0.4586,0.4080,0.3213,-0.4155,0.0282,-0.0240,
3.293792,0.2560,0.9868,-0.2209,0.4586,0.4080,0.3213,-0.4346,-0.0144,-0.0905,
3.310304,0.2560,0.9868,-0.2209,0.4586,0.4080,0.3213,-0.4101,0.0213,-0.1395,
3.329472,0.2807,0.9833,-0.1571,0.4586,0.4080,0.3213,-0.4101,0.0213,-0.1395,
3.332074,0.2807,0.9833,-0.1571,0.7311,0.3246,0.7790,-0.4101,0.0213,-0.1395,
3.333558,0.2807,0.9833,-0.1571,0.7311,0.3246,0.7790,-0.3297,0.0613,-0.1822,
3.349987,0.2807,0.9833,-0.1571,0.7311,0.3246,0.7790,-0.2072,0.0991,-0.1997,
3.369474,0.2861,0.9320,-0.1336,0.7311,0.3246,0.7790,-0.2072,0.0991,-0.1997,
3.371577,0.2861,0.9320,-0.1336,0.2545,-0.1729,0.4385,-0.2072,0.0991,-0.1997,
3.373402,0.2861,0.9320,-0.1336,0.2545,-0.1729,0.4385,-0.0959,0.1278,-0.2088,
3.390570,0.2861,0.9320,-0.1336,0.2545,-0.1729,0.4385,-0.0352,0.1177,-0.1981,
3.409965,0.2968,0.9227,-0.1617,0.2545,-0.1729,0.4385,-0.0352,0.1177,-0.1981,
3.412874,0.2968,0.9227,-0.1617,0.4206,-0.2872,0.1260,-0.0352,0.1177,-0.1981,
3.414685,0.2968,0.9227,-0.1617,0.4206,-0.2872,0.1260,0.0149,0.1395,-0.1539,
3.430043,0.2968,0.9227,-0.1617,0.4206,-0.2872,0.1260,0.0911,0.2360,-0.1161,
3.449718,0.3476,0.9731,-0.1847,0.4206,-0.2872,0.1260,0.0911,0.2360,-0.1161,
3.452267,0.3476,0.9731,-0.1847,0.9387,0.2009,-0.0979,0.0911,0.2360,-0.1161,
3.454146,0.3476,0.9731,-0.1847,0.9387,0.2009,-0.0979,0.2189,0.2887,-0.1209,
3.472716,0.3476,0.9731,-0.1847,0.9387,0.2009,-0.0979,0.3462,0.2567,-0.1571,
3.489347,0.3247,0.9438,-0.2839,0.9387,0.2009,-0.0979,0.3462,0.2567,-0.1571,
3.492176,0.3247,0.9438,-0.2839,0.7286,-0.0736,-0.9807,0.3462,0.2567,-0.1571,
3.493948,0.3247,0.9438,-0.2839,0.7286,-0.0736,-0.9807,0.3963,0.2152,-0.1960,
3.510502,0.3247,0.9438,-0.2839,0.7286,-0.0736,-0.9807,0.3569,0.2301,-0.2184,
3.530138,0.2663,0.8839,-0.3457,0.7286,-0.0736,-0.9807,0.3569,0.2301,-0.2184,
3.532643,0.2663,0.8839,-0.3457,0.1984,-0.6412,-1.4380,0.3569,0.2301,-0.2184,
3.534478,0.2663,0.8839,-0.3457,0.1984,-0.6412,-1.4380,0.2599,0.2780,-0.2610,
3.549886,0.2663,0.8839,-0.3457,0.1984,-0.6412,-1.4380,0.1566,0.3286,-0.3180,
3.569734,0.2201,0.8871,-0.2834,0.1984,-0.6412,-1.4380,0.1566,0.3286,-0.3180,
3.572543,0.2201,0.8871,-0.2834,-0.4552,-0.3407,0.0032,0.1566,0.3286,-0.3180,
3.574591,0.2201,0.8871,-0.2834,-0.4552,-0.3407,0.0032,0.0964,0.3302,-0.3798,
3.589461,0.2201,0.8871,-0.2834,-0.4552,-0.3407,0.0032,0.0751,0.3265,-0.3851,
3.609654,0.2487,0.9284,-0.2597,-0.4552,-0.3407,0.0032,0.0751,0.3265,-0.3851,
3.611830,0.2487,0.9284,-0.2597,-0.0737,0.0341,0.2318,0.0751,0.3265,-0.3851,
3.613638,0.2487,0.9284,-0.2597,-0.0737,0.0341,0.2318,0.0842,0.3409,-0.3819,
3.630090,0.2487,0.9284,-0.2597,-0.0737,0.0341,0.2318,0.0586,0.3563,-0.3814,
3.650023,0.2907,0.9328,-0.2663,-0.0737,0.0341,0.2318,0.0586,0.3563,-0.3814,
3.654042,0.2907,0.9328,-0.2663,0.1875,0.0789,0.0291,0.0586,0.3563,-0.3814,
3.655474,0.2907,0.9328,-0.2663,0.1875,0.0789,0.0291,0.0032,0.3947,-0.3755,
3.672717,0.2907,0.9328,-0.2663,0.1875,0.0789,0.0291,-0.0762,0.4037,-0.3702,
3.690443,0.3029,0.8626,-0.2524,0.1875,0.0789,0.0291,-0.0762,0.4037,-0.3702,
3.693952,0.3029,0.8626,-0.2524,0.1102,-0.5514,0.1541,-0.0762,0.4037,-0.3702,
3.696215,0.3029,0.8626,-0.2524,0.1102,-0.5514,0.1541,-0.1273,0.3776,-0.3499,
3.708994,0.3029,0.8626,-0.2524,0.1102,-0.5514,0.1541,-0.1230,0.4096,-0.3425,
3.728910,0.3227,0.9311,-0.2910,0.1102,-0.5514,0.1541,-0.1230,0.4096,-0.3425,
3.731302,0.3227,0.9311,-0.2910,0.3611,0.0821,-0.2902,-0.1230,0.4096,-0.3425,
3.732763,0.3227,0.9311,-0.2910,0.3611,0.0821,-0.2902,-0.0969,0.5081,-0.3553,
3.749664,0.3227,0.9311,-0.2910,0.3611,0.0821,-0.2902,-0.0676,0.4975,-0.3878,
3.769302,0.3100,0.9775,-0.3012,0.3611,0.0821,-0.2902,-0.0676,0.4975,-0.3878,
3.771976,0.3100,0.9775,-0.3012,0.2934,0.5057,-0.4404,-0.0676,0.4975,-0.3878,
3.773506,0.3100,0.9775,-0.3012,0.2934,0.5057,-0.4404,-0.0485,0.4330,-0.4543,
3.789596,0.3100,0.9775,-0.3012,0.2934,0.5057,-0.4404,-0.1001,0.3132,-0.4639,
3.809963,0.3093,0.9850,-0.2949,0.2934,0.5057,-0.4404,-0.1001,0.3132,-0.4639,
3.812217,0.3093,0.9850,-0.2949,0.3890,0.5389,-0.4169,-0.1001,0.3132,-0.4639,
3.813917,0.3093,0.9850,-0.2949,0.3890,0.5389,-0.4169,-0.1672,0.3329,-0.3984,
3.829347,0.3093,0.9850,-0.2949,0.3890,0.5389,-0.4169,-0.2274,0.2684,-0.3595,
3.849328,0.2910,1.0288,-0.1669,0.3890,0.5389,-0.4169,-0.2274,0.2684,-0.3595,
3.851730,0.2910,1.0288,-0.1669,0.3016,0.9107,0.7219,-0.2274,0.2684,-0.3595,
3.853360,0.2910,1.0288,-0.1669,0.3016,0.9107,0.7219,-0.2887,0.1816,-0.3206,
3.872853,0.2910,1.0288,-0.1669,0.3016,0.9107,0.7219,-0.3457,0.1656,-0.3105,
3.889818,0.2231,0.9951,-0.1419,0.3016,0.9107,0.7219,-0.3457,0.1656,-0.3105,
3.893788,0.2231,0.9951,-0.1419,-0.2699,0.5113,0.7897,-0.3457,0.1656,-0.3105,
3.895769,0.2231,0.9951,-0.1419,-0.2699,0.5113,0.7897,-0.3473,0.1811,-0.2290,
3.909356,0.2231,0.9951,-0.1419,-0.2699,0.5113,0.7897,-0.2988,0.3941,-0.2210,
3.929084,0.1375,0.9460,-0.1163,-0.2699,0.5113,0.7897,-0.2988,0.3941,-0.2210,
3.931517,0.1375,0.9460,-0.1163,-0.9864,-0.0529,0.8094,-0.2988,0.3941,-0.2210,
3.933143,0.1375,0.9460,-0.1163,-0.9864,-0.0529,0.8094,-0.2935,0.4490,-0.2498,
3.949088,0.1375,0.9460,-0.1163,-0.9864,-0.0529,0.8094,-0.2903,0.4000,-0.2072,
3.969615,0.1009,1.0530,-0.0237,-0.9864,-0.0529,0.8094,-0.2903,0.4000,-0.2072,
3.972036,0.1009,1.0530,-0.0237,-1.2709,0.9431,1.5443,-0.2903,0.4000,-0.2072,
3.973752,0.1009,1.0530,-0.0237,-1.2709,0.9431,1.5443,-0.2647,0.3558,-0.1699,
3.989095,0.1009,1.0530,-0.0237,-1.2709,0.9431,1.5443,-0.2610,0.2093,-0.1779,
4.009654,0.0799,1.0327,0.0288,-1.2709,0.9431,1.5443,-0.2610,0.2093,-0.1779,
4.012093,0.0799,1.0327,0.0288,-0.4377,0.3999,0.7226,-0.2610,0.2093,-0.1779,
4.013810,0.0799,1.0327,0.0288,-0.4377,0.3999,0.7226,-0.2935,0.0293,-0.1641,
4.029365,0.0799,1.0327,0.0288,-0.4377,0.3999,0.7226,-0.2780,0.0314,-0.1140,
4.049341,0.0584,1.0322,0.0203,-0.4377,0.3999,0.7226,-0.2780,0.0314,-0.1140,
4.051427,0.0584,1.0322,0.0203,-0.5893,0.3833,0.5226,-0.2780,0.0314,-0.1140,
4.053209,0.0584,1.0322,0.0203,-0.5893,0.3833,0.5226,-0.2099,0.1678,-0.0905,
4.069447,0.0584,1.0322,0.0203,-0.5893,0.3833,0.5226,-0.1598,0.2450,-0.1220,
4.089849,-0.0112,1.0322,-0.0430,-0.5893,0.3833,0.5226,-0.1598,0.2450,-0.1220,
4.091950,-0.0112,1.0322,-0.0430,-0.5968,0.3247,-0.1498,-0.1598,0.2450,-0.1220,
4.093748,-0.0112,1.0322,-0.0430,-0.5968,0.3247,-0.1498,-0.2019,0.2471,-0.1470,
4.108508,-0.0112,1.0322,-0.0430,-0.5968,0.3247,-0.1498,-0.2796,0.2647,-0.1326,
4.128847,-0.0217,1.0232,0.0418,-0.5968,0.3247,-0.1498,-0.2796,0.2647,-0.1326,
4.131787,-0.0217,1.0232,0.0418,-0.4023,0.2221,0.3933,-0.2796,0.2647,-0.1326,
4.133646,-0.0217,1.0232,0.0418,-0.4023,0.2221,0.3933,-0.2487,0.1928,-0.0735,
4.148612,-0.0217,1.0232,0.0418,-0.4023,0.2221,0.3933,-0.1688,0.0815,-0.0123,
4.168979,0.0134,1.0192,0.0076,-0.4023,0.2221,0.3933,-0.1688,0.0815,-0.0123,
4.173108,0.0134,1.0192,0.0076,-0.0382,0.1838,-0.0090,-0.1688,0.0815,-0.0123,
4.174970,0.0134,1.0192,0.0076,-0.0382,0.1838,-0.0090,-0.1166,-0.0016,0.0495,
4.189627,0.0134,1.0192,0.0076,-0.0382,0.1838,-0.0090,-0.1124,-0.0762,0.1012,
4.208590,0.0608,0.9924,0.0000,-0.0382,0.1838,-0.0090,-0.1124,-0.0762,0.1012,
4.210830,0.0608,0.9924,0.0000,0.3937,-0.0785,-0.1258,-0.1124,-0.0762,0.1012,
4.212738,0.0608,0.9924,0.0000,0.3937,-0.0785,-0.1258,-0.1561,-0.1901,0.1273,
4.228355,0.0608,0.9924,0.0000,0.3937,-0.0785,-0.1258,-0.2061,-0.3079,0.1534,
4.249119,0.0701,0.9772,0.0051,0.3937,-0.0785,-0.1258,-0.2061,-0.3079,0.1534,
4.251969,0.0701,0.9772,0.0051,0.4204,-0.2244,-0.1390,-0.2061,-0.3079,0.1534,
4.253618,0.0701,0.9772,0.0051,0.4204,-0.2244,-0.1390,-0.2290,-0.3372,0.1843,
4.268188,0.0701,0.9772,0.0051,0.4204,-0.2244,-0.1390,-0.1864,-0.3435,0.2099,
4.289583,0.0305,1.0046,-0.0242,0.4204,-0.2244,-0.1390,-0.1864,-0.3435,0.2099,
4.291943,0.0305,1.0046,-0.0242,-0.0503,0.0478,-0.4896,-0.1864,-0.3435,0.2099,
4.293753,0.0305,1.0046,-0.0242,-0.0503,0.0478,-0.4896,-0.1316,-0.4352,0.2333,
4.308989,0.0305,1.0046,-0.0242,-0.0503,0.0478,-0.4896,-0.1332,-0.5257,0.2658,
4.329192,0.1004,1.0148,-0.0066,-0.0503,0.0478,-0.4896,-0.1332,-0.5257,0.2658,
4.331505,0.1004,1.0148,-0.0066,0.3318,0.1609,0.0092,-0.1332,-0.5257,0.2658,
4.333063,0.1004,1.0148,-0.0066,0.3318,0.1609,0.0092,-0.1081,-0.5076,0.3308,
4.348394,0.1004,1.0148,-0.0066,0.3318,0.1609,0.0092,-0.0410,-0.5491,0.4064,
4.368652,0.1664,0.9303,0.0303,0.3318,0.1609,0.0092,-0.0410,-0.5491,0.4064,
4.371263,0.1664,0.9303,0.0303,0.5324,-0.6275,0.2101,-0.0410,-0.5491,0.4064,
4.372721,0.1664,0.9303,0.0303,0.5324,-0.6275,0.2101,0.0943,-0.6386,0.4756,
4.387743,0.1664,0.9303,0.0303,0.5324,-0.6275,0.2101,0.2221,-0.7579,0.5886,
4.408116,0.2096,1.0239,0.0584,0.5324,-0.6275,0.2101,0.2221,-0.7579,0.5886,
4.410147,0.2096,1.0239,0.0584,0.7414,0.3157,0.5692,0.2221,-0.7579,0.5886,
4.411686,0.2096,1.0239,0.0584,0.7414,0.3157,0.5692,0.3297,-0.8314,0.7340,
4.428293,0.2096,1.0239,0.0584,0.7414,0.3157,0.5692,0.5278,-0.9800,0.8714,
4.447993,0.3645,1.1531,-0.0007,0.7414,0.3157,0.5692,0.5278,-0.9800,0.8714,
4.450464,0.3645,1.1531,-0.0007,1.9497,1.6315,0.2075,0.5278,-0.9800,0.8714,
4.451980,0.3645,1.1531,-0.0007,1.9497,1.6315,0.2075,0.7931,-0.9667,0.8980,
4.469436,0.3645,1.1531,-0.0007,1.9497,1.6315,0.2075,0.7452,-0.4959,0.7132,
4.488422,0.0831,0.9572,-0.0308,1.9497,1.6315,0.2075,0.7452,-0.4959,0.7132,
4.490498,0.0831,0.9572,-0.0308,-1.1007,-0.2218,0.2459,0.7452,-0.4959,0.7132,
4.492391,0.0831,0.9572,-0.0308,-1.1007,-0.2218,0.2459,0.5598,0.1917,0.5870,
4.508273,0.0831,0.9572,-0.0308,-1.1007,-0.2218,0.2459,0.6898,0.4107,0.5502,
4.528135,0.0916,1.0163,-0.0537,-1.1007,-0.2218,0.2459,0.6898,0.4107,0.5502,
4.531413,0.0916,1.0163,-0.0537,-1.2185,0.4134,0.2196,0.6898,0.4107,0.5502,
4.533088,0.0916,1.0163,-0.0537,-1.2185,0.4134,0.2196,1.2314,0.4133,0.6573,
4.548353,0.0916,1.0163,-0.0537,-1.2185,0.4134,0.2196,1.4733,0.4533,0.7185,
4.568349,0.2871,1.0395,-0.4796,-1.2185,0.4134,0.2196,1.4733,0.4533,0.7185,
4.570615,0.2871,1.0395,-0.4796,0.4257,0.7556,-3.4698,1.4733,0.4533,0.7185,
4.572413,0.2871,1.0395,-0.4796,0.4257,0.7556,-3.4698,1.1425,0.4671,0.6003,
4.588724,0.2871,1.0395,-0.4796,0.4257,0.7556,-3.4698,0.7345,0.4724,0.4320,
4.607850,0.2008,0.9640,-0.4163,0.4257,0.7556,-3.4698,0.7345,0.4724,0.4320,
4.610117,0.2008,0.9640,-0.4163,-0.6287,0.1194,-2.5263,0.7345,0.4724,0.4320,
4.611980,0.2008,0.9640,-0.4163,-0.6287,0.1194,-2.5263,0.4964,0.5689,0.3558,
4.628060,0.2008,0.9640,-0.4163,-0.6287,0.1194,-2.5263,0.2855,0.6743,0.3015,
4.648271,0.2626,0.7444,-0.2575,-0.6287,0.1194,-2.5263,0.2855,0.6743,0.3015,
4.650603,0.2626,0.7444,-0.2575,-0.1749,-1.9703,-0.8600,0.2855,0.6743,0.3015,
4.652686,0.2626,0.7444,-0.2575,-0.1749,-1.9703,-0.8600,0.0953,0.6871,0.2589,
4.670536,0.2626,0.7444,-0.2575,-0.1749,-1.9703,-0.8600,-0.0112,0.7622,0.3217,
4.687573,0.3552,0.8570,-0.2443,-0.1749,-1.9703,-0.8600,-0.0112,0.7622,0.3217,
4.689986,0.3552,0.8570,-0.2443,0.5777,-0.8263,-0.7705,-0.0112,0.7622,0.3217,
4.691806,0.3552,0.8570,-0.2443,0.5777,-0.8263,-0.7705,-0.0900,0.8277,0.4746,
4.708083,0.3552,0.8570,-0.2443,0.5777,-0.8263,-0.7705,-0.1353,0.5779,0.6434,
4.728255,0.4722,0.8656,-0.1673,0.5777,-0.8263,-0.7705,-0.1353,0.5779,0.6434,
4.730655,0.4722,0.8656,-0.1673,1.4601,-0.6730,-0.1205,-0.1353,0.5779,0.6434,
4.732556,0.4722,0.8656,-0.1673,1.4601,-0.6730,-0.1205,-0.1033,0.1039,0.7894,
4.748289,0.4722,0.8656,-0.1673,1.4601,-0.6730,-0.1205,0.0772,-0.1177,0.8107,
4.768845,0.5768,0.8262,-0.1984,1.4601,-0.6730,-0.1205,0.0772,-0.1177,0.8107,
4.771131,0.5768,0.8262,-0.1984,2.1556,-0.9348,-0.4064,0.0772,-0.1177,0.8107,
4.772878,0.5768,0.8262,-0.1984,2.1556,-0.9348,-0.4064,0.2754,-0.1465,0.5545,
4.787837,0.5768,0.8262,-0.1984,2.1556,-0.9348,-0.4064,0.2929,-0.1385,0.3388,
4.807979,0.2829,0.9267,-0.2910,2.1556,-0.9348,-0.4064,0.2929,-0.1385,0.3388,
4.810979,0.2829,0.9267,-0.2910,-0.8806,0.1385,-1.1625,0.2929,-0.1385,0.3388,
4.813277,0.2829,0.9267,-0.2910,-0.8806,0.1385,-1.1625,0.1262,0.0724,0.3324,
4.827247,0.2829,0.9267,-0.2910,-0.8806,0.1385,-1.1625,-0.0522,0.1081,0.2754,
4.847835,0.3139,0.8646,-0.1542,-0.8806,0.1385,-1.1625,-0.0522,0.1081,0.2754,
4.850582,0.3139,0.8646,-0.1542,-0.6860,-0.4221,0.1889,-0.0522,0.1081,0.2754,
4.852508,0.3139,0.8646,-0.1542,-0.6860,-0.4221,0.1889,-0.1364,0.0229,0.2162,
4.869926,0.3139,0.8646,-0.1542,-0.6860,-0.4221,0.1889,-0.0740,0.0011,0.2477,
4.887741,0.4671,0.9186,-0.2018,-0.6860,-0.4221,0.1889,-0.0740,0.0011,0.2477,
4.890114,0.4671,0.9186,-0.2018,0.7285,0.1393,-0.3034,-0.0740,0.0011,0.2477,
4.891737,0.4671,0.9186,-0.2018,0.7285,0.1393,-0.3034,0.0415,0.0208,0.2866,
4.907704,0.4671,0.9186,-0.2018,0.7285,0.1393,-0.3034,0.1150,-0.0202,0.2642,
4.927368,0.4918,0.8424,-0.2919,0.7285,0.1393,-0.3034,0.1150,-0.0202,0.2642,
4.930744,0.4918,0.8424,-0.2919,0.5282,-0.2410,-0.5012,0.1150,-0.0202,0.2642,
4.932982,0.4918,0.8424,-0.2919,0.5282,-0.2410,-0.5012,0.1348,-0.1497,0.2088,
4.947182,0.4918,0.8424,-0.2919,0.5282,-0.2410,-0.5012,0.0740,-0.1214,0.1161,
4.967862,0.4060,0.8389,-0.2626,0.5282,-0.2410,-0.5012,0.0740,-0.1214,0.1161,
4.971406,0.4060,0.8389,-0.2626,-0.2690,-0.2655,-0.1057,0.0740,-0.1214,0.1161,
4.973687,0.4060,0.8389,-0.2626,-0.2690,-0.2655,-0.1057,-0.0005,-0.0511,0.0660,
4.988124,0.4060,0.8389,-0.2626,-0.2690,-0.2655,-0.1057,-0.0650,-0.0224,0.0405,
5.007747,0.4256,0.8272,-0.2651,-0.2690,-0.2655,-0.1057,-0.0650,-0.0224,0.0405,
5.010508,0.4256,0.8272,-0.2651,-0.0898,-0.3590,-0.0778,-0.0650,-0.0224,0.0405,
5.012438,0.4256,0.8272,-0.2651,-0.0898,-0.3590,-0.0778,-0.1028,0.1193,0.0091,
5.027618,0.4256,0.8272,-0.2651,-0.0898,-0.3590,-0.0778,-0.0730,0.3111,-0.0783,
5.047503,0.3635,0.8153,-0.2465,-0.0898,-0.3590,-0.0778,-0.0730,0.3111,-0.0783,
5.050427,0.3635,0.8153,-0.2465,-0.7049,-0.4917,0.0398,-0.0730,0.3111,-0.0783,
5.052396,0.3635,0.8153,-0.2465,-0.7049,-0.4917,0.0398,0.0495,0.3244,-0.1944,
5.071664,0.3635,0.8153,-0.2465,-0.7049,-0.4917,0.0398,0.1875,0.3025,-0.3057,
5.088053,0.3479,0.8746,-0.2912,-0.7049,-0.4917,0.0398,0.1875,0.3025,-0.3057,
5.091393,0.3479,0.8746,-0.2912,-0.7932,0.0563,-0.4035,0.1875,0.3025,-0.3057,
5.093538,0.3479,0.8746,-0.2912,-0.7932,0.0563,-0.4035,0.2961,0.3542,-0.3963,
5.107001,0.3479,0.8746,-0.2912,-0.7932,0.0563,-0.4035,0.3659,0.3574,-0.4980,
5.127448,0.3022,0.9169,-0.2739,-0.7932,0.0563,-0.4035,0.3659,0.3574,-0.4980,
5.129847,0.3022,0.9169,-0.2739,-1.1031,0.4214,-0.1729,0.3659,0.3574,-0.4980,
5.131566,0.3022,0.9169,-0.2739,-1.1031,0.4214,-0.1729,0.3297,0.2152,-0.5736,
5.147115,0.3022,0.9169,-0.2739,-1.1031,0.4214,-0.1729,0.2104,0.1390,-0.5689,
5.167088,0.3447,0.8893,-0.2402,-1.1031,0.4214,-0.1729,0.2104,0.1390,-0.5689,
5.169500,0.3447,0.8893,-0.2402,-0.4940,0.0811,0.2221,0.2104,0.1390,-0.5689,
5.171157,0.3447,0.8893,-0.2402,-0.4940,0.0811,0.2221,0.0969,0.2759,-0.5300,
5.187211,0.3447,0.8893,-0.2402,-0.4940,0.0811,0.2221,0.0740,0.4043,-0.5454,
5.208224,0.3897,0.9161,-0.2287,-0.4940,0.0811,0.2221,0.0740,0.4043,-0.5454,
5.211157,0.3897,0.9161,-0.2287,0.1018,0.2689,0.3089,0.0740,0.4043,-0.5454,
5.212651,0.3897,0.9161,-0.2287,0.1018,0.2689,0.3089,0.1688,0.4554,-0.6029,
5.227382,0.3897,0.9161,-0.2287,0.1018,0.2689,0.3089,0.3196,0.4847,-0.6722,
5.247730,0.3054,0.9186,-0.2795,0.1018,0.2689,0.3089,0.3196,0.4847,-0.6722,
5.250685,0.3054,0.9186,-0.2795,-0.5430,0.2226,-0.1725,0.3196,0.4847,-0.6722,
5.252584,0.3054,0.9186,-0.2795,-0.5430,0.2226,-0.1725,0.4868,0.4911,-0.7127,
5.270033,0.3054,0.9186,-0.2795,-0.5430,0.2226,-0.1725,0.5886,0.5278,-0.7622,
5.287189,0.2150,0.9264,-0.3093,-0.5430,0.2226,-0.1725,0.5886,0.5278,-0.7622,
5.289507,0.2150,0.9264,-0.3093,-1.2025,0.2477,-0.3423,0.5886,0.5278,-0.7622,
5.291199,0.2150,0.9264,-0.3093,-1.2025,0.2477,-0.3423,0.6477,0.6024,-0.8304,
5.307347,0.2150,0.9264,-0.3093,-1.2025,0.2477,-0.3423,0.6658,0.6972,-0.9348,
5.326728,0.1160,1.0019,-0.3218,-1.2025,0.2477,-0.3423,0.6658,0.6972,-0.9348,
5.329488,0.1160,1.0019,-0.3218,-1.8996,0.9369,-0.3134,0.6658,0.6972,-0.9348,
5.331158,0.1160,1.0019,-0.3218,-1.8996,0.9369,-0.3134,0.6839,0.8586,-1.0727,
5.346456,0.1160,1.0019,-0.3218,-1.8996,0.9369,-0.3134,0.6919,0.9800,-1.1840,
5.367203,0.0899,1.0618,-0.2937,-1.8996,0.9369,-0.3134,0.6919,0.9800,-1.1840,
5.371246,0.0899,1.0618,-0.2937,-1.8385,1.4651,0.0970,0.6919,0.9800,-1.1840,
5.373627,0.0899,1.0618,-0.2937,-1.8385,1.4651,0.0970,0.6205,1.0163,-1.2432,
5.388699,0.0899,1.0618,-0.2937,-1.8385,1.4651,0.0970,0.5310,1.1505,-1.2416,
5.407287,0.2384,0.9804,-0.2067,-1.8385,1.4651,0.0970,0.5310,1.1505,-1.2416,
5.410758,0.2384,0.9804,-0.2067,-0.0556,0.6018,1.0302,0.5310,1.1505,-1.2416,
5.413169,0.2384,0.9804,-0.2067,-0.0556,0.6018,1.0302,0.5172,1.2741,-1.2267,
5.427199,0.2384,0.9804,-0.2067,-0.0556,0.6018,1.0302,0.5848,1.5153,-1.2016,
5.447100,0.2458,0.9118,-0.2421,-0.0556,0.6018,1.0302,0.5848,1.5153,-1.2016,
5.449427,0.2458,0.9118,-0.2421,0.2828,-0.1208,0.7323,0.5848,1.5153,-1.2016,
5.450970,0.2458,0.9118,-0.2421,0.2828,-0.1208,0.7323,0.6317,1.5670,-1.1137,
5.466910,0.2458,0.9118,-0.2421,0.2828,-0.1208,0.7323,0.6301,1.5494,-1.0008,
5.486641,0.2013,0.8905,-0.3398,0.2828,-0.1208,0.7323,0.6301,1.5494,-1.0008,
5.488953,0.2013,0.8905,-0.3398,0.0285,-0.3390,-0.1366,0.6301,1.5494,-1.0008,
5.490793,0.2013,0.8905,-0.3398,0.0285,-0.3390,-0.1366,0.5864,1.4525,-0.9007,
5.507393,0.2013,0.8905,-0.3398,0.0285,-0.3390,-0.1366,0.5167,1.3268,-0.8176,
5.527215,0.1280,0.8822,-0.3474,0.0285,-0.3390,-0.1366,0.5167,1.3268,-0.8176,
5.529620,0.1280,0.8822,-0.3474,-0.5578,-0.4143,-0.1173,0.5167,1.3268,-0.8176,
5.531634,0.1280,0.8822,-0.3474,-0.5578,-0.4143,-0.1173,0.4123,1.2666,-0.7558,
5.546682,0.1280,0.8822,-0.3474,-0.5578,-0.4143,-0.1173,0.2748,1.2831,-0.7031,
5.567130,0.0779,0.9242,-0.3352,-0.5578,-0.4143,-0.1173,0.2748,1.2831,-0.7031,
5.569690,0.0779,0.9242,-0.3352,-0.9411,-0.0117,0.0344,0.2748,1.2831,-0.7031,
5.571473,0.0779,0.9242,-0.3352,-0.9411,-0.0117,0.0344,0.1310,1.3236,-0.6658,
5.586814,0.0779,0.9242,-0.3352,-0.9411,-0.0117,0.0344,0.0346,1.3337,-0.6322,
5.606406,0.0787,0.9369,-0.3469,-0.9411,-0.0117,0.0344,0.0346,1.3337,-0.6322,
5.608793,0.0787,0.9369,-0.3469,-0.8537,0.0774,-0.1375,0.0346,1.3337,-0.6322,
5.610692,0.0787,0.9369,-0.3469,-0.8537,0.0774,-0.1375,-0.0357,1.3795,-0.6354,
5.626368,0.0787,0.9369,-0.3469,-0.8537,0.0774,-0.1375,-0.0921,1.4674,-0.6392,
5.646963,0.0364,0.9105,-0.3699,-0.8537,0.0774,-0.1375,-0.0921,1.4674,-0.6392,
5.650113,0.0364,0.9105,-0.3699,-1.1910,-0.2306,-0.4653,-0.0921,1.4674,-0.6392,
5.652356,0.0364,0.9105,-0.3699,-1.1910,-0.2306,-0.4653,-0.1246,1.3939,-0.6397,
5.672092,0.0364,0.9105,-0.3699,-1.1910,-0.2306,-0.4653,-0.0964,1.2884,-0.6296,
5.687468,0.0257,0.9797,-0.4378,-1.1910,-0.2306,-0.4653,-0.0964,1.2884,-0.6296,
5.690259,0.0257,0.9797,-0.4378,-0.2822,0.5399,-0.5773,-0.0964,1.2884,-0.6296,
5.692126,0.0257,0.9797,-0.4378,-0.2822,0.5399,-0.5773,0.0021,1.2442,-0.6631,
5.706533,0.0257,0.9797,-0.4378,-0.2822,0.5399,-0.5773,0.1390,1.2016,-0.7526,
5.726208,-0.0225,0.9215,-0.4495,-0.2822,0.5399,-0.5773,0.1390,1.2016,-0.7526,
5.728573,-0.0225,0.9215,-0.4495,-0.4322,0.0662,-0.4356,0.1390,1.2016,-0.7526,
5.730449,-0.0225,0.9215,-0.4495,-0.4322,0.0662,-0.4356,0.2232,1.0211,-0.9081,
5.746180,-0.0225,0.9215,-0.4495,-0.4322,0.0662,-0.4356,0.1784,0.6882,-1.0243,
5.766599,-0.0914,0.7620,-0.3726,-0.4322,0.0662,-0.4356,0.1784,0.6882,-1.0243,
5.770490,-0.0914,0.7620,-0.3726,-0.8942,-1.4691,0.3870,0.1784,0.6882,-1.0243,
5.772745,-0.0914,0.7620,-0.3726,-0.8942,-1.4691,0.3870,-0.0586,0.2684,-0.9934,
5.788188,-0.0914,0.7620,-0.3726,-0.8942,-1.4691,0.3870,-0.3372,-0.2019,-0.7468,
5.806782,-0.0159,1.2174,-0.2228,-0.8942,-1.4691,0.3870,-0.3372,-0.2019,-0.7468,
5.809178,-0.0159,1.2174,-0.2228,0.1495,2.9606,1.7690,-0.3372,-0.2019,-0.7468,
5.810757,-0.0159,1.2174,-0.2228,0.1495,2.9606,1.7690,-0.9923,-0.8996,-0.1172,
5.825984,-0.0159,1.2174,-0.2228,0.1495,2.9606,1.7690,-1.1191,-1.5207,0.1246,
5.847314,0.2846,1.4947,-0.0503,0.1495,2.9606,1.7690,-1.1191,-1.5207,0.1246,
5.850468,0.2846,1.4947,-0.0503,3.2733,5.5195,3.0580,-1.1191,-1.5207,0.1246,
5.852154,0.2846,1.4947,-0.0503,3.2733,5.5195,3.0580,-0.3159,-0.4208,0.2770,
5.867254,0.2846,1.4947,-0.0503,3.2733,5.5195,3.0580,0.0746,0.4432,0.0991,
5.886152,0.2055,0.8091,-0.1395,3.2733,5.5195,3.0580,0.0746,0.4432,0.0991,
5.888255,0.2055,0.8091,-0.1395,2.4071,-1.2278,2.1197,0.0746,0.4432,0.0991,
5.890016,0.2055,0.8091,-0.1395,2.4071,-1.2278,2.1197,0.2578,0.7681,-0.1566,
5.906154,0.2055,0.8091,-0.1395,2.4071,-1.2278,2.1197,-0.0591,0.5342,-0.4181,
5.925561,0.0059,0.9682,-0.2177,2.4071,-1.2278,2.1197,-0.0591,0.5342,-0.4181,
5.927582,0.0059,0.9682,-0.2177,0.4308,0.3311,1.3565,-0.0591,0.5342,-0.4181,
5.929225,0.0059,0.9682,-0.2177,0.4308,0.3311,1.3565,-0.9966,-0.0021,-0.4772,
5.946123,0.0059,0.9682,-0.2177,0.4308,0.3311,1.3565,-1.8173,-0.3792,-0.4629,
5.966158,-0.0095,1.0385,0.0039,0.4308,0.3311,1.3565,-1.8173,-0.3792,-0.4629,
5.968178,-0.0095,1.0385,0.0039,0.4487,0.8296,2.9518,-1.8173,-0.3792,-0.4629,
5.969673,-0.0095,1.0385,0.0039,0.4487,0.8296,2.9518,-2.1731,-0.3712,-0.4059,
5.985943,-0.0095,1.0385,0.0039,0.4487,0.8296,2.9518,-1.9425,0.1880,-0.2871,
6.006368,0.0335,1.0293,0.1994,0.4487,0.8296,2.9518,-1.9425,0.1880,-0.2871,
6.008872,0.0335,1.0293,0.1994,0.9834,0.5239,4.0256,-1.9425,0.1880,-0.2871,
6.010437,0.0335,1.0293,0.1994,0.9834,0.5239,4.0256,-1.1675,1.0264,-0.2285,
6.026468,0.0335,1.0293,0.1994,0.9834,0.5239,4.0256,-0.7340,1.1590,-0.3638,
6.046073,0.0332,0.9235,0.0611,0.9834,0.5239,4.0256,-0.7340,1.1590,-0.3638,
6.048916,0.0332,0.9235,0.0611,0.9779,-0.5918,2.2656,-0.7340,1.1590,-0.3638,
6.050752,0.0332,0.9235,0.0611,0.9779,-0.5918,2.2656,-0.8288,0.8181,-0.6045,
6.065801,0.0332,0.9235,0.0611,0.9779,-0.5918,2.2656,-0.9113,0.5055,-0.7739,
6.086261,-0.0762,0.9118,0.0420,0.9779,-0.5918,2.2656,-0.9113,0.5055,-0.7739,
6.089240,-0.0762,0.9118,0.0420,0.1151,-0.7447,1.7263,-0.9113,0.5055,-0.7739,
6.091682,-0.0762,0.9118,0.0420,0.1151,-0.7447,1.7263,-0.8272,0.4442,-0.7926,
6.105800,-0.0762,0.9118,0.0420,0.1151,-0.7447,1.7263,-0.6120,0.6253,-0.7697,
6.125631,-0.1268,0.9526,0.0318,0.1151,-0.7447,1.7263,-0.6120,0.6253,-0.7697,
6.127964,-0.1268,0.9526,0.0318,-0.1140,-0.3522,1.3382,-0.6120,0.6253,-0.7697,
6.129761,-0.1268,0.9526,0.0318,-0.1140,-0.3522,1.3382,-0.3883,0.8511,-0.7872,
6.146176,-0.1268,0.9526,0.0318,-0.1140,-0.3522,1.3382,-0.3111,0.8256,-0.7862,
6.166210,-0.2191,0.9767,-0.0220,-0.1140,-0.3522,1.3382,-0.3111,0.8256,-0.7862,
6.169973,-0.2191,0.9767,-0.0220,-0.7503,-0.0923,0.6890,-0.3111,0.8256,-0.7862,
6.171838,-0.2191,0.9767,-0.0220,-0.7503,-0.0923,0.6890,-0.3478,0.6743,-0.7542,
6.184946,-0.2191,0.9767,-0.0220,-0.7503,-0.0923,0.6890,-0.4256,0.6418,-0.6557,
6.205073,-0.3491,0.9643,-0.0794,-0.7503,-0.0923,0.6890,-0.4256,0.6418,-0.6557,
6.207311,-0.3491,0.9643,-0.0794,-1.7543,-0.1827,-0.0010,-0.4256,0.6418,-0.6557,
6.209199,-0.3491,0.9643,-0.0794,-1.7543,-0.1827,-0.0010,-0.5273,0.7382,-0.4826,
6.225289,-0.3491,0.9643,-0.0794,-1.7543,-0.1827,-0.0010,-0.6903,0.8874,-0.2525,
6.245099,-0.4341,0.9411,-0.0862,-1.7543,-0.1827,-0.0010,-0.6903,0.8874,-0.2525,
6.247485,-0.4341,0.9411,-0.0862,-2.4193,-0.3925,-0.2487,-0.6903,0.8874,-0.2525,
6.249389,-0.4341,0.9411,-0.0862,-2.4193,-0.3925,-0.2487,-0.8442,1.0637,0.0213,
6.265871,-0.4341,0.9411,-0.0862,-2.4193,-0.3925,-0.2487,-0.9007,1.2938,0.2280,
6.286039,-0.3933,0.9362,-0.0491,-2.4193,-0.3925,-0.2487,-0.9007,1.2938,0.2280,
6.288451,-0.3933,0.9362,-0.0491,-2.0293,-0.4543,-0.1294,-0.9007,1.2938,0.2280,
6.290330,-0.3933,0.9362,-0.0491,-2.0293,-0.4543,-0.1294,-0.8501,1.5414,0.3116,
6.305983,-0.3933,0.9362,-0.0491,-2.0293,-0.4543,-0.1294,-0.6908,1.7167,0.3510,
6.325843,-0.3987,0.9565,0.0200,-2.0293,-0.4543,-0.1294,-0.6908,1.7167,0.3510,
6.328279,-0.3987,0.9565,0.0200,-2.1642,-0.2757,0.3664,-0.6908,1.7167,0.3510,
6.330087,-0.3987,0.9565,0.0200,-2.1642,-0.2757,0.3664,-0.5007,1.7758,0.3792,
6.345655,-0.3987,0.9565,0.0200,-2.1642,-0.2757,0.3664,-0.2882,1.6762,0.3888,
6.365991,-0.4114,0.9376,0.0806,-2.1642,-0.2757,0.3664,-0.2882,1.6762,0.3888,
6.368451,-0.4114,0.9376,0.0806,-2.3775,-0.4764,0.9117,-0.2882,1.6762,0.3888,
6.370298,-0.4114,0.9376,0.0806,-2.3775,-0.4764,0.9117,-0.0629,1.4919,0.3904,
6.387292,-0.4114,0.9376,0.0806,-2.3775,-0.4764,0.9117,0.1603,1.3156,0.3643,
6.405302,-0.4520,0.9616,0.0919,-2.3775,-0.4764,0.9117,0.1603,1.3156,0.3643,
6.407599,-0.4520,0.9616,0.0919,-2.8750,-0.2568,1.1132,0.1603,1.3156,0.3643,
6.409533,-0.4520,0.9616,0.0919,-2.8750,-0.2568,1.1132,0.3105,1.1324,0.2823,
6.425299,-0.4520,0.9616,0.0919,-2.8750,-0.2568,1.1132,0.3340,0.9976,0.2280,
6.445695,-0.4351,1.0278,0.1449,-2.8750,-0.2568,1.1132,0.3340,0.9976,0.2280,
6.449382,-0.4351,1.0278,0.1449,-2.8003,0.3835,1.8107,0.3340,0.9976,0.2280,
6.451158,-0.4351,1.0278,0.1449,-2.8003,0.3835,1.8107,0.3297,0.7334,0.0852,
6.465533,-0.4351,1.0278,0.1449,-2.8003,0.3835,1.8107,0.3723,0.2194,-0.0133,
6.486342,-0.3682,1.2127,0.3076,-2.8003,0.3835,1.8107,0.3723,0.2194,-0.0133,
6.488537,-0.3682,1.2127,0.3076,-2.1669,2.2005,3.5687,0.3723,0.2194,-0.0133,
6.490223,-0.3682,1.2127,0.3076,-2.1669,2.2005,3.5687,0.5193,-0.5273,-0.0453,
6.505607,-0.3682,1.2127,0.3076,-2.1669,2.2005,3.5687,0.8709,-1.3827,-0.1704,
6.525380,-0.1642,0.9990,0.3301,-2.1669,2.2005,3.5687,0.8709,-1.3827,-0.1704,
6.529103,-0.1642,0.9990,0.3301,-0.1003,0.1303,4.0013,0.8709,-1.3827,-0.1704,
6.530671,-0.1642,0.9990,0.3301,-0.1003,0.1303,4.0013,1.1622,-1.9473,-0.3558,
6.545621,-0.1642,0.9990,0.3301,-0.1003,0.1303,4.0013,1.0285,-2.2749,-0.4394,
6.566521,-0.0540,1.0706,0.0994,-0.1003,0.1303,4.0013,1.0285,-2.2749,-0.4394,
6.568803,-0.0540,1.0706,0.0994,1.2106,0.8966,2.0156,1.0285,-2.2749,-0.4394,
6.570352,-0.0540,1.0706,0.0994,1.2106,0.8966,2.0156,0.4107,-2.3457,-0.3750,
6.585365,-0.0540,1.0706,0.0994,1.2106,0.8966,2.0156,-0.3057,-2.2541,-0.2221,
6.605384,0.1954,1.0564,0.1774,1.2106,0.8966,2.0156,-0.3057,-2.2541,-0.2221,
6.607527,0.1954,1.0564,0.1774,3.8469,0.7773,2.6072,-0.3057,-2.2541,-0.2221,
6.609116,0.1954,1.0564,0.1774,3.8469,0.7773,2.6072,-0.7686,-1.8216,-0.1555,
6.625593,0.1954,1.0564,0.1774,3.8469,0.7773,2.6072,-0.8485,-0.9555,-0.1678,
6.645668,0.2533,0.9899,0.1424,3.8469,0.7773,2.6072,-0.8485,-0.9555,-0.1678,
6.649260,0.2533,0.9899,0.1424,4.4719,0.1077,1.8157,-0.8485,-0.9555,-0.1678,
6.650981,0.2533,0.9899,0.1424,4.4719,0.1077,1.8157,-0.6962,0.2301,-0.1427,
6.668310,0.2533,0.9899,0.1424,4.4719,0.1077,1.8157,-0.4160,1.4077,-0.0469,
6.684583,0.1771,0.7972,0.0452,4.4719,0.1077,1.8157,-0.4160,1.4077,-0.0469,
6.686534,0.1771,0.7972,0.0452,3.7138,-1.7894,0.6989,-0.4160,1.4077,-0.0469,
6.688367,0.1771,0.7972,0.0452,3.7138,-1.7894,0.6989,-0.1369,2.2067,0.0245,
6.705044,0.1771,0.7972,0.0452,3.7138,-1.7894,0.6989,-0.0064,2.4000,0.1278,
6.725615,0.0572,0.8563,0.0330,3.7138,-1.7894,0.6989,-0.0064,2.4000,0.1278,
6.728746,0.0572,0.8563,0.0330,2.4739,-1.2179,0.7294,-0.0064,2.4000,0.1278,
6.730557,0.0572,0.8563,0.0330,2.4739,-1.2179,0.7294,0.1262,2.4315,0.0788,
6.745119,0.0572,0.8563,0.0330,2.4739,-1.2179,0.7294,0.6583,3.1447,-0.3393,
6.765357,-0.2675,0.9311,-0.0159,2.4739,-1.2179,0.7294,0.6583,3.1447,-0.3393,
6.768936,-0.2675,0.9311,-0.0159,-0.7281,-0.4677,0.6051,0.6583,3.1447,-0.3393,
6.770991,-0.2675,0.9311,-0.0159,-0.7281,-0.4677,0.6051,1.0381,3.4158,-0.3052,
6.787814,-0.2675,0.9311,-0.0159,-0.7281,-0.4677,0.6051,0.9294,2.7377,-0.0405,
6.805169,-0.1896,0.8871,-0.1031,-0.7281,-0.4677,0.6051,0.9294,2.7377,-0.0405,
6.807290,-0.1896,0.8871,-0.1031,-0.0304,-0.8445,0.3532,0.9294,2.7377,-0.0405,
6.809202,-0.1896,0.8871,-0.1031,-0.0304,-0.8445,0.3532,0.5747,1.7332,0.0613,
6.825574,-0.1896,0.8871,-0.1031,-0.0304,-0.8445,0.3532,0.2402,0.7995,0.0256,
6.845141,-0.1317,0.8331,-0.1134,-0.0304,-0.8445,0.3532,0.2402,0.7995,0.0256,
6.847495,-0.1317,0.8331,-0.1134,0.4453,-1.3526,0.4978,0.2402,0.7995,0.0256,
6.849227,-0.1317,0.8331,-0.1134,0.4453,-1.3526,0.4978,-0.0874,0.2056,-0.0240,
6.864986,-0.1317,0.8331,-0.1134,0.4453,-1.3526,0.4978,-0.3989,0.1268,-0.1039,
6.885440,-0.0906,0.8233,-0.1300,0.4453,-1.3526,0.4978,-0.3989,0.1268,-0.1039,
6.887653,-0.0906,0.8233,-0.1300,0.8613,-1.4591,0.2541,-0.3989,0.1268,-0.1039,
6.889424,-0.0906,0.8233,-0.1300,0.8613,-1.4591,0.2541,-0.6701,0.3819,-0.2210,
6.905709,-0.0906,0.8233,-0.1300,0.8613,-1.4591,0.2541,-0.8772,0.6791,-0.2434,
6.924935,-0.1405,1.0048,-0.0838,0.8613,-1.4591,0.2541,-0.8772,0.6791,-0.2434,
6.927074,-0.1405,1.0048,-0.0838,0.4260,0.2914,0.4457,-0.8772,0.6791,-0.2434,
6.928695,-0.1405,1.0048,-0.0838,0.4260,0.2914,0.4457,-0.9417,0.9545,-0.1694,
6.945081,-0.1405,1.0048,-0.0838,0.4260,0.2914,0.4457,-0.6967,1.4908,-0.2109,
6.965326,-0.2336,1.1060,-0.0428,0.4260,0.2914,0.4457,-0.6967,1.4908,-0.2109,
6.967436,-0.2336,1.1060,-0.0428,-0.4744,1.2563,0.6102,-0.6967,1.4908,-0.2109,
6.969721,-0.2336,1.1060,-0.0428,-0.4744,1.2563,0.6102,-0.1539,2.0996,-0.3308,
6.986699,-0.2336,1.1060,-0.0428,-0.4744,1.2563,0.6102,0.1550,2.0405,-0.2157,
7.005006,-0.3381,1.2125,-0.1026,-0.4744,1.2563,0.6102,0.1550,2.0405,-0.2157,
7.007962,-0.3381,1.2125,-0.1026,-1.4848,2.3204,0.1749,0.1550,2.0405,-0.2157,
7.009631,-0.3381,1.2125,-0.1026,-1.4848,2.3204,0.1749,0.5848,2.2770,-0.1875,
7.024439,-0.3381,1.2125,-0.1026,-1.4848,2.3204,0.1749,1.1281,2.6040,-0.4208,
7.044322,-0.4068,1.1903,-0.3310,-1.4848,2.3204,0.1749,1.1281,2.6040,-0.4208,
7.046559,-0.4068,1.1903,-0.3310,-2.1795,2.1739,-1.5612,1.1281,2.6040,-0.4208,
7.048400,-0.4068,1.1903,-0.3310,-2.1795,2.1739,-1.5612,1.4749,2.7100,-0.7462,
7.064238,-0.4068,1.1903,-0.3310,-2.1795,2.1739,-1.5612,0.9454,1.4466,-0.5832,
7.086110,-0.3083,1.0258,-0.3222,-2.1795,2.1739,-1.5612,0.9454,1.4466,-0.5832,
7.089465,-0.3083,1.0258,-0.3222,-1.1287,0.7078,-0.8665,0.9454,1.4466,-0.5832,
7.091218,-0.3083,1.0258,-0.3222,-1.1287,0.7078,-0.8665,-0.6887,-1.1068,-0.2131,
7.104580,-0.3083,1.0258,-0.3222,-1.1287,0.7078,-0.8665,-2.0149,-3.0749,0.1342,
7.124110,-0.0406,1.0659,0.3222,-1.1287,0.7078,-0.8665,-2.0149,-3.0749,0.1342,
7.126398,-0.0406,1.0659,0.3222,1.6729,0.9970,4.7709,-2.0149,-3.0749,0.1342,
7.128022,-0.0406,1.0659,0.3222,1.6729,0.9970,4.7709,-2.1305,-3.4813,0.3830,
7.144146,-0.0406,1.0659,0.3222,1.6729,0.9970,4.7709,-0.3989,-1.1659,0.4341,
7.164384,-0.0235,0.9689,0.3801,1.6729,0.9970,4.7709,-0.3989,-1.1659,0.4341,
7.167294,-0.0235,0.9689,0.3801,1.7864,-0.0598,4.6218,-0.3989,-1.1659,0.4341,
7.169317,-0.0235,0.9689,0.3801,1.7864,-0.0598,4.6218,0.9625,-0.2423,0.1129,
7.184271,-0.0235,0.9689,0.3801,1.7864,-0.0598,4.6218,0.4591,-0.9955,0.0165,
7.203830,-0.2724,1.0146,0.3007,1.7864,-0.0598,4.6218,0.4591,-0.9955,0.0165,
7.206090,-0.2724,1.0146,0.3007,-0.6537,0.4072,4.0302,0.4591,-0.9955,0.0165,
7.207726,-0.2724,1.0146,0.3007,-0.6537,0.4072,4.0302,-0.3356,-0.7430,-0.0282,
7.223853,-0.2724,1.0146,0.3007,-0.6537,0.4072,4.0302,-0.6099,0.1901,0.0133,
7.244264,-0.3899,1.0285,0.3914,-0.6537,0.4072,4.0302,-0.6099,0.1901,0.0133,
7.247048,-0.3899,1.0285,0.3914,-1.7906,0.5259,4.7159,-0.6099,0.1901,0.0133,
7.248638,-0.3899,1.0285,0.3914,-1.7906,0.5259,4.7159,-0.4980,0.9998,0.1358,
7.264225,-0.3899,1.0285,0.3914,-1.7906,0.5259,4.7159,-0.2274,1.1595,0.1758,
7.284044,-0.2218,0.8140,0.1546,-1.7906,0.5259,4.7159,-0.2274,1.1595,0.1758,
7.286056,-0.2218,0.8140,0.1546,-0.2206,-1.6043,2.2535,-0.2274,1.1595,0.1758,
7.287858,-0.2218,0.8140,0.1546,-0.2206,-1.6043,2.2535,-0.1103,0.9183,0.0495,
7.304228,-0.2218,0.8140,0.1546,-0.2206,-1.6043,2.2535,-0.1507,0.6157,0.0016,
7.324236,-0.1764,0.7664,-0.0173,-0.2206,-1.6043,2.2535,-0.1507,0.6157,0.0016,
7.326515,-0.1764,0.7664,-0.0173,0.1920,-2.0770,0.5773,-0.1507,0.6157,0.0016,
7.328373,-0.1764,0.7664,-0.0173,0.1920,-2.0770,0.5773,-0.3441,0.4421,0.0144,
7.344204,-0.1764,0.7664,-0.0173,0.1920,-2.0770,0.5773,-0.5539,0.3281,0.0176,
7.365134,-0.1529,0.7847,0.0237,0.1920,-2.0770,0.5773,-0.5539,0.3281,0.0176,
7.369359,-0.1529,0.7847,0.0237,0.4051,-1.9109,0.8370,-0.5539,0.3281,0.0176,
7.371038,-0.1529,0.7847,0.0237,0.4051,-1.9109,0.8370,-0.6791,0.2386,0.0144,
7.384271,-0.1529,0.7847,0.0237,0.4051,-1.9109,0.8370,-0.6807,0.1843,0.0266,
7.403958,-0.1779,0.8321,0.1202,0.4051,-1.9109,0.8370,-0.6807,0.1843,0.0266,
7.406095,-0.1779,0.8321,0.1202,0.1489,-1.4611,1.5377,-0.6807,0.1843,0.0266,
7.407803,-0.1779,0.8321,0.1202,0.1489,-1.4611,1.5377,-0.5316,0.1523,0.0336,
7.424041,-0.1779,0.8321,0.1202,0.1489,-1.4611,1.5377,-0.2818,0.0868,0.0383,
7.444388,-0.2722,0.8443,0.0738,0.1489,-1.4611,1.5377,-0.2818,0.0868,0.0383,
7.446818,-0.2722,0.8443,0.0738,-0.7905,-1.3487,0.9355,-0.2818,0.0868,0.0383,
7.448600,-0.2722,0.8443,0.0738,-0.7905,-1.3487,0.9355,0.0240,0.0032,0.1443,
7.464258,-0.2722,0.8443,0.0738,-0.7905,-1.3487,0.9355,0.2338,0.0197,0.2796,
7.484783,-0.2480,0.9176,-0.1002,-0.7905,-1.3487,0.9355,0.2338,0.0197,0.2796,
7.489398,-0.2480,0.9176,-0.1002,-0.6347,-0.6447,-0.7189,0.2338,0.0197,0.2796,
7.491493,-0.2480,0.9176,-0.1002,-0.6347,-0.6447,-0.7189,0.2131,0.1784,0.2706,
7.504833,-0.2480,0.9176,-0.1002,-0.6347,-0.6447,-0.7189,-0.0059,0.3782,0.2317,
7.524822,-0.2663,1.0407,-0.0638,-0.6347,-0.6447,-0.7189,-0.0059,0.3782,0.2317,
7.527230,-0.2663,1.0407,-0.0638,-0.8903,0.5498,-0.3056,-0.0059,0.3782,0.2317,
7.529123,-0.2663,1.0407,-0.0638,-0.8903,0.5498,-0.3056,-0.0660,0.2482,0.3057,
7.544400,-0.2663,1.0407,-0.0638,-0.8903,0.5498,-0.3056,0.0852,0.0053,0.3350,
7.563838,-0.3357,1.1727,-0.0665,-0.8903,0.5498,-0.3056,0.0852,0.0053,0.3350,
7.566314,-0.3357,1.1727,-0.0665,-1.6878,1.8229,-0.3193,0.0852,0.0053,0.3350,
7.568161,-0.3357,1.1727,-0.0665,-1.6878,1.8229,-0.3193,0.2258,-0.1534,0.2684,
7.584026,-0.3357,1.1727,-0.0665,-1.6878,1.8229,-0.3193,0.3249,-0.1774,0.1992,
7.604098,-0.4356,1.1094,-0.0711,-1.6878,1.8229,-0.3193,0.3249,-0.1774,0.1992,
7.606304,-0.4356,1.1094,-0.0711,-2.7549,1.1925,-0.2686,0.3249,-0.1774,0.1992,
7.608178,-0.4356,1.1094,-0.0711,-2.7549,1.1925,-0.2686,0.3878,-0.1257,0.1949,
7.623660,-0.4356,1.1094,-0.0711,-2.7549,1.1925,-0.2686,0.4021,-0.0069,0.1609,
7.644210,-0.4434,1.3943,-0.0230,-2.7549,1.1925,-0.2686,0.4021,-0.0069,0.1609,
7.647360,-0.4434,1.3943,-0.0230,-2.8990,3.9815,0.3518,0.4021,-0.0069,0.1609,
7.649205,-0.4434,1.3943,-0.0230,-2.8990,3.9815,0.3518,0.4016,0.1108,0.0985,
7.664175,-0.4434,1.3943,-0.0230,-2.8990,3.9815,0.3518,0.4314,-0.0826,-0.0527,
7.684496,-0.1854,0.9489,0.0577,-2.8990,3.9815,0.3518,0.4314,-0.0826,-0.0527,
7.688464,-0.1854,0.9489,0.0577,-0.3798,-0.3735,1.3038,0.4314,-0.0826,-0.0527,
7.690360,-0.1854,0.9489,0.0577,-0.3798,-0.3735,1.3038,0.4682,-0.6013,-0.1433,
7.704025,-0.1854,0.9489,0.0577,-0.3798,-0.3735,1.3038,0.4314,-1.0786,-0.2471,
7.724568,-0.1073,0.9125,0.0447,-0.3798,-0.3735,1.3038,0.4314,-1.0786,-0.2471,
7.727025,-0.1073,0.9125,0.0447,0.5015,-0.7043,1.2757,0.4314,-1.0786,-0.2471,
7.728783,-0.1073,0.9125,0.0447,0.5015,-0.7043,1.2757,0.2642,-1.4567,-0.3201,
7.743587,-0.1073,0.9125,0.0447,0.5015,-0.7043,1.2757,0.0639,-1.6655,-0.2924,
7.764386,-0.0633,1.1597,0.2250,0.5015,-0.7043,1.2757,0.0639,-1.6655,-0.2924,
7.766665,-0.0633,1.1597,0.2250,1.1013,1.7436,2.9994,0.0639,-1.6655,-0.2924,
7.768410,-0.0633,1.1597,0.2250,1.1013,1.7436,2.9994,-0.0314,-1.5947,-0.2264,
7.784490,-0.0633,1.1597,0.2250,1.1013,1.7436,2.9994,0.0911,-1.3396,-0.1880,
7.803633,0.0518,1.0043,0.2724,1.1013,1.7436,2.9994,0.0911,-1.3396,-0.1880,
7.805649,0.0518,1.0043,0.2724,2.3362,0.2313,3.3399,0.0911,-1.3396,-0.1880,
7.807219,0.0518,1.0043,0.2724,2.3362,0.2313,3.3399,0.3308,-1.0812,-0.1582,
7.823407,0.0518,1.0043,0.2724,2.3362,0.2313,3.3399,0.4634,-0.5800,-0.0570,
7.843494,0.0376,0.7796,0.0452,2.3362,0.2313,3.3399,0.4634,-0.5800,-0.0570,
7.845536,0.0376,0.7796,0.0452,2.2384,-1.9590,1.1748,0.4634,-0.5800,-0.0570,
7.847217,0.0376,0.7796,0.0452,2.2384,-1.9590,1.1748,0.4133,0.0831,0.0613,
7.863372,0.0376,0.7796,0.0452,2.2384,-1.9590,1.1748,0.2434,0.5774,0.1300,
7.884001,-0.0164,0.7627,0.0198,2.2384,-1.9590,1.1748,0.2434,0.5774,0.1300,
7.886137,-0.0164,0.7627,0.0198,1.6615,-2.1208,1.0760,0.2434,0.5774,0.1300,
7.887812,-0.0164,0.7627,0.0198,1.6615,-2.1208,1.0760,0.1119,0.9001,0.0804,
7.903619,-0.0164,0.7627,0.0198,1.6615,-2.1208,1.0760,0.2935,1.4743,-0.0740,
7.924355,-0.2194,0.8358,0.0579,1.6615,-2.1208,1.0760,0.2935,1.4743,-0.0740,
7.926634,-0.2194,0.8358,0.0579,-0.3748,-1.3973,1.6121,0.2935,1.4743,-0.0740,
7.928644,-0.2194,0.8358,0.0579,-0.3748,-1.3973,1.6121,0.6727,1.9260,-0.1491,
7.943363,-0.2194,0.8358,0.0579,-0.3748,-1.3973,1.6121,0.6924,1.4727,0.0011,
7.963808,-0.2135,0.8951,-0.0787,-0.3748,-1.3973,1.6121,0.6924,1.4727,0.0011,
7.966174,-0.2135,0.8951,-0.0787,-0.3722,-0.7765,0.6538,0.6924,1.4727,0.0011,
7.968019,-0.2135,0.8951,-0.0787,-0.3722,-0.7765,0.6538,0.4368,0.8325,0.1012,
7.983051,-0.2135,0.8951,-0.0787,-0.3722,-0.7765,0.6538,0.1901,0.3105,0.1214,
8.003496,-0.0933,0.8221,-0.1390,-0.3722,-0.7765,0.6538,0.1901,0.3105,0.1214,
8.006125,-0.0933,0.8221,-0.1390,0.7291,-1.4810,0.2204,0.1901,0.3105,0.1214,
8.007841,-0.0933,0.8221,-0.1390,0.7291,-1.4810,0.2204,-0.0719,0.0985,0.1055,
8.023161,-0.0933,0.8221,-0.1390,0.7291,-1.4810,0.2204,-0.3286,0.2147,-0.0128,
8.044116,0.0068,0.8722,-0.2387,0.7291,-1.4810,0.2204,-0.3286,0.2147,-0.0128,
8.046622,0.0068,0.8722,-0.2387,1.6833,-1.0056,-0.8227,-0.3286,0.2147,-0.0128,
8.048358,0.0068,0.8722,-0.2387,1.6833,-1.0056,-0.8227,-0.5167,0.4479,-0.2674,
8.063564,0.0068,0.8722,-0.2387,1.6833,-1.0056,-0.8227,-0.6754,0.6770,-0.4149,
8.083799,-0.1388,1.0425,-0.2003,1.6833,-1.0056,-0.8227,-0.6754,0.6770,-0.4149,
8.086209,-0.1388,1.0425,-0.2003,0.3392,0.6503,-0.6292,-0.6754,0.6770,-0.4149,
8.087858,-0.1388,1.0425,-0.2003,0.3392,0.6503,-0.6292,-0.4794,1.2725,-0.4655,
8.103427,-0.1388,1.0425,-0.2003,0.3392,0.6503,-0.6292,0.0554,1.9265,-0.5390,
8.123334,-0.3520,1.1446,-0.2450,0.3392,0.6503,-0.6292,0.0554,1.9265,-0.5390,
8.126810,-0.3520,1.1446,-0.2450,-1.6420,1.6764,-1.0294,0.0554,1.9265,-0.5390,
8.128832,-0.3520,1.1446,-0.2450,-1.6420,1.6764,-1.0294,0.1917,1.4237,-0.4101,
8.142947,-0.3520,1.1446,-0.2450,-1.6420,1.6764,-1.0294,0.5278,1.3028,-0.2967,
8.163011,-0.4168,1.0916,-0.2770,-1.6420,1.6764,-1.0294,0.5278,1.3028,-0.2967,
8.165805,-0.4168,1.0916,-0.2770,-2.2223,1.2045,-1.1061,0.5278,1.3028,-0.2967,
8.167433,-0.4168,1.0916,-0.2770,-2.2223,1.2045,-1.1061,1.1063,1.6437,-0.4378,
8.183182,-0.4168,1.0916,-0.2770,-2.2223,1.2045,-1.1061,1.1547,1.0583,-0.5044,
8.203467,-0.3269,0.9599,-0.4332,-2.2223,1.2045,-1.1061,1.1547,1.0583,-0.5044,
8.205912,-0.3269,0.9599,-0.4332,-1.2634,0.0345,-2.1079,1.1547,1.0583,-0.5044,
8.207655,-0.3269,0.9599,-0.4332,-1.2634,0.0345,-2.1079,0.9641,0.1614,-0.4384,
8.223941,-0.3269,0.9599,-0.4332,-1.2634,0.0345,-2.1079,0.0623,-1.5723,-0.0458,
8.242996,-0.0894,1.1627,-0.0508,-1.2634,0.0345,-2.1079,0.0623,-1.5723,-0.0458,
8.245711,-0.0894,1.1627,-0.0508,1.2190,2.0867,1.7721,0.0623,-1.5723,-0.0458,
8.247182,-0.0894,1.1627,-0.0508,1.2190,2.0867,1.7721,-1.1404,-3.8456,0.3936,
8.263716,-0.0894,1.1627,-0.0508,1.2190,2.0867,1.7721,-1.4424,-4.8816,0.7068,
8.283412,0.1571,1.3334,0.3889,1.2190,2.0867,1.7721,-1.4424,-4.8816,0.7068,
8.285535,0.1571,1.3334,0.3889,3.7493,3.6174,5.2194,-1.4424,-4.8816,0.7068,
8.287115,0.1571,1.3334,0.3889,3.7493,3.6174,5.2194,-0.5033,-3.2192,0.7579,
8.303233,0.1571,1.3334,0.3889,3.7493,3.6174,5.2194,0.2200,-2.0458,0.3015,
8.323277,-0.0357,1.0776,0.4407,3.7493,3.6174,5.2194,0.2200,-2.0458,0.3015,
8.325475,-0.0357,1.0776,0.4407,1.7896,1.0569,5.4459,0.2200,-2.0458,0.3015,
8.327062,-0.0357,1.0776,0.4407,1.7896,1.0569,5.4459,0.5065,-1.3705,0.0096,
8.343531,-0.0357,1.0776,0.4407,1.7896,1.0569,5.4459,0.5257,-0.1939,-0.0964,
8.363092,-0.2228,1.0407,0.2409,1.7896,1.0569,5.4459,0.5257,-0.1939,-0.0964,
8.366025,-0.2228,1.0407,0.2409,0.0082,0.7234,3.6157,0.5257,-0.1939,-0.0964,
8.367585,-0.2228,1.0407,0.2409,0.0082,0.7234,3.6157,0.3995,0.6035,-0.2067,
8.383458,-0.2228,1.0407,0.2409,0.0082,0.7234,3.6157,0.2024,1.0072,-0.2413,
8.403533,-0.3848,0.9423,0.0843,0.0082,0.7234,3.6157,0.2024,1.0072,-0.2413,
8.405733,-0.3848,0.9423,0.0843,-1.5382,-0.2098,2.2373,0.2024,1.0072,-0.2413,
8.407550,-0.3848,0.9423,0.0843,-1.5382,-0.2098,2.2373,-0.0442,1.0573,-0.1838,
8.422756,-0.3848,0.9423,0.0843,-1.5382,-0.2098,2.2373,-0.2178,0.8304,-0.1060,
8.443125,-0.3362,0.7029,0.0191,-1.5382,-0.2098,2.2373,-0.2178,0.8304,-0.1060,
8.446552,-0.3362,0.7029,0.0191,-1.0509,-2.5535,1.5986,-0.2178,0.8304,-0.1060,
8.448487,-0.3362,0.7029,0.0191,-1.0509,-2.5535,1.5986,-0.2956,0.4128,-0.0613,
8.462908,-0.3362,0.7029,0.0191,-1.0509,-2.5535,1.5986,-0.3419,-0.0005,-0.0474,
8.483277,-0.2587,0.6481,-0.0640,-1.0509,-2.5535,1.5986,-0.3419,-0.0005,-0.0474,
8.485740,-0.2587,0.6481,-0.0640,-0.2829,-3.1023,0.6827,-0.3419,-0.0005,-0.0474,
8.487516,-0.2587,0.6481,-0.0640,-0.2829,-3.1023,0.6827,-0.3787,-0.3020,-0.0320,
8.502519,-0.2587,0.6481,-0.0640,-0.2829,-3.1023,0.6827,-0.3910,-0.4011,0.0053,
8.522564,-0.2384,0.6875,-0.0701,-0.2829,-3.1023,0.6827,-0.3910,-0.4011,0.0053,
8.525042,-0.2384,0.6875,-0.0701,-0.0621,-2.7344,0.4455,-0.3910,-0.4011,0.0053,
8.526830,-0.2384,0.6875,-0.0701,-0.0621,-2.7344,0.4455,-0.3483,-0.3595,0.0804,
8.542279,-0.2384,0.6875,-0.0701,-0.0621,-2.7344,0.4455,-0.2732,-0.2653,0.1294,
8.563110,-0.2262,0.7947,-0.1026,-0.0621,-2.7344,0.4455,-0.2732,-0.2653,0.1294,
8.566543,-0.2262,0.7947,-0.1026,0.0311,-1.7060,-0.0189,-0.2732,-0.2653,0.1294,
8.570045,-0.2262,0.7947,-0.1026,0.0311,-1.7060,-0.0189,-0.2322,-0.0996,0.1896,
8.583067,-0.2262,0.7947,-0.1026,0.0311,-1.7060,-0.0189,-0.2434,0.0463,0.2482,
8.603307,-0.2658,0.8690,-0.1204,0.0311,-1.7060,-0.0189,-0.2434,0.0463,0.2482,
8.607125,-0.2658,0.8690,-0.1204,-0.4388,-1.0064,-0.2864,-0.2434,0.0463,0.2482,
8.609312,-0.2658,0.8690,-0.1204,-0.4388,-1.0064,-0.2864,-0.2764,0.1550,0.3004,
8.622325,-0.2658,0.8690,-0.1204,-0.4388,-1.0064,-0.2864,-0.2732,0.2541,0.3249,
8.642771,-0.3020,0.9367,-0.1080,-0.4388,-1.0064,-0.2864,-0.2732,0.2541,0.3249,
8.645193,-0.3020,0.9367,-0.1080,-0.9152,-0.3779,-0.2511,-0.2732,0.2541,0.3249,
8.647025,-0.3020,0.9367,-0.1080,-0.9152,-0.3779,-0.2511,-0.2423,0.2780,0.3462,
8.663131,-0.3020,0.9367,-0.1080,-0.9152,-0.3779,-0.2511,-0.1981,0.2434,0.3510,
8.683425,-0.3362,1.1099,-0.1527,-0.9152,-0.3779,-0.2511,-0.1981,0.2434,0.3510,
8.685732,-0.3362,1.1099,-0.1527,-0.4095,1.5732,-0.3609,-0.1981,0.2434,0.3510,
8.687534,-0.3362,1.1099,-0.1527,-0.4095,1.5732,-0.3609,-0.1284,0.1859,0.3025,
8.702922,-0.3362,1.1099,-0.1527,-0.4095,1.5732,-0.3609,0.0298,0.0123,0.2051,
8.722835,-0.4451,1.1976,-0.1087,-0.4095,1.5732,-0.3609,0.0298,0.0123,0.2051,
8.725319,-0.4451,1.1976,-0.1087,-1.5762,2.4017,0.0630,0.0298,0.0123,0.2051,
8.727022,-0.4451,1.1976,-0.1087,-1.5762,2.4017,0.0630,0.2125,-0.2455,0.0905,
8.742381,-0.4451,1.1976,-0.1087,-1.5762,2.4017,0.0630,0.2818,-0.3052,0.0368,
8.762362,-0.5123,1.1524,-0.1813,-1.5762,2.4017,0.0630,0.2818,-0.3052,0.0368,
8.764687,-0.5123,1.1524,-0.1813,-2.2456,1.9632,-0.5865,0.2818,-0.3052,0.0368,
8.766489,-0.5123,1.1524,-0.1813,-2.2456,1.9632,-0.5865,0.2226,-0.1342,0.0767,
8.784359,-0.5123,1.1524,-0.1813,-2.2456,1.9632,-0.5865,0.1854,0.1688,0.0730,
8.802139,-0.3738,1.3141,-0.0186,-2.2456,1.9632,-0.5865,0.1854,0.1688,0.0730,
8.805032,-0.3738,1.3141,-0.0186,-0.9170,3.5499,1.0860,0.1854,0.1688,0.0730,
8.806939,-0.3738,1.3141,-0.0186,-0.9170,3.5499,1.0860,0.2269,0.2194,-0.0357,
8.822501,-0.3738,1.3141,-0.0186,-0.9170,3.5499,1.0860,0.2748,-0.1284,-0.1374,
8.842550,-0.1583,0.9352,0.0591,-0.9170,3.5499,1.0860,0.2748,-0.1284,-0.1374,
8.846057,-0.1583,0.9352,0.0591,1.2247,-0.1407,1.9457,0.2748,-0.1284,-0.1374,
8.847836,-0.1583,0.9352,0.0591,1.2247,-0.1407,1.9457,0.3041,-0.6200,-0.2360,
8.861524,-0.1583,0.9352,0.0591,1.2247,-0.1407,1.9457,0.2684,-1.0136,-0.3057,
8.881550,-0.0972,0.9543,0.0860,1.2247,-0.1407,1.9457,0.2684,-1.0136,-0.3057,
8.883575,-0.0972,0.9543,0.0860,1.9505,0.0822,2.1900,0.2684,-1.0136,-0.3057,
8.885048,-0.0972,0.9543,0.0860,1.9505,0.0822,2.1900,0.1406,-1.1984,-0.2951,
8.901253,-0.0972,0.9543,0.0860,1.9505,0.0822,2.1900,-0.0858,-1.1420,-0.2301,
8.921844,0.0129,1.2618,0.2448,1.9505,0.0822,2.1900,-0.0858,-1.1420,-0.2301,
8.924400,0.0129,1.2618,0.2448,3.1878,3.1293,3.6169,-0.0858,-1.1420,-0.2301,
8.925819,0.0129,1.2618,0.2448,3.1878,3.1293,3.6169,-0.2754,-0.9401,-0.2285,
8.942294,0.0129,1.2618,0.2448,3.1878,3.1293,3.6169,-0.2162,-0.8352,-0.2477,
8.963045,0.0657,1.0222,0.2038,3.1878,3.1293,3.6169,-0.2162,-0.8352,-0.2477,
8.966321,0.0657,1.0222,0.2038,3.8280,0.7974,3.0094,-0.2162,-0.8352,-0.2477,
8.968381,0.0657,1.0222,0.2038,3.8280,0.7974,3.0094,-0.0357,-0.5273,-0.1800,
8.983272,0.0657,1.0222,0.2038,3.8280,0.7974,3.0094,0.0895,0.0874,-0.0644,
9.002392,0.0064,0.7224,0.0242,3.8280,0.7974,3.0094,0.0895,0.0874,-0.0644,
9.005056,0.0064,0.7224,0.0242,3.2757,-2.1339,1.2145,0.0895,0.0874,-0.0644,
9.006758,0.0064,0.7224,0.0242,3.2757,-2.1339,1.2145,0.1891,0.6392,0.0575,
9.022240,0.0064,0.7224,0.0242,3.2757,-2.1339,1.2145,0.3925,1.1148,0.1017,
9.042034,-0.1500,0.7486,0.0156,3.2757,-2.1339,1.2145,0.3925,1.1148,0.1017,
9.045255,-0.1500,0.7486,0.0156,1.6761,-1.8752,1.3490,0.3925,1.1148,0.1017,
9.046824,-0.1500,0.7486,0.0156,1.6761,-1.8752,1.3490,0.8868,1.9659,-0.0341,
9.062519,-0.1500,0.7486,0.0156,1.6761,-1.8752,1.3490,1.1846,2.3292,0.0213,
9.082718,-0.2172,0.7632,-0.1735,1.6761,-1.8752,1.3490,1.1846,2.3292,0.0213,
9.084969,-0.2172,0.7632,-0.1735,0.8902,-1.6677,0.1406,1.1846,2.3292,0.0213,
9.086661,-0.2172,0.7632,-0.1735,0.8902,-1.6677,0.1406,0.9444,1.8946,0.0799,
9.102379,-0.2172,0.7632,-0.1735,0.8902,-1.6677,0.1406,0.4890,1.1436,0.0383,
9.122070,-0.2038,0.7781,-0.1661,0.8902,-1.6677,0.1406,0.4890,1.1436,0.0383,
9.124471,-0.2038,0.7781,-0.1661,0.8750,-1.4697,0.6525,0.4890,1.1436,0.0383,
9.126240,-0.2038,0.7781,-0.1661,0.8750,-1.4697,0.6525,0.1001,0.3633,-0.0336,
9.142627,-0.2038,0.7781,-0.1661,0.8750,-1.4697,0.6525,-0.1182,-0.1246,-0.0575,
9.162535,-0.0980,0.7664,-0.1910,0.8750,-1.4697,0.6525,-0.1182,-0.1246,-0.0575,
9.166433,-0.0980,0.7664,-0.1910,1.9172,-1.5802,0.4187,-0.1182,-0.1246,-0.0575,
9.168820,-0.0980,0.7664,-0.1910,1.9172,-1.5802,0.4187,-0.2748,-0.1523,-0.1087,
9.181502,-0.0980,0.7664,-0.1910,1.9172,-1.5802,0.4187,-0.4868,-0.0842,-0.1949,
9.201887,-0.0723,0.9728,-0.2646,1.9172,-1.5802,0.4187,-0.4868,-0.0842,-0.1949,
9.204194,-0.0723,0.9728,-0.2646,2.2343,0.4269,-0.4541,-0.4868,-0.0842,-0.1949,
9.205871,-0.0723,0.9728,-0.2646,2.2343,0.4269,-0.4541,-0.7297,-0.0378,-0.2168,
9.222165,-0.0723,0.9728,-0.2646,2.2343,0.4269,-0.4541,-0.5795,0.6551,-0.3063,
9.241734,-0.2211,1.0862,-0.2370,2.2343,0.4269,-0.4541,-0.5795,0.6551,-0.3063,
9.245298,-0.2211,1.0862,-0.2370,0.7929,1.4994,-0.3790,-0.5795,0.6551,-0.3063,
9.247085,-0.2211,1.0862,-0.2370,0.7929,1.4994,-0.3790,-0.0373,1.7066,-0.4405,
9.262073,-0.2211,1.0862,-0.2370,0.7929,1.4994,-0.3790,0.2109,1.5111,-0.4389,
9.282526,-0.4461,1.2548,-0.2135,0.7929,1.4994,-0.3790,0.2109,1.5111,-0.4389,
9.284838,-0.4461,1.2548,-0.2135,-1.3833,3.2110,0.0734,0.2109,1.5111,-0.4389,
9.286589,-0.4461,1.2548,-0.2135,-1.3833,3.2110,0.0734,0.2493,0.6525,-0.1976,
9.302265,-0.4461,1.2548,-0.2135,-1.3833,3.2110,0.0734,1.0796,1.7044,-0.2471,
9.321752,-0.4788,1.2706,-0.2983,-1.3833,3.2110,0.0734,1.0796,1.7044,-0.2471,
9.323767,-0.4788,1.2706,-0.2983,-1.7342,3.4558,-0.3773,1.0796,1.7044,-0.2471,
9.325555,-0.4788,1.2706,-0.2983,-1.7342,3.4558,-0.3773,1.7156,2.0490,-0.3089,
9.341206,-0.4788,1.2706,-0.2983,-1.7342,3.4558,-0.3773,1.3412,-0.0309,0.0469,
9.362037,-0.1586,1.1258,-0.2516,-1.7342,3.4558,-0.3773,1.3412,-0.0309,0.0469,
9.365206,-0.1586,1.1258,-0.2516,1.3405,2.2288,0.7415,1.3412,-0.0309,0.0469,
9.366924,-0.1586,1.1258,-0.2516,1.3405,2.2288,0.7415,0.2301,-3.1558,0.4607,
9.384176,-0.1586,1.1258,-0.2516,1.3405,2.2288,0.7415,-0.7611,-3.9239,0.9065,
9.401527,0.1810,1.0803,0.0667,1.3405,2.2288,0.7415,-0.7611,-3.9239,0.9065,
9.404142,0.1810,1.0803,0.0667,4.8498,1.6719,3.3424,-0.7611,-3.9239,0.9065,
9.405887,0.1810,1.0803,0.0667,4.8498,1.6719,3.3424,-0.5071,-1.6522,1.0333,
9.422096,0.1810,1.0803,0.0667,4.8498,1.6719,3.3424,0.2099,0.3233,0.1502,
9.442064,-0.1353,1.1023,0.1104,4.8498,1.6719,3.3424,0.2099,0.3233,0.1502,
9.444196,-0.1353,1.1023,0.1104,1.6066,1.8004,3.6370,0.2099,0.3233,0.1502,
9.445718,-0.1353,1.1023,0.1104,1.6066,1.8004,3.6370,0.0016,-0.9316,-0.2519,
9.462563,-0.1353,1.1023,0.1104,1.6066,1.8004,3.6370,-0.6770,-2.3249,-0.1779,
9.481895,-0.3408,1.0811,0.1874,1.6066,1.8004,3.6370,-0.6770,-2.3249,-0.1779,
9.484051,-0.3408,1.0811,0.1874,-0.1728,1.5862,4.0708,-0.6770,-2.3249,-0.1779,
9.485826,-0.3408,1.0811,0.1874,-0.1728,1.5862,4.0708,-1.0152,-2.3446,-0.1704,
9.501686,-0.3408,1.0811,0.1874,-0.1728,1.5862,4.0708,-0.9422,-0.9236,0.0186,
9.521947,-0.3144,0.9357,0.2761,-0.1728,1.5862,4.0708,-0.9422,-0.9236,0.0186,
9.525336,-0.3144,0.9357,0.2761,0.2357,0.0884,4.3475,-0.9422,-0.9236,0.0186,
9.528153,-0.3144,0.9357,0.2761,0.2357,0.0884,4.3475,-0.5646,0.7686,0.1672,
9.541681,-0.3144,0.9357,0.2761,0.2357,0.0884,4.3475,-0.2796,1.0802,0.0410,
9.561982,-0.2167,0.7439,0.1033,0.2357,0.0884,4.3475,-0.2796,1.0802,0.0410,
9.565621,-0.2167,0.7439,0.1033,1.0876,-1.8422,2.5799,-0.2796,1.0802,0.0410,
9.567614,-0.2167,0.7439,0.1033,1.0876,-1.8422,2.5799,-0.1662,0.6163,-0.0554,
9.583612,-0.2167,0.7439,0.1033,1.0876,-1.8422,2.5799,-0.2493,0.0501,-0.1172,
9.601768,-0.1925,0.6714,-0.0222,1.0876,-1.8422,2.5799,-0.2493,0.0501,-0.1172,
9.604047,-0.1925,0.6714,-0.0222,1.3351,-2.5551,1.3162,-0.2493,0.0501,-0.1172,
9.605794,-0.1925,0.6714,-0.0222,1.3351,-2.5551,1.3162,-0.3665,-0.4389,-0.1411,
9.621255,-0.1925,0.6714,-0.0222,1.3351,-2.5551,1.3162,-0.4330,-0.6690,-0.0666,
9.642241,-0.1888,0.6745,-0.0687,1.3351,-2.5551,1.3162,-0.4330,-0.6690,-0.0666,
9.646291,-0.1888,0.6745,-0.0687,1.4404,-2.5333,0.6432,-0.4330,-0.6690,-0.0666,
9.647798,-0.1888,0.6745,-0.0687,1.4404,-2.5333,0.6432,-0.4261,-0.5625,0.0629,
9.661073,-0.1888,0.6745,-0.0687,1.4404,-2.5333,0.6432,-0.3563,-0.2200,0.1949,
9.681026,-0.2143,0.7901,-0.0752,1.4404,-2.5333,0.6432,-0.3563,-0.2200,0.1949,
9.682938,-0.2143,0.7901,-0.0752,1.1635,-1.4367,0.3840,-0.3563,-0.2200,0.1949,
9.684684,-0.2143,0.7901,-0.0752,1.1635,-1.4367,0.3840,-0.2546,0.1459,0.2812,
9.701211,-0.2143,0.7901,-0.0752,1.1635,-1.4367,0.3840,-0.1646,0.2850,0.3419,
9.721925,-0.2963,0.8661,-0.0689,1.1635,-1.4367,0.3840,-0.1646,0.2850,0.3419,
9.724139,-0.2963,0.8661,-0.0689,0.2350,-0.7412,0.3967,-0.1646,0.2850,0.3419,
9.725865,-0.2963,0.8661,-0.0689,0.2350,-0.7412,0.3967,-0.1071,0.1518,0.3638,
9.740849,-0.2963,0.8661,-0.0689,0.2350,-0.7412,0.3967,-0.0597,0.0138,0.3505,
9.761643,-0.3909,0.9469,-0.0892,0.2350,-0.7412,0.3967,-0.0597,0.0138,0.3505,
9.763792,-0.3909,0.9469,-0.0892,-0.8245,0.0044,0.1740,-0.0597,0.0138,0.3505,
9.765604,-0.3909,0.9469,-0.0892,-0.8245,0.0044,0.1740,-0.0091,-0.0080,0.3425,
9.783049,-0.3909,0.9469,-0.0892,-0.8245,0.0044,0.1740,0.0101,0.0607,0.3505,
9.801500,-0.3711,1.1346,-0.1576,-0.8245,0.0044,0.1740,0.0101,0.0607,0.3505,
9.803718,-0.3711,1.1346,-0.1576,-0.7549,1.8040,-0.4945,0.0101,0.0607,0.3505,
9.805645,-0.3711,1.1346,-0.1576,-0.7549,1.8040,-0.4945,-0.0288,0.1662,0.3457,
9.821714,-0.3711,1.1346,-0.1576,-0.7549,1.8040,-0.4945,-0.0586,0.1981,0.3201,
9.841049,-0.3867,1.1609,-0.0752,-0.7549,1.8040,-0.4945,-0.0586,0.1981,0.3201,
9.845153,-0.3867,1.1609,-0.0752,-1.0399,2.0233,0.3165,-0.0586,0.1981,0.3201,
9.846723,-0.3867,1.1609,-0.0752,-1.0399,2.0233,0.3165,0.0037,-0.0463,0.2269,
9.860294,-0.3867,1.1609,-0.0752,-1.0399,2.0233,0.3165,0.0895,-0.3393,0.1486,
9.880922,-0.4224,0.9943,-0.1192,-1.0399,2.0233,0.3165,0.0895,-0.3393,0.1486,
9.883082,-0.4224,0.9943,-0.1192,-1.4516,0.3720,-0.1179,0.0895,-0.3393,0.1486,
9.884889,-0.4224,0.9943,-0.1192,-1.4516,0.3720,-0.1179,0.1156,-0.4075,0.1395,
9.901193,-0.4224,0.9943,-0.1192,-1.4516,0.3720,-0.1179,0.1252,-0.2924,0.1332,
9.921789,-0.3933,1.3764,-0.0669,-1.4516,0.3720,-0.1179,0.1252,-0.2924,0.1332,
9.925878,-0.3933,1.3764,-0.0669,-1.2030,4.1071,0.4023,0.1252,-0.2924,0.1332,
9.928032,-0.3933,1.3764,-0.0669,-1.2030,4.1071,0.4023,0.2205,-0.2029,0.0836,
9.940512,-0.3933,1.3764,-0.0669,-1.2030,4.1071,0.4023,0.3968,-0.3212,-0.0277,
9.960920,-0.2289,1.0097,0.0386,-1.2030,4.1071,0.4023,0.3968,-0.3212,-0.0277,
9.963725,-0.2289,1.0097,0.0386,0.4093,0.5240,1.5245,0.3968,-0.3212,-0.0277,
9.965524,-0.2289,1.0097,0.0386,0.4093,0.5240,1.5245,0.5167,-0.7388,-0.1710,
9.983639,-0.2289,1.0097,0.0386,0.4093,0.5240,1.5245,0.4549,-1.1569,-0.2567,
10.000606,-0.1297,0.9049,0.0198,0.4093,0.5240,1.5245,0.4549,-1.1569,-0.2567,
10.004024,-0.1297,0.9049,0.0198,1.4955,-0.4632,1.3950,0.4549,-1.1569,-0.2567,
10.005999,-0.1297,0.9049,0.0198,1.4955,-0.4632,1.3950,0.2285,-1.4424,-0.2589,
10.021155,-0.1297,0.9049,0.0198,1.4955,-0.4632,1.3950,-0.1246,-1.3875,-0.1747,
10.040797,-0.0515,1.2980,0.1913,1.4955,-0.4632,1.3950,-0.1246,-1.3875,-0.1747,
10.044566,-0.0515,1.2980,0.1913,2.4071,3.4163,2.9343,-0.1246,-1.3875,-0.1747,
10.046083,-0.0515,1.2980,0.1913,2.4071,3.4163,2.9343,-0.4362,-0.8533,-0.1326,
10.060965,-0.0515,1.2980,0.1913,2.4071,3.4163,2.9343,-0.4208,-0.3238,-0.1742,
10.080824,0.0415,1.0964,0.2521,2.4071,3.4163,2.9343,-0.4208,-0.3238,-0.1742,
10.083437,0.0415,1.0964,0.2521,3.3989,1.4431,3.3020,-0.4208,-0.3238,-0.1742,
10.085240,0.0415,1.0964,0.2521,3.3989,1.4431,3.3020,-0.0751,0.0426,-0.1539,
10.100356,0.0415,1.0964,0.2521,3.3989,1.4431,3.3020,0.2290,0.6019,-0.0463,
10.121460,0.0100,0.8192,0.0076,3.3989,1.4431,3.3020,0.2290,0.6019,-0.0463,
10.123600,0.0100,0.8192,0.0076,3.0448,-1.2871,0.9232,0.2290,0.6019,-0.0463,
10.125527,0.0100,0.8192,0.0076,3.0448,-1.2871,0.9232,0.4032,1.2320,0.0714,
10.140355,0.0100,0.8192,0.0076,3.0448,-1.2871,0.9232,0.5278,1.8179,0.1380,
10.160720,-0.0733,0.7872,0.0188,3.0448,-1.2871,0.9232,0.5278,1.8179,0.1380,
10.163638,-0.0733,0.7872,0.0188,2.1223,-1.5958,1.3793,0.5278,1.8179,0.1380,
10.165630,-0.0733,0.7872,0.0188,2.1223,-1.5958,1.3793,0.8384,2.4485,0.0501,
10.180515,-0.0733,0.7872,0.0188,2.1223,-1.5958,1.3793,1.1270,2.5492,-0.0064,
10.201470,-0.1759,0.7752,-0.1510,2.1223,-1.5958,1.3793,1.1270,2.5492,-0.0064,
10.203725,-0.1759,0.7752,-0.1510,0.9584,-1.6557,0.3556,1.1270,2.5492,-0.0064,
10.205536,-0.1759,0.7752,-0.1510,0.9584,-1.6557,0.3556,0.9923,1.8749,0.0650,
10.220402,-0.1759,0.7752,-0.1510,0.9584,-1.6557,0.3556,0.6040,0.9960,0.0714,
10.240180,-0.1639,0.7486,-0.1554,0.9584,-1.6557,0.3556,0.6040,0.9960,0.0714,
10.242335,-0.1639,0.7486,-0.1554,0.9330,-1.8580,0.7564,0.6040,0.9960,0.0714,
10.244084,-0.1639,0.7486,-0.1554,0.9330,-1.8580,0.7564,0.3079,0.4064,-0.0123,
10.260925,-0.1639,0.7486,-0.1554,0.9330,-1.8580,0.7564,0.0836,0.1103,0.0000,
10.280813,-0.0999,0.7723,-0.1393,0.9330,-1.8580,0.7564,0.0836,0.1103,0.0000,
10.282981,-0.0999,0.7723,-0.1393,1.5385,-1.6070,1.0123,0.0836,0.1103,0.0000,
10.284689,-0.0999,0.7723,-0.1393,1.5385,-1.6070,1.0123,-0.1454,-0.0623,0.0085,
10.300997,-0.0999,0.7723,-0.1393,1.5385,-1.6070,1.0123,-0.3404,-0.0453,-0.0511,
10.320455,-0.0225,0.8148,-0.2084,1.5385,-1.6070,1.0123,-0.3404,-0.0453,-0.0511,
10.323498,-0.0225,0.8148,-0.2084,2.3103,-1.2108,0.2402,-0.3404,-0.0453,-0.0511,
10.325522,-0.0225,0.8148,-0.2084,2.3103,-1.2108,0.2402,-0.5380,0.0591,-0.1736,
10.340485,-0.0225,0.8148,-0.2084,2.3103,-1.2108,0.2402,-0.7744,0.1507,-0.2647,
10.360514,-0.0938,0.9369,-0.2255,2.3103,-1.2108,0.2402,-0.7744,0.1507,-0.2647,
10.362750,-0.0938,0.9369,-0.2255,1.6828,-0.0480,-0.1581,-0.7744,0.1507,-0.2647,
10.364623,-0.0938,0.9369,-0.2255,1.6828,-0.0480,-0.1581,-0.8581,0.4969,-0.3318,
10.382248,-0.0938,0.9369,-0.2255,1.6828,-0.0480,-0.1581,-0.5571,1.2842,-0.4320,
10.400355,-0.3061,1.1434,-0.1898,1.6828,-0.0480,-0.1581,-0.5571,1.2842,-0.4320,
10.402651,-0.3061,1.1434,-0.1898,-0.3571,1.9505,0.0217,-0.5571,1.2842,-0.4320,
10.404400,-0.3061,1.1434,-0.1898,-0.3571,1.9505,0.0217,0.0644,1.9564,-0.5353,
10.419839,-0.3061,1.1434,-0.1898,-0.3571,1.9505,0.0217,0.2232,0.8213,-0.2898,
10.440279,-0.3909,1.2662,-0.2211,-0.3571,1.9505,0.0217,0.2232,0.8213,-0.2898,
10.442312,-0.3909,1.2662,-0.2211,-1.1451,3.2102,-0.0842,0.2232,0.8213,-0.2898,
10.444114,-0.3909,1.2662,-0.2211,-1.1451,3.2102,-0.0842,0.6184,0.4991,-0.0437,
10.460608,-0.3909,1.2662,-0.2211,-1.1451,3.2102,-0.0842,1.7295,1.4892,-0.2940,
10.479842,-0.3604,1.2279,-0.5580,-1.1451,3.2102,-0.0842,1.7295,1.4892,-0.2940,
10.482274,-0.3604,1.2279,-0.5580,-0.8777,2.9625,-2.8512,1.7295,1.4892,-0.2940,
10.484100,-0.3604,1.2279,-0.5580,-0.8777,2.9625,-2.8512,1.8876,0.9694,-0.3910,
10.499826,-0.3604,1.2279,-0.5580,-0.8777,2.9625,-2.8512,0.9017,-1.3561,-0.0575,
10.520241,-0.1351,1.1421,-0.2499,-0.8777,2.9625,-2.8512,0.9017,-1.3561,-0.0575,
10.522679,-0.1351,1.1421,-0.2499,1.4385,2.3069,0.6457,0.9017,-1.3561,-0.0575,
10.524370,-0.1351,1.1421,-0.2499,1.4385,2.3069,0.6457,-0.6866,-3.6661,0.4581,
10.539629,-0.1351,1.1421,-0.2499,1.4385,2.3069,0.6457,-1.5793,-4.3319,0.9161,
10.560723,0.2766,1.1951,0.2587,1.4385,2.3069,0.6457,-1.5793,-4.3319,0.9161,
10.563340,0.2766,1.1951,0.2587,5.6567,2.6282,4.7639,-1.5793,-4.3319,0.9161,
10.564961,0.2766,1.1951,0.2587,5.6567,2.6282,4.7639,-0.8320,-2.0645,0.8623,
10.579384,0.2766,1.1951,0.2587,5.6567,2.6282,4.7639,-0.0772,-1.1196,0.0692,
10.599276,-0.0296,1.1179,0.2983,5.6567,2.6282,4.7639,-0.0772,-1.1196,0.0692,
10.601408,-0.0296,1.1179,0.2983,2.6162,1.7799,4.8014,-0.0772,-1.1196,0.0692,
10.602447,-0.0296,1.1179,0.2983,2.6162,1.7799,4.8014,-0.1667,-1.9537,-0.0831,
10.619326,-0.0296,1.1179,0.2983,2.6162,1.7799,4.8014,-0.2663,-1.7369,-0.1784,
10.639785,-0.2678,0.9887,0.2682,2.6162,1.7799,4.8014,-0.2663,-1.7369,-0.1784,
10.642769,-0.2678,0.9887,0.2682,0.4571,0.5139,4.2062,-0.2663,-1.7369,-0.1784,
10.644304,-0.2678,0.9887,0.2682,0.4571,0.5139,4.2062,-0.1827,-0.6067,-0.1300,
10.659615,-0.2678,0.9887,0.2682,0.4571,0.5139,4.2062,-0.1401,0.4938,-0.0288,
10.679923,-0.2321,0.8458,0.1476,0.4571,0.5139,4.2062,-0.1401,0.4938,-0.0288,
10.681819,-0.2321,0.8458,0.1476,0.8057,-0.9109,2.8776,-0.1401,0.4938,-0.0288,
10.683482,-0.2321,0.8458,0.1476,0.8057,-0.9109,2.8776,-0.1790,0.8304,-0.0107,
10.699768,-0.2321,0.8458,0.1476,0.8057,-0.9109,2.8776,-0.2637,0.4538,-0.0783,
10.720257,-0.2033,0.6907,0.0748,0.8057,-0.9109,2.8776,-0.2637,0.4538,-0.0783,
10.723850,-0.2033,0.6907,0.0748,1.0677,-2.4385,2.1614,-0.2637,0.4538,-0.0783,
10.725845,-0.2033,0.6907,0.0748,1.0677,-2.4385,2.1614,-0.3084,-0.1300,-0.1380,
10.739786,-0.2033,0.6907,0.0748,1.0677,-2.4385,2.1614,-0.2780,-0.6210,-0.1614,
10.760084,-0.2116,0.6877,-0.0173,1.0677,-2.4385,2.1614,-0.2780,-0.6210,-0.1614,
10.762213,-0.2116,0.6877,-0.0173,1.0613,-2.4647,1.1044,-0.2780,-0.6210,-0.1614,
10.763868,-0.2116,0.6877,-0.0173,1.0613,-2.4647,1.1044,-0.2370,-0.8964,-0.1156,
10.779682,-0.2116,0.6877,-0.0173,1.0613,-2.4647,1.1044,-0.2083,-0.9454,0.0138,
10.799850,-0.2272,0.7117,-0.1063,1.0613,-2.4647,1.1044,-0.2083,-0.9454,0.0138,
10.802047,-0.2272,0.7117,-0.1063,0.9699,-2.2341,0.0344,-0.2083,-0.9454,0.0138,
10.803647,-0.2272,0.7117,-0.1063,0.9699,-2.2341,0.0344,-0.2099,-0.7526,0.1944,
10.819308,-0.2272,0.7117,-0.1063,0.9699,-2.2341,0.0344,-0.2013,-0.3531,0.3036,
10.840003,-0.2631,0.7920,-0.1192,0.9699,-2.2341,0.0344,-0.2013,-0.3531,0.3036,
10.843036,-0.2631,0.7920,-0.1192,0.5485,-1.4861,-0.2384,-0.2013,-0.3531,0.3036,
10.844930,-0.2631,0.7920,-0.1192,0.5485,-1.4861,-0.2384,-0.1678,0.0458,0.3238,
10.858978,-0.2631,0.7920,-0.1192,0.5485,-1.4861,-0.2384,-0.1161,0.2072,0.3286,
10.879530,-0.3364,0.9159,-0.1192,0.5485,-1.4861,-0.2384,-0.1161,0.2072,0.3286,
10.882544,-0.3364,0.9159,-0.1192,-0.2952,-0.3173,-0.2756,-0.1161,0.2072,0.3286,
10.884920,-0.3364,0.9159,-0.1192,-0.2952,-0.3173,-0.2756,-0.0799,0.1491,0.2924,
10.900732,-0.3364,0.9159,-0.1192,-0.2952,-0.3173,-0.2756,-0.0394,0.0559,0.2589,
10.920393,-0.3767,0.9496,-0.1700,-0.2952,-0.3173,-0.2756,-0.0394,0.0559,0.2589,
10.922818,-0.3767,0.9496,-0.1700,-0.7886,-0.0184,-0.7768,-0.0394,0.0559,0.2589,
10.924882,-0.3767,0.9496,-0.1700,-0.7886,-0.0184,-0.7768,0.0101,0.0293,0.2951,
10.939081,-0.3767,0.9496,-0.1700,-0.7886,-0.0184,-0.7768,0.0517,0.0756,0.3531,
10.959312,-0.3454,1.1321,-0.2318,-0.7886,-0.0184,-0.7768,0.0517,0.0756,0.3531,
10.961971,-0.3454,1.1321,-0.2318,-0.3528,1.8865,-0.7949,0.0517,0.0756,0.3531,
10.963197,-0.3454,1.1321,-0.2318,-0.3528,1.8865,-0.7949,0.1273,0.0964,0.3121,
10.979269,-0.3454,1.1321,-0.2318,-0.3528,1.8865,-0.7949,0.1971,-0.2599,0.1870,
10.999028,-0.4424,1.2264,-0.1341,-0.3528,1.8865,-0.7949,0.1971,-0.2599,0.1870,
11.000566,-0.4424,1.2264,-0.1341,-1.3901,2.7907,0.2129,0.1971,-0.2599,0.1870,
11.001399,-0.4424,1.2264,-0.1341,-1.3901,2.7907,0.2129,0.1864,-0.6402,0.0613,
11.019025,-0.4424,1.2264,-0.1341,-1.3901,2.7907,0.2129,0.1289,-0.5246,0.0330,
11.039253,-0.4041,1.1754,-0.1832,-1.3901,2.7907,0.2129,0.1289,-0.5246,0.0330,
11.041409,-0.4041,1.1754,-0.1832,-0.9962,2.2943,-0.2789,0.1289,-0.5246,0.0330,
11.043182,-0.4041,1.1754,-0.1832,-0.9962,2.2943,-0.2789,0.1076,0.0005,0.1033,
11.059529,-0.4041,1.1754,-0.1832,-0.9962,2.2943,-0.2789,0.2061,0.1774,0.0815,
11.078855,-0.3142,1.2636,-0.0117,-0.9962,2.2943,-0.2789,0.2061,0.1774,0.0815,
11.081491,-0.3142,1.2636,-0.0117,-0.1547,3.1575,1.4700,0.2061,0.1774,0.0815,
11.082858,-0.3142,1.2636,-0.0117,-0.1547,3.1575,1.4700,0.3830,-0.1651,-0.0522,
11.100283,-0.3142,1.2636,-0.0117,-0.1547,3.1575,1.4700,0.4788,-0.6610,-0.2040,
11.120126,-0.1454,0.9054,0.0225,-0.1547,3.1575,1.4700,0.4788,-0.6610,-0.2040,
11.124098,-0.1454,0.9054,0.0225,1.5738,-0.3092,1.9140,0.4788,-0.6610,-0.2040,
11.126284,-0.1454,0.9054,0.0225,1.5738,-0.3092,1.9140,0.4634,-1.1542,-0.3435,
11.139242,-0.1454,0.9054,0.0225,1.5738,-0.3092,1.9140,0.3798,-1.5979,-0.3792,
11.159263,-0.0845,1.0310,0.0730,1.5738,-0.3092,1.9140,0.3798,-1.5979,-0.3792,
11.162147,-0.0845,1.0310,0.0730,2.3763,0.9841,2.3700,0.3798,-1.5979,-0.3792,
11.163681,-0.0845,1.0310,0.0730,2.3763,0.9841,2.3700,0.2578,-1.8940,-0.3270,
11.183177,-0.0845,1.0310,0.0730,2.3763,0.9841,2.3700,0.0437,-1.9153,-0.2274,
11.199022,0.0630,1.2804,0.1859,2.3763,0.9841,2.3700,0.0437,-1.9153,-0.2274,
11.200725,0.0630,1.2804,0.1859,4.0423,3.4749,3.2784,0.0437,-1.9153,-0.2274,
11.201993,0.0630,1.2804,0.1859,4.0423,3.4749,3.2784,-0.1593,-1.5782,-0.0820,
11.218949,0.0630,1.2804,0.1859,4.0423,3.4749,3.2784,-0.1901,-0.8378,0.0692,
11.239488,0.1454,1.0146,0.1200,4.0423,3.4749,3.2784,-0.1901,-0.8378,0.0692,
11.242705,0.1454,1.0146,0.1200,4.9129,0.8599,2.3992,-0.1901,-0.8378,0.0692,
11.244340,0.1454,1.0146,0.1200,4.9129,0.8599,2.3992,-0.0698,0.1694,0.1289,
11.258533,0.1454,1.0146,0.1200,4.9129,0.8599,2.3992,0.0698,1.0402,0.1587,
11.279452,-0.0217,0.7415,-0.0300,4.9129,0.8599,2.3992,0.0698,1.0402,0.1587,
11.281522,-0.0217,0.7415,-0.0300,3.1600,-1.8512,0.9951,0.0698,1.0402,0.1587,
11.283149,-0.0217,0.7415,-0.0300,3.1600,-1.8512,0.9951,0.1960,1.7524,0.2269,
11.299466,-0.0217,0.7415,-0.0300,3.1600,-1.8512,0.9951,0.3073,2.2248,0.2658,
11.319332,-0.1309,0.7117,-0.0298,3.1600,-1.8512,0.9951,0.3073,2.2248,0.2658,
11.321541,-0.1309,0.7117,-0.0298,1.8836,-2.1607,1.3491,0.3073,2.2248,0.2658,
11.323215,-0.1309,0.7117,-0.0298,1.8836,-2.1607,1.3491,0.5129,2.6253,0.1827,
11.338791,-0.1309,0.7117,-0.0298,1.8836,-2.1607,1.3491,0.7265,2.6466,0.0799,
11.360044,-0.2179,0.7578,-0.1153,1.8836,-2.1607,1.3491,0.7265,2.6466,0.0799,
11.362825,-0.2179,0.7578,-0.1153,0.7827,-1.6765,1.0573,0.7265,2.6466,0.0799,
11.364623,-0.2179,0.7578,-0.1153,0.7827,-1.6765,1.0573,0.7143,1.9718,0.1087,
11.379517,-0.2179,0.7578,-0.1153,0.7827,-1.6765,1.0573,0.5028,1.0637,0.0991,
11.399478,-0.1757,0.7581,-0.1573,0.7827,-1.6765,1.0573,0.5028,1.0637,0.0991,
11.401715,-0.1757,0.7581,-0.1573,1.0152,-1.6277,1.0375,0.5028,1.0637,0.0991,
11.403414,-0.1757,0.7581,-0.1573,1.0152,-1.6277,1.0375,0.2684,0.3894,0.0591,
11.419060,-0.1757,0.7581,-0.1573,1.0152,-1.6277,1.0375,0.0160,-0.0016,0.0682,
11.438828,-0.0291,0.7603,-0.1862,1.0152,-1.6277,1.0375,0.0160,-0.0016,0.0682,
11.441912,-0.0291,0.7603,-0.1862,2.4085,-1.5982,0.8276,0.0160,-0.0016,0.0682,
11.443497,-0.0291,0.7603,-0.1862,2.4085,-1.5982,0.8276,-0.2418,-0.1049,0.0096,
11.458696,-0.0291,0.7603,-0.1862,2.4085,-1.5982,0.8276,-0.4527,-0.0096,-0.1704,
11.479518,-0.0191,0.9130,-0.2885,2.4085,-1.5982,0.8276,-0.4527,-0.0096,-0.1704,
11.482764,-0.0191,0.9130,-0.2885,2.5417,-0.1289,-0.3075,-0.4527,-0.0096,-0.1704,
11.484861,-0.0191,0.9130,-0.2885,2.5417,-0.1289,-0.3075,-0.7127,-0.0154,-0.2828,
11.499577,-0.0191,0.9130,-0.2885,2.5417,-0.1289,-0.3075,-0.7931,0.3505,-0.3430,
11.518996,-0.1439,1.0491,-0.2472,2.5417,-0.1289,-0.3075,-0.7931,0.3505,-0.3430,
11.522826,-0.1439,1.0491,-0.2472,1.3762,1.1553,-0.1570,-0.7931,0.3505,-0.3430,
11.524782,-0.1439,1.0491,-0.2472,1.3762,1.1553,-0.1570,-0.4357,1.2639,-0.4549,
11.538319,-0.1439,1.0491,-0.2472,1.3762,1.1553,-0.1570,0.1486,1.8040,-0.5875,
11.558431,-0.4055,1.3290,-0.2592,1.3762,1.1553,-0.1570,0.1486,1.8040,-0.5875,
11.561446,-0.4055,1.3290,-0.2592,-1.1391,3.9448,-0.1544,0.1486,1.8040,-0.5875,
11.563259,-0.4055,1.3290,-0.2592,-1.1391,3.9448,-0.1544,0.4032,0.8735,-0.2684,
11.584077,-0.4055,1.3290,-0.2592,-1.1391,3.9448,-0.1544,0.9156,0.8069,-0.0282,
11.598138,-0.3831,1.2533,-0.3591,-1.1391,3.9448,-0.1544,0.9156,0.8069,-0.0282,
11.601224,-0.3831,1.2533,-0.3591,-0.9500,3.2869,-0.8007,0.9156,0.8069,-0.0282,
11.602993,-0.3831,1.2533,-0.3591,-0.9500,3.2869,-0.8007,1.7460,1.7822,-0.2253,
11.617462,-0.3831,1.2533,-0.3591,-0.9500,3.2869,-0.8007,1.9670,1.5004,-0.1923,
11.637802,-0.1603,1.1658,-0.4114,-0.9500,3.2869,-0.8007,1.9670,1.5004,-0.1923,
11.640274,-0.1603,1.1658,-0.4114,1.1033,2.6860,-0.4755,1.9670,1.5004,-0.1923,
11.641923,-0.1603,1.1658,-0.4114,1.1033,2.6860,-0.4755,1.1468,-1.0301,0.1779,
11.658255,-0.1603,1.1658,-0.4114,1.1033,2.6860,-0.4755,-0.3659,-3.5851,0.5161,
11.678663,-0.0269,1.1250,-0.0107,1.1033,2.6860,-0.4755,-0.3659,-3.5851,0.5161,
11.680927,-0.0269,1.1250,-0.0107,2.6201,2.3048,3.3311,-0.3659,-3.5851,0.5161,
11.682512,-0.0269,1.1250,-0.0107,2.6201,2.3048,3.3311,-1.3907,-4.4017,1.0679,
11.698586,-0.0269,1.1250,-0.0107,2.6201,2.3048,3.3311,-0.9284,-2.4709,1.2437,
11.717954,0.3474,1.1531,0.2472,2.6201,2.3048,3.3311,-0.9284,-2.4709,1.2437,
11.720024,0.3474,1.1531,0.2472,6.2958,2.3048,5.0469,-0.9284,-2.4709,1.2437,
11.721546,0.3474,1.1531,0.2472,6.2958,2.3048,5.0469,0.2493,0.0123,0.3622,
11.738058,0.3474,1.1531,0.2472,6.2958,2.3048,5.0469,0.0676,-1.5010,-0.0245,
11.775384,-0.0379,1.1177,0.1588,6.2958,2.3048,5.0469,0.0676,-1.5010,-0.0245,
11.778667,-0.0379,1.1177,0.1588,2.5376,1.9551,4.1520,0.0676,-1.5010,-0.0245,
11.780796,-0.0379,1.1177,0.1588,2.5376,1.9551,4.1520,-0.5470,-2.8869,-0.1337,
11.782829,-0.0379,1.1177,0.1588,2.5376,1.9551,4.1520,-0.8895,-2.7702,-0.3361,
11.798511,-0.3525,1.0139,0.2016,2.5376,1.9551,4.1520,-0.8895,-2.7702,-0.3361,
11.801916,-0.3525,1.0139,0.2016,-0.2008,0.9011,3.9637,-0.8895,-2.7702,-0.3361,
11.803983,-0.3525,1.0139,0.2016,-0.2008,0.9011,3.9637,-1.0424,-1.4978,-0.3329,
11.817840,-0.3525,1.0139,0.2016,-0.2008,0.9011,3.9637,-0.7867,0.2519,-0.1039,
11.838544,-0.2604,0.7879,0.1761,-0.2008,0.9011,3.9637,-0.7867,0.2519,-0.1039,
11.841968,-0.2604,0.7879,0.1761,0.7962,-1.3725,3.2301,-0.7867,0.2519,-0.1039,
11.843836,-0.2604,0.7879,0.1761,0.7962,-1.3725,3.2301,-0.5198,1.1920,-0.0410,
11.857415,-0.2604,0.7879,0.1761,0.7962,-1.3725,3.2301,-0.3867,0.9390,-0.1678,
11.878389,-0.2450,0.6310,0.0474,0.7962,-1.3725,3.2301,-0.3867,0.9390,-0.1678,
11.881824,-0.2450,0.6310,0.0474,0.9216,-2.9227,1.9452,-0.3867,0.9390,-0.1678,
11.884090,-0.2450,0.6310,0.0474,0.9216,-2.9227,1.9452,-0.3718,0.3206,-0.2578,
11.897424,-0.2450,0.6310,0.0474,0.9216,-2.9227,1.9452,-0.3760,-0.2679,-0.2466,
11.918176,-0.2729,0.6411,-0.0276,0.9216,-2.9227,1.9452,-0.3760,-0.2679,-0.2466,
11.919636,-0.2729,0.6411,-0.0276,0.7383,-2.8119,1.0777,-0.3760,-0.2679,-0.2466,
11.921243,-0.2729,0.6411,-0.0276,0.7383,-2.8119,1.0777,-0.3750,-0.6376,-0.1182,
11.937961,-0.2729,0.6411,-0.0276,0.7383,-2.8119,1.0777,-0.3414,-0.7052,0.0597,
11.957023,-0.2248,0.7571,-0.1185,0.7383,-2.8119,1.0777,-0.3414,-0.7052,0.0597,
11.958795,-0.2248,0.7571,-0.1185,1.2538,-1.6884,-0.0357,-0.3414,-0.7052,0.0597,
11.959954,-0.2248,0.7571,-0.1185,1.2538,-1.6884,-0.0357,-0.2961,-0.3606,0.1939,
11.977403,-0.2248,0.7571,-0.1185,1.2538,-1.6884,-0.0357,-0.2423,0.1955,0.2333,
11.997473,-0.2507,0.8925,-0.1329,1.2538,-1.6884,-0.0357,-0.2423,0.1955,0.2333,
12.000043,-0.2507,0.8925,-0.1329,0.9259,-0.4026,-0.2865,-0.2423,0.1955,0.2333,
12.001825,-0.2507,0.8925,-0.1329,0.9259,-0.4026,-0.2865,-0.2147,0.4847,0.2029,
12.017167,-0.2507,0.8925,-0.1329,0.9259,-0.4026,-0.2865,-0.1939,0.3063,0.2029,
12.038050,-0.3308,0.9267,-0.1749,0.9259,-0.4026,-0.2865,-0.1939,0.3063,0.2029,
12.040104,-0.3308,0.9267,-0.1749,0.0491,-0.1030,-0.7192,-0.1939,0.3063,0.2029,
12.041886,-0.3308,0.9267,-0.1749,0.0491,-0.1030,-0.7192,-0.1401,0.1401,0.2067,
12.058549,-0.3308,0.9267,-0.1749,0.0491,-0.1030,-0.7192,-0.0538,0.1044,0.2264,
12.077792,-0.3484,1.0449,-0.2360,0.0491,-0.1030,-0.7192,-0.0538,0.1044,0.2264,
12.079751,-0.3484,1.0449,-0.2360,-0.2146,1.0242,-1.3117,-0.0538,0.1044,0.2264,
12.081563,-0.3484,1.0449,-0.2360,-0.2146,1.0242,-1.3117,0.0559,0.1177,0.2791,
12.098426,-0.3484,1.0449,-0.2360,-0.2146,1.0242,-1.3117,0.1875,0.0149,0.2754,
12.117925,-0.4161,1.2941,-0.0960,-0.2146,1.0242,-1.3117,0.1875,0.0149,0.2754,
12.121799,-0.4161,1.2941,-0.0960,-0.9827,3.4365,0.1135,0.1875,0.0149,0.2754,
12.123855,-0.4161,1.2941,-0.0960,-0.9827,3.4365,0.1135,0.3233,-0.2333,0.2099,
12.137504,-0.4161,1.2941,-0.0960,-0.9827,3.4365,0.1135,0.4192,-0.5097,0.0698,
12.157308,-0.4835,1.0930,-0.0464,-0.9827,3.4365,0.1135,0.4192,-0.5097,0.0698,
12.160089,-0.4835,1.0930,-0.0464,-1.6787,1.4652,0.6912,0.4192,-0.5097,0.0698,
12.161781,-0.4835,1.0930,-0.0464,-1.6787,1.4652,0.6912,0.4618,-0.5097,-0.0527,
12.177463,-0.4835,1.0930,-0.0464,-1.6787,1.4652,0.6912,0.4176,-0.2338,-0.0543,
12.197880,-0.4266,1.3036,-0.0755,-1.6787,1.4652,0.6912,0.4176,-0.2338,-0.0543,
12.199865,-0.4266,1.3036,-0.0755,-1.0834,3.5567,0.5227,0.4176,-0.2338,-0.0543,
12.201560,-0.4266,1.3036,-0.0755,-1.0834,3.5567,0.5227,0.3510,0.0921,-0.0511,
12.217010,-0.4266,1.3036,-0.0755,-1.0834,3.5567,0.5227,0.3148,0.0953,-0.2125,
12.237392,-0.3054,1.1595,0.1087,-1.0834,3.5567,0.5227,0.3148,0.0953,-0.2125,
12.238957,-0.3054,1.1595,0.1087,0.1476,2.1782,2.4620,0.3148,0.0953,-0.2125,
12.240156,-0.3054,1.1595,0.1087,0.1476,2.1782,2.4620,0.2887,-0.3478,-0.4996,
12.257131,-0.3054,1.1595,0.1087,0.1476,2.1782,2.4620,0.2232,-0.9790,-0.6615,
12.277768,-0.1989,0.9496,0.3046,0.1476,2.1782,2.4620,0.2232,-0.9790,-0.6615,
12.281598,-0.1989,0.9496,0.3046,1.4408,0.2117,4.3887,0.2232,-0.9790,-0.6615,
12.283269,-0.1989,0.9496,0.3046,1.4408,0.2117,4.3887,0.1465,-1.3806,-0.7297,
12.297554,-0.1989,0.9496,0.3046,1.4408,0.2117,4.3887,0.1140,-1.0951,-0.6940,
12.317234,0.0122,1.1959,0.3726,1.4408,0.2117,4.3887,0.1140,-1.0951,-0.6940,
12.319257,0.0122,1.1959,0.3726,3.8328,2.7331,4.9260,0.1140,-1.0951,-0.6940,
12.320949,0.0122,1.1959,0.3726,3.8328,2.7331,4.9260,0.0554,-0.6440,-0.6232,
12.338101,0.0122,1.1959,0.3726,3.8328,2.7331,4.9260,-0.0602,0.0059,-0.4016,
12.358745,0.0120,1.2565,-0.2282,3.8328,2.7331,4.9260,-0.0602,0.0059,-0.4016,
12.362396,0.0120,1.2565,-0.2282,4.0296,3.4048,-1.0103,-0.0602,0.0059,-0.4016,
12.364706,0.0120,1.2565,-0.2282,4.0296,3.4048,-1.0103,-0.1609,1.4743,-0.0165,
12.379613,0.0120,1.2565,-0.2282,4.0296,3.4048,-1.0103,0.1486,3.7721,0.2423,
12.397906,-0.0254,0.8719,-0.1011,4.0296,3.4048,-1.0103,0.1486,3.7721,0.2423,
12.400010,-0.0254,0.8719,-0.1011,3.4360,-0.3998,0.6159,0.1486,3.7721,0.2423,
12.401795,-0.0254,0.8719,-0.1011,3.4360,-0.3998,0.6159,0.7207,3.3305,0.1422,
12.417264,-0.0254,0.8719,-0.1011,3.4360,-0.3998,0.6159,1.1270,0.8053,-0.0320,
12.437730,-0.2257,0.5890,-0.2668,3.4360,-0.3998,0.6159,1.1270,0.8053,-0.0320,
12.439976,-0.2257,0.5890,-0.2668,1.2999,-3.1072,-0.3811,1.1270,0.8053,-0.0320,
12.441862,-0.2257,0.5890,-0.2668,1.2999,-3.1072,-0.3811,1.0871,-0.5401,-0.0927,
12.457578,-0.2257,0.5890,-0.2668,1.2999,-3.1072,-0.3811,0.8075,-0.6147,-0.0565,
12.477808,-0.2494,0.6210,-0.1478,1.2999,-3.1072,-0.3811,0.8075,-0.6147,-0.0565,
12.480188,-0.2494,0.6210,-0.1478,1.1488,-2.6935,1.0370,0.8075,-0.6147,-0.0565,
12.481843,-0.2494,0.6210,-0.1478,1.1488,-2.6935,1.0370,0.4245,-0.4059,0.0549,
12.497781,-0.2494,0.6210,-0.1478,1.1488,-2.6935,1.0370,0.1033,-0.2392,0.0399,
12.517853,-0.1217,0.6960,-0.0220,1.1488,-2.6935,1.0370,0.1033,-0.2392,0.0399,
12.520626,-0.1217,0.6960,-0.0220,2.4168,-1.9388,2.3161,0.1033,-0.2392,0.0399,
12.522630,-0.1217,0.6960,-0.0220,2.4168,-1.9388,2.3161,-0.1172,-0.0607,-0.0314,
12.538232,-0.1217,0.6960,-0.0220,2.4168,-1.9388,2.3161,-0.2312,0.1752,-0.0804,
12.557437,-0.0525,0.8008,-0.1358,2.4168,-1.9388,2.3161,-0.2312,0.1752,-0.0804,
12.559558,-0.0525,0.8008,-0.1358,3.1083,-0.9210,1.1477,-0.2312,0.1752,-0.0804,
12.561363,-0.0525,0.8008,-0.1358,3.1083,-0.9210,1.1477,-0.3569,0.4421,-0.1337,
12.577745,-0.0525,0.8008,-0.1358,3.1083,-0.9210,1.1477,-0.5875,0.8266,-0.2407,
12.596863,-0.1615,0.8001,-0.3530,3.1083,-0.9210,1.1477,-0.5875,0.8266,-0.2407,
12.599642,-0.1615,0.8001,-0.3530,2.0443,-0.9471,-1.0545,-0.5875,0.8266,-0.2407,
12.601964,-0.1615,0.8001,-0.3530,2.0443,-0.9471,-1.0545,-0.9097,1.1004,-0.3009,
12.616862,-0.1615,0.8001,-0.3530,2.0443,-0.9471,-1.0545,-1.1068,1.3076,-0.3856,
12.637063,-0.3875,0.9100,-0.4180,2.0443,-0.9471,-1.0545,-1.1068,1.3076,-0.3856,
12.639352,-0.3875,0.9100,-0.4180,-0.1685,0.0856,-1.8640,-1.1068,1.3076,-0.3856,
12.641253,-0.3875,0.9100,-0.4180,-0.1685,0.0856,-1.8640,-0.9028,1.6613,-0.4091,
12.656568,-0.3875,0.9100,-0.4180,-0.1685,0.0856,-1.8640,-0.4224,1.3880,-0.3009,
12.676899,-0.4129,1.2296,-0.1881,-0.1685,0.0856,-1.8640,-0.4224,1.3880,-0.3009,
12.679065,-0.4129,1.2296,-0.1881,-0.4322,3.2080,0.3764,-0.4224,1.3880,-0.3009,
12.680798,-0.4129,1.2296,-0.1881,-0.4322,3.2080,0.3764,-0.0517,-0.2360,-0.1593,
12.697117,-0.4129,1.2296,-0.1881,-0.4322,3.2080,0.3764,0.0937,-0.9737,-0.0543,
12.717888,-0.1930,1.2467,-0.2060,-0.4322,3.2080,0.3764,0.0937,-0.9737,-0.0543,
12.721180,-0.1930,1.2467,-0.2060,1.8128,3.3929,0.1204,0.0937,-0.9737,-0.0543,
12.722862,-0.1930,1.2467,-0.2060,1.8128,3.3929,0.1204,0.1710,-0.3611,-0.0916,
12.736757,-0.1930,1.2467,-0.2060,1.8128,3.3929,0.1204,0.4197,0.8458,-0.3222,
12.756143,-0.3858,1.2003,-0.2853,1.8128,3.3929,0.1204,0.4197,0.8458,-0.3222,
12.758327,-0.3858,1.2003,-0.2853,-0.0255,2.9948,-0.5174,0.4197,0.8458,-0.3222,
12.760362,-0.3858,1.2003,-0.2853,-0.0255,2.9948,-0.5174,0.7031,0.6551,-0.2301,
12.775772,-0.3858,1.2003,-0.2853,-0.0255,2.9948,-0.5174,0.7627,-0.4911,-0.0756,
12.796308,-0.2455,1.3434,0.2052,-0.0255,2.9948,-0.5174,0.7627,-0.4911,-0.0756,
12.798077,-0.2455,1.3434,0.2052,1.3957,4.4920,4.5574,0.7627,-0.4911,-0.0756,
12.799086,-0.2455,1.3434,0.2052,1.3957,4.4920,4.5574,0.4943,-2.3745,0.0581,
12.816713,-0.2455,1.3434,0.2052,1.3957,4.4920,4.5574,-0.0107,-4.1449,0.4842,
12.836756,0.1595,1.0083,0.2741,1.3957,4.4920,4.5574,-0.0107,-4.1449,0.4842,
12.838733,0.1595,1.0083,0.2741,5.5789,1.1885,4.8051,-0.0107,-4.1449,0.4842,
12.840324,0.1595,1.0083,0.2741,5.5789,1.1885,4.8051,0.0224,-2.6637,0.5087,
12.856385,0.1595,1.0083,0.2741,5.5789,1.1885,4.8051,0.6610,0.4549,-0.1188,
12.877457,-0.2856,0.6946,0.0985,5.5789,1.1885,4.8051,0.6610,0.4549,-0.1188,
12.881028,-0.2856,0.6946,0.0985,1.2053,-1.9160,2.9779,0.6610,0.4549,-0.1188,
12.883130,-0.2856,0.6946,0.0985,1.2053,-1.9160,2.9779,1.0344,1.4781,-0.2578,
12.896412,-0.2856,0.6946,0.0985,1.2053,-1.9160,2.9779,0.7222,0.8645,-0.1864,
12.916698,-0.5756,0.9474,-0.0916,1.2053,-1.9160,2.9779,0.7222,0.8645,-0.1864,
12.919723,-0.5756,0.9474,-0.0916,-1.6794,0.6469,1.5243,0.7222,0.8645,-0.1864,
12.921946,-0.5756,0.9474,-0.0916,-1.6794,0.6469,1.5243,0.0048,-0.3100,0.0293,
12.936307,-0.5756,0.9474,-0.0916,-1.6794,0.6469,1.5243,-0.4847,-0.5827,0.2344,
12.956562,-0.2372,0.8165,0.0406,-1.6794,0.6469,1.5243,-0.4847,-0.5827,0.2344,
12.959140,-0.2372,0.8165,0.0406,1.6235,-0.6929,2.6314,-0.4847,-0.5827,0.2344,
12.961135,-0.2372,0.8165,0.0406,1.6235,-0.6929,2.6314,-0.4980,-0.1875,0.2024,
12.977485,-0.2372,0.8165,0.0406,1.6235,-0.6929,2.6314,-0.4421,0.0522,0.2775,
12.996849,-0.2013,0.7359,-0.1048,1.6235,-0.6929,2.6314,-0.4421,0.0522,0.2775,
13.000427,-0.2013,0.7359,-0.1048,1.8977,-1.5607,1.0322,-0.4421,0.0522,0.2775,
13.002491,-0.2013,0.7359,-0.1048,1.8977,-1.5607,1.0322,-0.5561,0.0650,0.3292,
13.016200,-0.2013,0.7359,-0.1048,1.8977,-1.5607,1.0322,-0.7979,0.1321,0.3814,
13.036787,-0.3017,0.8380,-0.0308,1.8977,-1.5607,1.0322,-0.7979,0.1321,0.3814,
13.038932,-0.3017,0.8380,-0.0308,0.7808,-0.6666,1.5339,-0.7979,0.1321,0.3814,
13.040722,-0.3017,0.8380,-0.0308,0.7808,-0.6666,1.5339,-0.8607,0.1976,0.3505,
13.056516,-0.3017,0.8380,-0.0308,0.7808,-0.6666,1.5339,-0.8080,0.2594,0.2493,
13.076760,-0.2985,0.8783,-0.0120,0.7808,-0.6666,1.5339,-0.8080,0.2594,0.2493,
13.079468,-0.2985,0.8783,-0.0120,0.6896,-0.3723,1.4540,-0.8080,0.2594,0.2493,
13.081427,-0.2985,0.8783,-0.0120,0.6896,-0.3723,1.4540,-0.6823,0.2056,0.1971,
13.095805,-0.2985,0.8783,-0.0120,0.6896,-0.3723,1.4540,-0.4858,0.0144,0.1800,
13.116246,-0.3396,0.9081,-0.1094,0.6896,-0.3723,1.4540,-0.4858,0.0144,0.1800,
13.118374,-0.3396,0.9081,-0.1094,0.2097,-0.1442,0.2956,-0.4858,0.0144,0.1800,
13.120132,-0.3396,0.9081,-0.1094,0.2097,-0.1442,0.2956,-0.3382,-0.1870,0.2381,
13.136271,-0.3396,0.9081,-0.1094,0.2097,-0.1442,0.2956,-0.2637,-0.2882,0.2929,
13.156153,-0.2773,0.8988,-0.1954,0.2097,-0.1442,0.2956,-0.2637,-0.2882,0.2929,
13.158301,-0.2773,0.8988,-0.1954,0.7302,-0.2901,-0.6892,-0.2637,-0.2882,0.2929,
13.160183,-0.2773,0.8988,-0.1954,0.7302,-0.2901,-0.6892,-0.2083,-0.3089,0.3350,
13.176050,-0.2773,0.8988,-0.1954,0.7302,-0.2901,-0.6892,-0.0985,-0.2983,0.3595,
13.197093,-0.3193,0.9640,-0.1874,0.7302,-0.2901,-0.6892,-0.0985,-0.2983,0.3595,
13.199285,-0.3193,0.9640,-0.1874,0.1974,0.2931,-0.6961,-0.0985,-0.2983,0.3595,
13.200920,-0.3193,0.9640,-0.1874,0.1974,0.2931,-0.6961,0.1129,-0.4629,0.3308,
13.216035,-0.3193,0.9640,-0.1874,0.1974,0.2931,-0.6961,0.2828,-0.5875,0.2589,
13.236098,-0.3738,1.0879,-0.0171,0.1974,0.2931,-0.6961,0.2828,-0.5875,0.2589,
13.238294,-0.3738,1.0879,-0.0171,-0.4228,1.4759,0.9711,0.2828,-0.5875,0.2589,
13.240095,-0.3738,1.0879,-0.0171,-0.4228,1.4759,0.9711,0.3116,-0.4831,0.1188,
13.255935,-0.3738,1.0879,-0.0171,-0.4228,1.4759,0.9711,0.3611,-0.2253,-0.0325,
13.277259,-0.4068,1.0075,-0.1395,-0.4228,1.4759,0.9711,0.3611,-0.2253,-0.0325,
13.279624,-0.4068,1.0075,-0.1395,-0.7444,0.6985,-0.1523,0.3611,-0.2253,-0.0325,
13.281042,-0.4068,1.0075,-0.1395,-0.7444,0.6985,-0.1523,0.4655,-0.1736,-0.0799,
13.297460,-0.4068,1.0075,-0.1395,-0.7444,0.6985,-0.1523,0.5928,-0.5374,0.0107,
13.316267,-0.2746,1.0346,-0.0713,-0.7444,0.6985,-0.1523,0.5928,-0.5374,0.0107,
13.318572,-0.2746,1.0346,-0.0713,0.5787,0.9939,0.6568,0.5928,-0.5374,0.0107,
13.320172,-0.2746,1.0346,-0.0713,0.5787,0.9939,0.6568,0.6786,-0.6487,0.1230,
13.335786,-0.2746,1.0346,-0.0713,0.5787,0.9939,0.6568,0.6631,-0.7217,-0.0069,
13.355853,-0.1717,0.9799,0.1116,0.5787,0.9939,0.6568,0.6631,-0.7217,-0.0069,
13.358411,-0.1717,0.9799,0.1116,1.5837,0.4745,2.5661,0.6631,-0.7217,-0.0069,
13.359735,-0.1717,0.9799,0.1116,1.5837,0.4745,2.5661,0.5827,-0.7153,-0.2248,
13.376116,-0.1717,0.9799,0.1116,1.5837,0.4745,2.5661,0.4037,-0.5689,-0.3047,
13.395713,-0.2272,1.0630,-0.0354,1.5837,0.4745,2.5661,0.4037,-0.5689,-0.3047,
13.398242,-0.2272,1.0630,-0.0354,1.1565,1.3425,1.1942,0.4037,-0.5689,-0.3047,
13.399943,-0.2272,1.0630,-0.0354,1.1565,1.3425,1.1942,-0.0037,-0.4293,-0.1214,
13.415850,-0.2272,1.0630,-0.0354,1.1565,1.3425,1.1942,-0.4144,-0.3776,0.1007,
13.436978,-0.1104,1.2176,0.0298,1.1565,1.3425,1.1942,-0.4144,-0.3776,0.1007,
13.440912,-0.1104,1.2176,0.0298,2.3288,2.8472,1.7027,-0.4144,-0.3776,0.1007,
13.442684,-0.1104,1.2176,0.0298,2.3288,2.8472,1.7027,-0.6200,-0.4671,0.1880,
13.455594,-0.1104,1.2176,0.0298,2.3288,2.8472,1.7027,-0.6258,-0.4884,0.2306,
13.476536,-0.2106,1.2462,0.0599,2.3288,2.8472,1.7027,-0.6258,-0.4884,0.2306,
13.479789,-0.2106,1.2462,0.0599,1.2950,3.0675,1.7057,-0.6258,-0.4884,0.2306,
13.482136,-0.2106,1.2462,0.0599,1.2950,3.0675,1.7057,-0.4197,0.0884,0.3467,
13.496023,-0.2106,1.2462,0.0599,1.2950,3.0675,1.7057,0.3989,1.8813,0.2802,
13.516013,-0.2257,0.9794,0.0530,1.2950,3.0675,1.7057,0.3989,1.8813,0.2802,
13.517806,-0.2257,0.9794,0.0530,0.9869,0.4119,1.7628,0.3989,1.8813,0.2802,
13.519045,-0.2257,0.9794,0.0530,0.9869,0.4119,1.7628,1.1675,2.5955,0.1156,
13.535503,-0.2257,0.9794,0.0530,0.9869,0.4119,1.7628,1.2325,1.6602,0.0927,
13.555938,-0.1290,0.6836,-0.1744,0.9869,0.4119,1.7628,1.2325,1.6602,0.0927,
13.558094,-0.1290,0.6836,-0.1744,1.7492,-2.4313,0.2214,1.2325,1.6602,0.0927,
13.559462,-0.1290,0.6836,-0.1744,1.7492,-2.4313,0.2214,0.9848,0.6956,0.0304,
13.576040,-0.1290,0.6836,-0.1744,1.7492,-2.4313,0.2214,0.6429,0.1949,0.0000,
13.596276,-0.0794,0.6276,-0.1906,1.7492,-2.4313,0.2214,0.6429,0.1949,0.0000,
13.599136,-0.0794,0.6276,-0.1906,2.1928,-2.9128,0.4123,0.6429,0.1949,0.0000,
13.600963,-0.0794,0.6276,-0.1906,2.1928,-2.9128,0.4123,0.2226,-0.1188,-0.0043,
13.616097,-0.0794,0.6276,-0.1906,2.1928,-2.9128,0.4123,-0.1997,-0.2802,0.0064,
13.636362,-0.0288,0.8074,-0.0977,2.1928,-2.9128,0.4123,-0.1997,-0.2802,0.0064,
13.638523,-0.0288,0.8074,-0.0977,2.7062,-1.1497,1.3024,-0.1997,-0.2802,0.0064,
13.640288,-0.0288,0.8074,-0.0977,2.7062,-1.1497,1.3024,-0.5630,-0.3654,0.0075,
13.655977,-0.0288,0.8074,-0.0977,2.7062,-1.1497,1.3024,-0.7888,-0.4964,-0.0309,
13.676439,0.1026,0.8446,0.0342,2.7062,-1.1497,1.3024,-0.7888,-0.4964,-0.0309,
13.680197,0.1026,0.8446,0.0342,4.0350,-0.8414,2.2980,-0.7888,-0.4964,-0.0309,
13.682163,0.1026,0.8446,0.0342,4.0350,-0.8414,2.2980,-0.8037,-0.7025,-0.2077,
13.695115,0.1026,0.8446,0.0342,4.0350,-0.8414,2.2980,-0.7398,-0.7313,-0.4730,
13.716163,-0.0665,0.9824,-0.1783,4.0350,-0.8414,2.2980,-0.7398,-0.7313,-0.4730,
13.720138,-0.0665,0.9824,-0.1783,2.5531,0.4965,-0.1554,-0.7398,-0.7313,-0.4730,
13.721689,-0.0665,0.9824,-0.1783,2.5531,0.4965,-0.1554,-0.8453,-0.5577,-0.5364,
13.735339,-0.0665,0.9824,-0.1783,2.5531,0.4965,-0.1554,-0.9396,-0.0799,-0.3792,
13.755435,-0.1893,1.0906,-0.1459,2.5531,0.4965,-0.1554,-0.9396,-0.0799,-0.3792,
13.758584,-0.1893,1.0906,-0.1459,1.4560,1.5389,-0.2033,-0.9396,-0.0799,-0.3792,
13.760651,-0.1893,1.0906,-0.1459,1.4560,1.5389,-0.2033,-0.5918,1.0530,-0.2322,
13.775144,-0.1893,1.0906,-0.1459,1.4560,1.5389,-0.2033,0.1971,2.2525,-0.3228,
13.795692,-0.4686,1.1700,-0.2497,1.4560,1.5389,-0.2033,0.1971,2.2525,-0.3228,
13.797964,-0.4686,1.1700,-0.2497,-1.2622,2.3447,-1.0732,0.1971,2.2525,-0.3228,
13.799752,-0.4686,1.1700,-0.2497,-1.2622,2.3447,-1.0732,0.5550,1.9478,-0.0389,
13.815208,-0.4686,1.1700,-0.2497,-1.2622,2.3447,-1.0732,1.0397,2.2450,-0.1683,
13.834822,-0.5719,1.1666,-0.3836,-1.2622,2.3447,-1.0732,1.0397,2.2450,-0.1683,
13.837533,-0.5719,1.1666,-0.3836,-2.3747,2.3779,-1.8212,1.0397,2.2450,-0.1683,
13.839222,-0.5719,1.1666,-0.3836,-2.3747,2.3779,-1.8212,1.7140,2.8064,-0.6258,
13.855299,-0.5719,1.1666,-0.3836,-2.3747,2.3779,-1.8212,1.8360,1.8722,-0.5960,
13.875435,-0.5018,1.1380,-0.4356,-2.3747,2.3779,-1.8212,1.8360,1.8722,-0.5960,
13.877651,-0.5018,1.1380,-0.4356,-1.6908,2.3484,-1.3965,1.8360,1.8722,-0.5960,
13.879411,-0.5018,1.1380,-0.4356,-1.6908,2.3484,-1.3965,0.7553,-1.1723,0.1427,
13.894582,-0.5018,1.1380,-0.4356,-1.6908,2.3484,-1.3965,-0.4863,-3.7519,0.6093,
13.915590,-0.2033,1.1099,0.0669,-1.6908,2.3484,-1.3965,-0.4863,-3.7519,0.6093,
13.917855,-0.2033,1.1099,0.0669,1.3776,2.0402,3.2503,-0.4863,-3.7519,0.6093,
13.919421,-0.2033,1.1099,0.0669,1.3776,2.0402,3.2503,-1.3444,-5.2049,1.0908,
13.935664,-0.2033,1.1099,0.0669,1.3776,2.0402,3.2503,-0.7702,-3.6730,1.4253,
13.955089,0.3560,1.0622,0.2404,1.3776,2.0402,3.2503,-0.7702,-3.6730,1.4253,
13.957830,0.3560,1.0622,0.2404,6.7729,1.3120,3.9709,-0.7702,-3.6730,1.4253,
13.959300,0.3560,1.0622,0.2404,6.7729,1.3120,3.9709,0.4783,-0.3590,1.0631,
13.975048,0.3560,1.0622,0.2404,6.7729,1.3120,3.9709,0.6189,-0.2141,0.1545,
13.995510,0.0269,1.0542,0.0880,6.7729,1.3120,3.9709,0.6189,-0.2141,0.1545,
13.999728,0.0269,1.0542,0.0880,3.3280,1.1845,2.6283,0.6189,-0.2141,0.1545,
14.001817,0.0269,1.0542,0.0880,3.3280,1.1845,2.6283,-0.2935,-1.3545,-0.2807,
14.016108,0.0269,1.0542,0.0880,3.3280,1.1845,2.6283,-1.0812,-1.1792,-0.5049,
14.035537,-0.4048,1.0178,0.2182,3.3280,1.1845,2.6283,-1.0812,-1.1792,-0.5049,
14.037770,-0.4048,1.0178,0.2182,-0.6916,0.8276,3.4719,-1.0812,-1.1792,-0.5049,
14.039428,-0.4048,1.0178,0.2182,-0.6916,0.8276,3.4719,-1.4424,-0.3808,-0.3254,
14.055069,-0.4048,1.0178,0.2182,-0.6916,0.8276,3.4719,-1.1782,0.7558,0.0868,
14.075306,-0.3242,0.8214,0.2365,-0.6916,0.8276,3.4719,-1.1782,0.7558,0.0868,
14.077641,-0.3242,0.8214,0.2365,0.1089,-1.1563,3.1107,-1.1782,0.7558,0.0868,
14.079304,-0.3242,0.8214,0.2365,0.1089,-1.1563,3.1107,-0.7089,1.5276,0.2839,
14.096296,-0.3242,0.8214,0.2365,0.1089,-1.1563,3.1107,-0.3430,1.3982,0.1614,
14.114931,-0.2228,0.6679,0.0491,0.1089,-1.1563,3.1107,-0.3430,1.3982,0.1614,
14.117803,-0.2228,0.6679,0.0491,0.9750,-2.7049,1.2684,-0.3430,1.3982,0.1614,
14.119786,-0.2228,0.6679,0.0491,0.9750,-2.7049,1.2684,-0.1539,0.8261,-0.0133,
14.134902,-0.2228,0.6679,0.0491,0.9750,-2.7049,1.2684,-0.1364,0.2626,-0.0618,
14.155031,-0.2670,0.6777,-0.0826,0.9750,-2.7049,1.2684,-0.1364,0.2626,-0.0618,
14.157802,-0.2670,0.6777,-0.0826,0.5381,-2.6091,-0.0071,-0.1364,0.2626,-0.0618,
14.159534,-0.2670,0.6777,-0.0826,0.5381,-2.6091,-0.0071,-0.2242,-0.1348,0.0037,
14.175094,-0.2670,0.6777,-0.0826,0.5381,-2.6091,-0.0071,-0.3222,-0.3462,0.1055,
14.194650,-0.2262,0.7119,-0.0994,0.5381,-2.6091,-0.0071,-0.3222,-0.3462,0.1055,
14.196992,-0.2262,0.7119,-0.0994,0.9248,-2.2888,-0.3036,-0.3222,-0.3462,0.1055,
14.198797,-0.2262,0.7119,-0.0994,0.9248,-2.2888,-0.3036,-0.3744,-0.2876,0.1672,
14.215071,-0.2262,0.7119,-0.0994,0.9248,-2.2888,-0.3036,-0.3329,-0.0218,0.1960,
14.235126,-0.2228,0.8854,-0.0836,0.9248,-2.2888,-0.3036,-0.3329,-0.0218,0.1960,
14.238950,-0.2228,0.8854,-0.0836,0.8948,-0.6198,-0.2984,-0.3329,-0.0218,0.1960,
14.241065,-0.2228,0.8854,-0.0836,0.8948,-0.6198,-0.2984,-0.2519,0.2498,0.1907,
14.254996,-0.2228,0.8854,-0.0836,0.8948,-0.6198,-0.2984,-0.2131,0.2695,0.2061,
14.275250,-0.2839,0.8817,-0.1094,0.8948,-0.6198,-0.2984,-0.2131,0.2695,0.2061,
14.278396,-0.2839,0.8817,-0.1094,0.2174,-0.6844,-0.6072,-0.2131,0.2695,0.2061,
14.280884,-0.2839,0.8817,-0.1094,0.2174,-0.6844,-0.6072,-0.1838,0.2791,0.2413,
14.294828,-0.2839,0.8817,-0.1094,0.2174,-0.6844,-0.6072,-0.1097,0.3643,0.2621,
14.315620,-0.3579,0.9863,-0.0941,0.2174,-0.6844,-0.6072,-0.1097,0.3643,0.2621,
14.320267,-0.3579,0.9863,-0.0941,-0.6041,0.3096,-0.4646,-0.1097,0.3643,0.2621,
14.323647,-0.3579,0.9863,-0.0941,-0.6041,0.3096,-0.4646,0.0053,0.4144,0.2956,
14.334877,-0.3579,0.9863,-0.0941,-0.6041,0.3096,-0.4646,0.1646,0.3851,0.3206,
14.354911,-0.4444,1.2496,-0.0462,-0.6041,0.3096,-0.4646,0.1646,0.3851,0.3206,
14.358032,-0.4444,1.2496,-0.0462,-1.5748,2.8573,0.0819,0.1646,0.3851,0.3206,
14.359865,-0.4444,1.2496,-0.0462,-1.5748,2.8573,0.0819,0.3574,0.3079,0.2876,
14.374839,-0.4444,1.2496,-0.0462,-1.5748,2.8573,0.0819,0.4634,0.1374,0.1758,
14.395539,-0.5226,1.1641,-0.1261,-1.5748,2.8573,0.0819,0.4634,0.1374,0.1758,
14.399083,-0.5226,1.1641,-0.1261,-2.4333,2.0042,-0.5226,0.4634,0.1374,0.1758,
14.400792,-0.5226,1.1641,-0.1261,-2.4333,2.0042,-0.5226,0.3925,-0.0101,0.0591,
14.414139,-0.5226,1.1641,-0.1261,-2.4333,2.0042,-0.5226,0.1369,-0.0714,0.0069,
14.434072,-0.4454,1.2408,-0.1129,-2.4333,2.0042,-0.5226,0.1369,-0.0714,0.0069,
14.436124,-0.4454,1.2408,-0.1129,-1.6879,2.7605,-0.2982,0.1369,-0.0714,0.0069,
14.437205,-0.4454,1.2408,-0.1129,-1.6879,2.7605,-0.2982,-0.0655,0.1039,-0.0378,
14.454731,-0.4454,1.2408,-0.1129,-1.6879,2.7605,-0.2982,0.0852,0.1555,-0.1529,
14.474874,-0.2607,1.1001,0.1004,-1.6879,2.7605,-0.2982,0.0852,0.1555,-0.1529,
14.479484,-0.2607,1.1001,0.1004,0.1537,1.3921,1.8095,0.0852,0.1555,-0.1529,
14.481732,-0.2607,1.1001,0.1004,0.1537,1.3921,1.8095,0.3957,-0.1912,-0.2818,
14.495968,-0.2607,1.1001,0.1004,0.1537,1.3921,1.8095,0.5523,-0.7979,-0.3723,
14.514952,-0.0652,0.9191,0.0809,0.1537,1.3921,1.8095,0.5523,-0.7979,-0.3723,
14.517167,-0.0652,0.9191,0.0809,2.2005,-0.3331,1.7247,0.5523,-0.7979,-0.3723,
14.518811,-0.0652,0.9191,0.0809,2.2005,-0.3331,1.7247,0.5454,-1.4860,-0.4437,
14.534894,-0.0652,0.9191,0.0809,2.2005,-0.3331,1.7247,0.4373,-2.0927,-0.4533,
14.554972,0.0264,1.1175,0.0989,2.2005,-0.3331,1.7247,0.4373,-2.0927,-0.4533,
14.557537,0.0264,1.1175,0.0989,3.3185,1.6770,1.8630,0.4373,-2.0927,-0.4533,
14.558884,0.0264,1.1175,0.0989,3.3185,1.6770,1.8630,0.1790,-2.3287,-0.3457,
14.574714,0.0264,1.1175,0.0989,3.3185,1.6770,1.8630,-0.1694,-2.0245,-0.1736,
14.594779,0.1952,1.2140,0.2184,3.3185,1.6770,1.8630,-0.1694,-2.0245,-0.1736,
14.596988,0.1952,1.2140,0.2184,5.1361,2.6558,2.7620,-0.1694,-2.0245,-0.1736,
14.598526,0.1952,1.2140,0.2184,5.1361,2.6558,2.7620,-0.2887,-1.3332,-0.0112,
14.614759,0.1952,1.2140,0.2184,5.1361,2.6558,2.7620,-0.1385,-0.3979,0.1081,
14.634614,0.1520,0.8758,0.0860,5.1361,2.6558,2.7620,-0.1385,-0.3979,0.1081,
14.637477,0.1520,0.8758,0.0860,4.6546,-0.6896,1.2507,-0.1385,-0.3979,0.1081,
14.639420,0.1520,0.8758,0.0860,4.6546,-0.6896,1.2507,0.1097,0.6131,0.1822,
14.654430,0.1520,0.8758,0.0860,4.6546,-0.6896,1.2507,0.2583,1.3129,0.1923,
14.674366,-0.0391,0.8043,-0.0271,4.6546,-0.6896,1.2507,0.2583,1.3129,0.1923,
14.676935,-0.0391,0.8043,-0.0271,2.6677,-1.4198,0.3211,0.2583,1.3129,0.1923,
14.678546,-0.0391,0.8043,-0.0271,2.6677,-1.4198,0.3211,0.4240,2.0123,0.1348,
14.694298,-0.0391,0.8043,-0.0271,2.6677,-1.4198,0.3211,0.7350,2.8251,-0.0836,
14.714990,-0.2551,0.8028,-0.1007,2.6677,-1.4198,0.3211,0.7350,2.8251,-0.0836,
14.718454,-0.2551,0.8028,-0.1007,0.4610,-1.4178,0.1053,0.7350,2.8251,-0.0836,
14.720669,-0.2551,0.8028,-0.1007,0.4610,-1.4178,0.1053,0.9294,3.0046,-0.1523,
14.734528,-0.2551,0.8028,-0.1007,0.4610,-1.4178,0.1053,0.7217,2.2450,-0.1209,
14.754433,-0.2507,0.7187,-0.2045,0.4610,-1.4178,0.1053,0.7217,2.2450,-0.1209,
14.756717,-0.2507,0.7187,-0.2045,0.4082,-2.1793,-0.3012,0.7217,2.2450,-0.1209,
14.758447,-0.2507,0.7187,-0.2045,0.4082,-2.1793,-0.3012,0.3164,1.1792,-0.1486,
14.774200,-0.2507,0.7187,-0.2045,0.4082,-2.1793,-0.3012,-0.0911,0.2509,-0.1763,
14.794478,-0.1483,0.7009,-0.2289,0.4082,-2.1793,-0.3012,-0.0911,0.2509,-0.1763,
14.796857,-0.1483,0.7009,-0.2289,1.4203,-2.3277,-0.4174,-0.0911,0.2509,-0.1763,
14.798930,-0.1483,0.7009,-0.2289,1.4203,-2.3277,-0.4174,-0.3814,-0.2493,-0.1438,
14.814381,-0.1483,0.7009,-0.2289,1.4203,-2.3277,-0.4174,-0.5582,-0.3329,-0.1870,
14.834193,-0.0332,0.8140,-0.2753,1.4203,-2.3277,-0.4174,-0.5582,-0.3329,-0.1870,
14.836594,-0.0332,0.8140,-0.2753,2.6289,-1.2322,-1.0788,-0.5582,-0.3329,-0.1870,
14.838387,-0.0332,0.8140,-0.2753,2.6289,-1.2322,-1.0788,-0.7974,-0.4075,-0.2397,
14.853825,-0.0332,0.8140,-0.2753,2.6289,-1.2322,-1.0788,-0.9603,-0.3031,-0.3132,
14.874818,-0.1053,0.9447,-0.2196,2.6289,-1.2322,-1.0788,-0.9603,-0.3031,-0.3132,
14.877354,-0.1053,0.9447,-0.2196,2.0450,0.0316,-0.8993,-0.9603,-0.3031,-0.3132,
14.879050,-0.1053,0.9447,-0.2196,2.0450,0.0316,-0.8993,-0.8836,0.3601,-0.3830,
14.895025,-0.1053,0.9447,-0.2196,2.0450,0.0316,-0.8993,-0.4224,1.4813,-0.5140,
14.914938,-0.4136,1.2262,-0.1268,2.0450,0.0316,-0.8993,-0.4224,1.4813,-0.5140,
14.917123,-0.4136,1.2262,-0.1268,-0.8710,2.8107,-0.1042,-0.4224,1.4813,-0.5140,
14.918867,-0.4136,1.2262,-0.1268,-0.8710,2.8107,-0.1042,0.1454,1.8578,-0.5332,
14.933617,-0.4136,1.2262,-0.1268,-0.8710,2.8107,-0.1042,0.2764,0.7207,-0.0762,
14.954251,-0.4104,1.2648,-0.1468,-0.8710,2.8107,-0.1042,0.2764,0.7207,-0.0762,
14.956596,-0.4104,1.2648,-0.1468,-0.7922,3.2390,-0.0576,0.2764,0.7207,-0.0762,
14.958463,-0.4104,1.2648,-0.1468,-0.7922,3.2390,-0.0576,0.8714,1.0227,0.0234,
14.973575,-0.4104,1.2648,-0.1468,-0.7922,3.2390,-0.0576,1.7833,2.1577,-0.2551,
14.993531,-0.3459,1.2521,-0.4632,-0.7922,3.2390,-0.0576,1.7833,2.1577,-0.2551,
14.997052,-0.3459,1.2521,-0.4632,-0.2277,3.2205,-2.4727,1.7833,2.1577,-0.2551,
14.999129,-0.3459,1.2521,-0.4632,-0.2277,3.2205,-2.4727,1.7934,1.2549,-0.1507,
15.013772,-0.3459,1.2521,-0.4632,-0.2277,3.2205,-2.4727,1.1004,-0.9998,0.1992,
15.034004,-0.1656,1.0879,-0.1752,-0.2277,3.2205,-2.4727,1.1004,-0.9998,0.1992,
15.036630,-0.1656,1.0879,-0.1752,1.5246,1.7455,0.8850,1.1004,-0.9998,0.1992,
15.038421,-0.1656,1.0879,-0.1752,1.5246,1.7455,0.8850,0.0863,-3.4488,0.4309,
15.053777,-0.1656,1.0879,-0.1752,1.5246,1.7455,0.8850,-0.9390,-5.2763,0.8389,
15.074772,0.1309,1.1790,0.1524,1.5246,1.7455,0.8850,-0.9390,-5.2763,0.8389,
15.077046,0.1309,1.1790,0.1524,4.6013,2.5203,3.3772,-0.9390,-5.2763,0.8389,
15.078636,0.1309,1.1790,0.1524,4.6013,2.5203,3.3772,-0.5385,-3.3375,0.9763,
15.094324,0.1309,1.1790,0.1524,4.6013,2.5203,3.3772,0.4139,-0.1944,0.3260,
15.114073,-0.0811,0.9987,0.2358,4.6013,2.5203,3.3772,0.4139,-0.1944,0.3260,
15.116232,-0.0811,0.9987,0.2358,2.4033,0.6605,3.9351,0.4139,-0.1944,0.3260,
15.117801,-0.0811,0.9987,0.2358,2.4033,0.6605,3.9351,0.4112,-0.6440,-0.1177,
15.133499,-0.0811,0.9987,0.2358,2.4033,0.6605,3.9351,-0.2242,-1.5004,-0.0927,
15.154259,-0.3034,1.0542,0.1996,2.4033,0.6605,3.9351,-0.2242,-1.5004,-0.0927,
15.156412,-0.3034,1.0542,0.1996,0.3290,1.2223,3.4713,-0.2242,-1.5004,-0.0927,
15.157977,-0.3034,1.0542,0.1996,0.3290,1.2223,3.4713,-0.7713,-1.2719,-0.0996,
15.174183,-0.3034,1.0542,0.1996,0.3290,1.2223,3.4713,-0.9545,-0.1049,0.0266,
15.194400,-0.3811,0.9235,0.2533,0.3290,1.2223,3.4713,-0.9545,-0.1049,0.0266,
15.196365,-0.3811,0.9235,0.2533,-0.3914,-0.1065,3.5538,-0.9545,-0.1049,0.0266,
15.198231,-0.3811,0.9235,0.2533,-0.3914,-0.1065,3.5538,-0.7713,0.9918,0.1539,
15.213959,-0.3811,0.9235,0.2533,-0.3914,-0.1065,3.5538,-0.4698,1.2709,0.1119,
15.233799,-0.2450,0.7354,0.1317,-0.3914,-0.1065,3.5538,-0.4698,1.2709,0.1119,
15.237135,-0.2450,0.7354,0.1317,0.8413,-1.9991,2.2450,-0.4698,1.2709,0.1119,
15.238961,-0.2450,0.7354,0.1317,0.8413,-1.9991,2.2450,-0.1854,0.8027,-0.0043,
15.254041,-0.2450,0.7354,0.1317,0.8413,-1.9991,2.2450,-0.0362,0.1518,-0.0874,
15.273726,-0.2541,0.7107,-0.0638,0.8413,-1.9991,2.2450,-0.0362,0.1518,-0.0874,
15.277683,-0.2541,0.7107,-0.0638,0.7511,-2.2393,0.3506,-0.0362,0.1518,-0.0874,
15.279618,-0.2541,0.7107,-0.0638,0.7511,-2.2393,0.3506,-0.0288,-0.3590,-0.0788,
15.293137,-0.2541,0.7107,-0.0638,0.7511,-2.2393,0.3506,-0.1364,-0.6045,-0.0059,
15.313371,-0.2343,0.7256,-0.1441,0.7511,-2.2393,0.3506,-0.1364,-0.6045,-0.0059,
15.315518,-0.2343,0.7256,-0.1441,0.9785,-2.0908,-0.5302,-0.1364,-0.6045,-0.0059,
15.317438,-0.2343,0.7256,-0.1441,0.9785,-2.0908,-0.5302,-0.2407,-0.5976,0.1049,
15.333197,-0.2343,0.7256,-0.1441,0.9785,-2.0908,-0.5302,-0.3031,-0.3132,0.2003,
15.353435,-0.2294,0.7854,-0.1859,0.9785,-2.0908,-0.5302,-0.3031,-0.3132,0.2003,
15.355723,-0.2294,0.7854,-0.1859,0.9851,-1.5327,-1.0991,-0.3031,-0.3132,0.2003,
15.357679,-0.2294,0.7854,-0.1859,0.9851,-1.5327,-1.0991,-0.3222,0.1135,0.2317,
15.373068,-0.2294,0.7854,-0.1859,0.9851,-1.5327,-1.0991,-0.3009,0.4176,0.2535,
15.393252,-0.3264,0.8262,-0.1390,0.9851,-1.5327,-1.0991,-0.3009,0.4176,0.2535,
15.395268,-0.3264,0.8262,-0.1390,-0.0621,-1.1722,-0.7209,-0.3009,0.4176,0.2535,
15.397261,-0.3264,0.8262,-0.1390,-0.0621,-1.1722,-0.7209,-0.2306,0.3281,0.2913,
15.413350,-0.3264,0.8262,-0.1390,-0.0621,-1.1722,-0.7209,-0.1326,0.0495,0.3206,
15.433419,-0.3454,0.9113,-0.1331,-0.0621,-1.1722,-0.7209,-0.1326,0.0495,0.3206,
15.436582,-0.3454,0.9113,-0.1331,-0.3661,-0.3806,-0.7049,-0.1326,0.0495,0.3206,
15.438708,-0.3454,0.9113,-0.1331,-0.3661,-0.3806,-0.7049,-0.0101,-0.1507,0.3281,
15.453106,-0.3454,0.9113,-0.1331,-0.3661,-0.3806,-0.7049,0.1161,-0.1917,0.3169,
15.474324,-0.3701,1.1353,-0.1322,-0.3661,-0.3806,-0.7049,0.1161,-0.1917,0.3169,
15.476858,-0.3701,1.1353,-0.1322,-0.7171,1.7812,-0.6799,0.1161,-0.1917,0.3169,
