
time,gFx,gFy,gFz,ax,ay,az,wx,wy,wz,
0.021516,0.0000,0.0000,0.0000,0.0000,0.0000,0.0000,-0.1688,-0.0884,0.0373,
0.033943,0.0933,0.3252,0.9403,0.0000,0.0000,0.0000,-0.1688,-0.0884,0.0373,
0.035093,0.0933,0.3252,0.9403,0.0000,0.0000,0.0000,-0.1688,-0.0884,0.0373,
0.054420,0.0933,0.3252,0.9403,0.0000,0.0000,0.0000,-0.1688,-0.0884,0.0373,
0.074617,0.1498,0.3164,0.8267,0.0000,0.0000,0.0000,-0.1688,-0.0884,0.0373,
0.075782,0.1498,0.3164,0.8267,-0.1682,-0.3554,-0.9286,-0.1688,-0.0884,0.0373,
0.077126,0.1498,0.3164,0.8267,-0.1682,-0.3554,-0.9286,-0.1688,-0.0884,0.0373,
0.094156,0.1498,0.3164,0.8267,-0.1682,-0.3554,-0.9286,0.5864,0.4032,-0.6381,
0.114836,0.0906,0.3293,0.9132,-0.1682,-0.3554,-0.9286,0.5864,0.4032,-0.6381,
0.117368,0.0906,0.3293,0.9132,-0.4229,-0.1664,-0.1572,0.5864,0.4032,-0.6381,
0.119014,0.0906,0.3293,0.9132,-0.4229,-0.1664,-0.1572,0.7270,0.5268,-0.7212,
0.134811,0.0906,0.3293,0.9132,-0.4229,-0.1664,-0.1572,0.9135,0.5646,-0.7808,
0.154210,0.0415,0.3704,0.8885,-0.4229,-0.1664,-0.1572,0.9135,0.5646,-0.7808,
0.156668,0.0415,0.3704,0.8885,-0.5159,0.0669,-0.3822,0.9135,0.5646,-0.7808,
0.158564,0.0415,0.3704,0.8885,-0.5159,0.0669,-0.3822,0.9950,0.5428,-0.8357,
0.174491,0.0415,0.3704,0.8885,-0.5159,0.0669,-0.3822,1.0839,0.5800,-0.9161,
0.194492,-0.0305,0.4087,0.8964,-0.5159,0.0669,-0.3822,1.0839,0.5800,-0.9161,
0.196546,-0.0305,0.4087,0.8964,-0.6832,0.2123,-0.2508,1.0839,0.5800,-0.9161,
0.198467,-0.0305,0.4087,0.8964,-0.6832,0.2123,-0.2508,1.2059,0.6695,-0.9902,
0.213779,-0.0305,0.4087,0.8964,-0.6832,0.2123,-0.2508,1.2836,0.6924,-1.0029,
0.234666,-0.1986,0.4532,0.9223,-0.6832,0.2123,-0.2508,1.2836,0.6924,-1.0029,
0.236505,-0.1986,0.4532,0.9223,-1.3135,0.4156,0.1183,1.2836,0.6924,-1.0029,
0.238197,-0.1986,0.4532,0.9223,-1.3135,0.4156,0.1183,1.3598,0.7025,-0.9215,
0.254733,-0.1986,0.4532,0.9223,-1.3135,0.4156,0.1183,1.5697,0.7531,-0.8213,
0.274494,-0.2487,0.5140,0.8504,-1.3135,0.4156,0.1183,1.5697,0.7531,-0.8213,
0.276218,-0.2487,0.5140,0.8504,-1.0311,0.5943,-0.2944,1.5697,0.7531,-0.8213,
0.278149,-0.2487,0.5140,0.8504,-1.0311,0.5943,-0.2944,1.7598,0.8767,-0.7436,
0.293928,-0.2487,0.5140,0.8504,-1.0311,0.5943,-0.2944,1.7774,0.8826,-0.7388,
0.313956,-0.2697,0.5631,0.7380,-1.0311,0.5943,-0.2944,1.7774,0.8826,-0.7388,
0.316731,-0.2697,0.5631,0.7380,-0.6646,0.5107,-0.9632,1.7774,0.8826,-0.7388,
0.318730,-0.2697,0.5631,0.7380,-0.6646,0.5107,-0.9632,1.7140,0.8645,-0.7755,
0.333844,-0.2697,0.5631,0.7380,-0.6646,0.5107,-0.9632,1.7880,1.0173,-0.7526,
0.354195,-0.3877,0.6403,0.7315,-0.6646,0.5107,-0.9632,1.7880,1.0173,-0.7526,
0.356748,-0.3877,0.6403,0.7315,-1.0641,0.7860,-0.4840,1.7880,1.0173,-0.7526,
0.358670,-0.3877,0.6403,0.7315,-1.0641,0.7860,-0.4840,1.9777,1.1409,-0.6551,
0.374062,-0.3877,0.6403,0.7315,-1.0641,0.7860,-0.4840,1.9148,0.8986,-0.6322,
0.393824,-0.3887,0.6816,0.5233,-1.0641,0.7860,-0.4840,1.9148,0.8986,-0.6322,
0.395714,-0.3887,0.6816,0.5233,-0.6219,0.6878,-1.9503,1.9148,0.8986,-0.6322,
0.397663,-0.3887,0.6816,0.5233,-0.6219,0.6878,-1.9503,1.5697,0.5188,-0.6711,
0.414197,-0.3887,0.6816,0.5233,-0.6219,0.6878,-1.9503,1.3694,0.4096,-0.6977,
0.433781,-0.5060,0.7334,0.5722,-0.6219,0.6878,-1.9503,1.3694,0.4096,-0.6977,
0.435690,-0.5060,0.7334,0.5722,-1.4561,0.8744,-1.0298,1.3694,0.4096,-0.6977,
0.437556,-0.5060,0.7334,0.5722,-1.4561,0.8744,-1.0298,1.3550,0.4309,-0.6061,
0.454065,-0.5060,0.7334,0.5722,-1.4561,0.8744,-1.0298,1.3460,0.4048,-0.4256,
0.473640,-0.4727,0.7608,0.4818,-1.4561,0.8744,-1.0298,1.3460,0.4048,-0.4256,
0.475522,-0.4727,0.7608,0.4818,-0.8706,0.8567,-1.4812,1.3460,0.4048,-0.4256,
0.477278,-0.4727,0.7608,0.4818,-0.8706,0.8567,-1.4812,1.2171,0.2983,-0.2951,
0.493476,-0.4727,0.7608,0.4818,-0.8706,0.8567,-1.4812,1.0717,0.1704,-0.2887,
0.513649,-0.4310,0.7537,0.4813,-0.8706,0.8567,-1.4812,1.0717,0.1704,-0.2887,
0.515525,-0.4310,0.7537,0.4813,-0.3121,0.5434,-1.1186,1.0717,0.1704,-0.2887,
0.517698,-0.4310,0.7537,0.4813,-0.3121,0.5434,-1.1186,0.9870,0.2200,-0.2786,
0.533472,-0.4310,0.7537,0.4813,-0.3121,0.5434,-1.1186,1.0610,0.3228,-0.2919,
0.553259,-0.4310,0.7068,0.4376,-0.3121,0.5434,-1.1186,1.0610,0.3228,-0.2919,
0.555263,-0.4310,0.7068,0.4376,-0.1628,-0.1098,-1.2050,1.0610,0.3228,-0.2919,
0.557166,-0.4310,0.7068,0.4376,-0.1628,-0.1098,-1.2050,1.0834,0.3190,-0.3079,
0.574918,-0.4310,0.7068,0.4376,-0.1628,-0.1098,-1.2050,1.0179,0.1928,-0.3137,
0.594029,-0.4415,0.7229,0.4361,-0.1628,-0.1098,-1.2050,1.0179,0.1928,-0.3137,
0.597520,-0.4415,0.7229,0.4361,0.1149,-0.2524,-0.4821,1.0179,0.1928,-0.3137,
0.599307,-0.4415,0.7229,0.4361,0.1149,-0.2524,-0.4821,1.0163,0.1321,-0.3041,
0.613878,-0.4415,0.7229,0.4361,0.1149,-0.2524,-0.4821,1.0365,0.0415,-0.3691,
0.634359,-0.5233,0.7891,0.3887,0.1149,-0.2524,-0.4821,1.0365,0.0415,-0.3691,
0.637319,-0.5233,0.7891,0.3887,-0.5686,0.2689,-0.6249,1.0365,0.0415,-0.3691,
0.639028,-0.5233,0.7891,0.3887,-0.5686,0.2689,-0.6249,1.0892,0.0953,-0.2892,
0.653656,-0.5233,0.7891,0.3887,-0.5686,0.2689,-0.6249,1.2075,0.2738,-0.2780,
0.673699,-0.5487,0.8047,0.3582,-0.5686,0.2689,-0.6249,1.2075,0.2738,-0.2780,
0.675500,-0.5487,0.8047,0.3582,-0.4536,0.3575,-0.3940,1.2075,0.2738,-0.2780,
0.677448,-0.5487,0.8047,0.3582,-0.4536,0.3575,-0.3940,1.2693,0.2722,-0.1411,
0.693809,-0.5487,0.8047,0.3582,-0.4536,0.3575,-0.3940,1.2085,0.1140,-0.2301,
0.713448,-0.4876,0.8060,0.2507,-0.4536,0.3575,-0.3940,1.2085,0.1140,-0.2301,
0.715378,-0.4876,0.8060,0.2507,0.1515,0.1032,-0.8746,1.2085,0.1140,-0.2301,
0.717075,-0.4876,0.8060,0.2507,0.1515,0.1032,-0.8746,1.1116,0.0762,-0.2684,
0.733166,-0.4876,0.8060,0.2507,0.1515,0.1032,-0.8746,0.9790,0.0538,-0.2567,
0.753627,-0.4349,0.7493,0.2240,0.1515,0.1032,-0.8746,0.9790,0.0538,-0.2567,
0.755484,-0.4349,0.7493,0.2240,0.7576,-0.5331,-0.7954,0.9790,0.0538,-0.2567,
0.757396,-0.4349,0.7493,0.2240,0.7576,-0.5331,-0.7954,0.8123,-0.1987,-0.3308,
0.773112,-0.4349,0.7493,0.2240,0.7576,-0.5331,-0.7954,0.7617,-0.3441,-0.4602,
0.794419,-0.4510,0.7466,0.2995,0.7576,-0.5331,-0.7954,0.7617,-0.3441,-0.4602,
0.797620,-0.4510,0.7466,0.2995,0.6891,-0.5713,0.1335,0.7617,-0.3441,-0.4602,
0.799300,-0.4510,0.7466,0.2995,0.6891,-0.5713,0.1335,0.7958,-0.3334,-0.5028,
0.813453,-0.4510,0.7466,0.2995,0.6891,-0.5713,0.1335,0.8602,-0.1720,-0.3233,
0.833013,-0.6132,0.8741,0.2187,0.6891,-0.5713,0.1335,0.8602,-0.1720,-0.3233,
0.834766,-0.6132,0.8741,0.2187,-0.7985,0.6739,-0.4502,0.8602,-0.1720,-0.3233,
0.836673,-0.6132,0.8741,0.2187,-0.7985,0.6739,-0.4502,0.8176,0.0027,0.0229,
0.852928,-0.6132,0.8741,0.2187,-0.7985,0.6739,-0.4502,0.7819,-0.1198,-0.1252,
0.873187,-0.5499,0.8568,0.3533,-0.7985,0.6739,-0.4502,0.7819,-0.1198,-0.1252,
0.875014,-0.5499,0.8568,0.3533,-0.1710,0.4376,1.0965,0.7819,-0.1198,-0.1252,
0.876621,-0.5499,0.8568,0.3533,-0.1710,0.4376,1.0965,0.7867,-0.1763,-0.1646,
0.893371,-0.5499,0.8568,0.3533,-0.1710,0.4376,1.0965,0.9273,-0.2402,-0.0618,
0.913316,-0.4126,0.8817,0.2050,-0.1710,0.4376,1.0965,0.9273,-0.2402,-0.0618,
0.915781,-0.4126,0.8817,0.2050,1.1730,0.6196,-0.1403,0.9273,-0.2402,-0.0618,
0.917938,-0.4126,0.8817,0.2050,1.1730,0.6196,-0.1403,0.8549,-0.4133,-0.1694,
0.932823,-0.4126,0.8817,0.2050,1.1730,0.6196,-0.1403,0.8378,-0.4389,-0.1646,
0.953431,-0.3809,0.9526,0.1673,1.1730,0.6196,-0.1403,0.8378,-0.4389,-0.1646,
0.955268,-0.3809,0.9526,0.1673,1.4717,1.2603,-0.3313,0.8378,-0.4389,-0.1646,
0.956925,-0.3809,0.9526,0.1673,1.4717,1.2603,-0.3313,1.2522,0.3680,-0.1348,
0.972677,-0.3809,0.9526,0.1673,1.4717,1.2603,-0.3313,1.5127,0.9587,-0.0591,
0.993781,-0.4835,1.0801,0.1446,1.4717,1.2603,-0.3313,1.5127,0.9587,-0.0591,
0.995602,-0.4835,1.0801,0.1446,0.5375,2.4351,0.0317,1.5127,0.9587,-0.0591,
0.997231,-0.4835,1.0801,0.1446,0.5375,2.4351,0.0317,1.7705,1.1063,0.2088,
1.014467,-0.4835,1.0801,0.1446,0.5375,2.4351,0.0317,1.7103,-0.5417,0.9316,
1.033610,-0.3628,0.9716,0.0384,0.5375,2.4351,0.0317,1.7103,-0.5417,0.9316,
1.035354,-0.3628,0.9716,0.0384,1.5322,1.1724,-0.3826,1.7103,-0.5417,0.9316,
1.037112,-0.3628,0.9716,0.0384,1.5322,1.1724,-0.3826,1.6517,-0.6658,1.2006,
1.052952,-0.3628,0.9716,0.0384,1.5322,1.1724,-0.3826,1.3300,-0.3419,1.3135,
1.073149,-0.4226,0.9486,0.1393,1.5322,1.1724,-0.3826,1.3300,-0.3419,1.3135,
1.075189,-0.4226,0.9486,0.1393,0.4954,0.6636,0.9976,1.3300,-0.3419,1.3135,
1.076576,-0.4226,0.9486,0.1393,0.4954,0.6636,0.9976,1.0759,-0.8410,1.4019,
1.094106,-0.4226,0.9486,0.1393,0.4954,0.6636,0.9976,1.0871,-1.0626,1.2512,
1.113015,-0.4940,0.8983,0.0787,0.4954,0.6636,0.9976,1.0871,-1.0626,1.2512,
1.115394,-0.4940,0.8983,0.0787,-0.6752,-0.0726,0.5962,1.0871,-1.0626,1.2512,
1.117512,-0.4940,0.8983,0.0787,-0.6752,-0.0726,0.5962,0.9726,-1.1356,1.0855,
1.133014,-0.4940,0.8983,0.0787,-0.6752,-0.0726,0.5962,0.7233,-1.4962,1.0381,
1.153438,-0.5377,0.8778,0.0572,-0.6752,-0.0726,0.5962,0.7233,-1.4962,1.0381,
1.157463,-0.5377,0.8778,0.0572,-1.4671,-0.4365,0.4620,0.7233,-1.4962,1.0381,
1.159274,-0.5377,0.8778,0.0572,-1.4671,-0.4365,0.4620,0.4751,-1.7715,0.9156,
1.172552,-0.5377,0.8778,0.0572,-1.4671,-0.4365,0.4620,0.1454,-1.6533,0.7894,
1.193616,-0.5380,0.7991,-0.0603,-1.4671,-0.4365,0.4620,0.1454,-1.6533,0.7894,
1.195501,-0.5380,0.7991,-0.0603,-1.7286,-1.3097,-0.8258,0.1454,-1.6533,0.7894,
1.197576,-0.5380,0.7991,-0.0603,-1.7286,-1.3097,-0.8258,-0.3814,-1.7588,0.5076,
1.212979,-0.5380,0.7991,-0.0603,-1.7286,-1.3097,-0.8258,-0.7233,-1.6341,0.1348,
1.232778,-0.5978,0.8414,0.0608,-1.7286,-1.3097,-0.8258,-0.7233,-1.6341,0.1348,
1.235540,-0.5978,0.8414,0.0608,-2.3940,-0.9047,-0.0653,-0.7233,-1.6341,0.1348,
1.237116,-0.5978,0.8414,0.0608,-2.3940,-0.9047,-0.0653,-0.8314,-1.6224,-0.1140,
1.252087,-0.5978,0.8414,0.0608,-2.3940,-0.9047,-0.0653,-0.9976,-1.8956,-0.3318,
1.272922,-0.4930,0.7002,-0.0557,-2.3940,-0.9047,-0.0653,-0.9976,-1.8956,-0.3318,
1.275390,-0.4930,0.7002,-0.0557,-1.3161,-2.2120,-1.7623,-0.9976,-1.8956,-0.3318,
1.277522,-0.4930,0.7002,-0.0557,-1.3161,-2.2120,-1.7623,-1.3353,-1.7769,-0.7185,
1.292345,-0.4930,0.7002,-0.0557,-1.3161,-2.2120,-1.7623,-1.4440,-1.6378,-1.0669,
1.313443,-0.5223,0.7251,0.0547,-1.3161,-2.2120,-1.7623,-1.4440,-1.6378,-1.0669,
1.315453,-0.5223,0.7251,0.0547,-1.3749,-1.7465,-1.4097,-1.4440,-1.6378,-1.0669,
1.317475,-0.5223,0.7251,0.0547,-1.3749,-1.7465,-1.4097,-1.3268,-1.4248,-1.2666,
1.333618,-0.5223,0.7251,0.0547,-1.3749,-1.7465,-1.4097,-1.1388,-1.1611,-1.5217,
1.352145,-0.5954,0.8326,0.0953,-1.3749,-1.7465,-1.4097,-1.1388,-1.1611,-1.5217,
1.354200,-0.5954,0.8326,0.0953,-1.6823,-0.3577,-1.5935,-1.1388,-1.1611,-1.5217,
1.356168,-0.5954,0.8326,0.0953,-1.6823,-0.3577,-1.5935,-0.7697,-1.1116,-1.5430,
1.372806,-0.5954,0.8326,0.0953,-1.6823,-0.3577,-1.5935,-0.7132,-1.3199,-1.6458,
1.393049,-0.4803,0.7798,-0.0545,-1.6823,-0.3577,-1.5935,-0.7132,-1.3199,-1.6458,
1.395099,-0.4803,0.7798,-0.0545,-0.1425,-0.5215,-3.4815,-0.7132,-1.3199,-1.6458,
1.397176,-0.4803,0.7798,-0.0545,-0.1425,-0.5215,-3.4815,-0.5710,-1.3971,-1.9430,
1.412294,-0.4803,0.7798,-0.0545,-0.1425,-0.5215,-3.4815,0.1017,-1.1292,-2.2829,
1.431873,-0.3340,0.8658,-0.0269,-0.1425,-0.5215,-3.4815,0.1017,-1.1292,-2.2829,
1.433902,-0.3340,0.8658,-0.0269,1.8028,0.7440,-3.5013,0.1017,-1.1292,-2.2829,
1.435518,-0.3340,0.8658,-0.0269,1.8028,0.7440,-3.5013,0.9529,-0.8091,-2.0831,
1.452499,-0.3340,0.8658,-0.0269,1.8028,0.7440,-3.5013,1.3795,-0.8804,-1.5500,
1.472723,-0.3046,0.7999,-0.3430,1.8028,0.7440,-3.5013,1.3795,-0.8804,-1.5500,
1.474487,-0.3046,0.7999,-0.3430,2.5342,0.3311,-6.4176,1.3795,-0.8804,-1.5500,
1.476152,-0.3046,0.7999,-0.3430,2.5342,0.3311,-6.4176,1.6757,-0.7452,-1.1558,
1.492642,-0.3046,0.7999,-0.3430,2.5342,0.3311,-6.4176,1.9382,-0.5470,-1.0551,
1.512299,-0.5243,0.7417,0.0159,2.5342,0.3311,-6.4176,1.9382,-0.5470,-1.0551,
1.514291,-0.5243,0.7417,0.0159,0.6375,-0.1969,-2.5046,1.9382,-0.5470,-1.0551,
1.516375,-0.5243,0.7417,0.0159,0.6375,-0.1969,-2.5046,2.3223,-0.3712,-1.1196,
1.533268,-0.5243,0.7417,0.0159,0.6375,-0.1969,-2.5046,2.5225,-0.1848,-1.2064,
1.552009,-0.7459,0.6274,0.1554,0.6375,-0.1969,-2.5046,2.5225,-0.1848,-1.2064,
1.554670,-0.7459,0.6274,0.1554,-1.2139,-1.2705,-0.4711,2.5225,-0.1848,-1.2064,
1.556368,-0.7459,0.6274,0.1554,-1.2139,-1.2705,-0.4711,2.2450,-0.8288,-0.8139,
1.571703,-0.7459,0.6274,0.1554,-1.2139,-1.2705,-0.4711,1.7710,-1.4914,-0.4293,
1.592535,-0.4410,0.5971,0.2829,-1.2139,-1.2705,-0.4711,1.7710,-1.4914,-0.4293,
1.594603,-0.4410,0.5971,0.2829,1.8757,-1.5597,1.0870,1.7710,-1.4914,-0.4293,
1.596193,-0.4410,0.5971,0.2829,1.8757,-1.5597,1.0870,1.6847,-0.3617,-0.6626,
1.611754,-0.4410,0.5971,0.2829,1.8757,-1.5597,1.0870,1.5846,0.6413,-0.3952,
1.632212,-0.6518,0.7031,-0.0352,1.8757,-1.5597,1.0870,1.5846,0.6413,-0.3952,
1.634491,-0.6518,0.7031,-0.0352,-0.0289,-0.4833,-1.5120,1.5846,0.6413,-0.3952,
1.636267,-0.6518,0.7031,-0.0352,-0.0289,-0.4833,-1.5120,1.6767,0.1662,0.3361,
1.651899,-0.6518,0.7031,-0.0352,-0.0289,-0.4833,-1.5120,2.3532,-0.4447,0.7302,
1.672726,-0.4400,0.7351,-0.1241,-0.0289,-0.4833,-1.5120,2.3532,-0.4447,0.7302,
1.674830,-0.4400,0.7351,-0.1241,1.8844,-0.3731,-1.8166,2.3532,-0.4447,0.7302,
1.676697,-0.4400,0.7351,-0.1241,1.8844,-0.3731,-1.8166,3.1329,-0.5284,0.5523,
1.692352,-0.4400,0.7351,-0.1241,1.8844,-0.3731,-1.8166,3.3226,-0.2503,0.6839,
1.712069,-0.4131,0.8113,-0.1573,1.8844,-0.3731,-1.8166,3.3226,-0.2503,0.6839,
1.714032,-0.4131,0.8113,-0.1573,1.9544,0.2021,-1.2487,3.3226,-0.2503,0.6839,
1.715717,-0.4131,0.8113,-0.1573,1.9544,0.2021,-1.2487,3.0381,-0.2503,0.8879,
1.732362,-0.4131,0.8113,-0.1573,1.9544,0.2021,-1.2487,2.5316,-0.3595,1.0535,
1.752130,-0.5578,0.9271,-0.2883,1.9544,0.2021,-1.2487,2.5316,-0.3595,1.0535,
1.754926,-0.5578,0.9271,-0.2883,0.2222,1.1752,-1.7141,2.5316,-0.3595,1.0535,
1.756547,-0.5578,0.9271,-0.2883,0.2222,1.1752,-1.7141,2.0837,-0.6951,1.6544,
1.771541,-0.5578,0.9271,-0.2883,0.2222,1.1752,-1.7141,1.8594,-1.0967,2.0693,
1.792550,-0.5499,1.0095,-0.4427,0.2222,1.1752,-1.7141,1.8594,-1.0967,2.0693,
1.794384,-0.5499,1.0095,-0.4427,-0.2536,1.6851,-2.7801,1.8594,-1.0967,2.0693,
1.796207,-0.5499,1.0095,-0.4427,-0.2536,1.6851,-2.7801,1.6453,-1.3950,2.3393,
1.813253,-0.5499,1.0095,-0.4427,-0.2536,1.6851,-2.7801,1.6352,-1.4647,2.4458,
1.832780,-0.4324,0.8934,-0.5678,-0.2536,1.6851,-2.7801,1.6352,-1.4647,2.4458,
1.836181,-0.4324,0.8934,-0.5678,0.1935,0.2016,-3.7299,1.6352,-1.4647,2.4458,
1.838126,-0.4324,0.8934,-0.5678,0.1935,0.2016,-3.7299,1.5452,-1.8605,2.7042,
1.851498,-0.4324,0.8934,-0.5678,0.1935,0.2016,-3.7299,0.7728,-2.0996,2.8150,
1.872400,-0.1197,1.0459,-0.3193,0.1935,0.2016,-3.7299,0.7728,-2.0996,2.8150,
1.874311,-0.1197,1.0459,-0.3193,2.4425,1.3404,-1.1994,0.7728,-2.0996,2.8150,
1.875952,-0.1197,1.0459,-0.3193,2.4425,1.3404,-1.1994,-0.0383,-1.3811,2.6168,
1.892036,-0.1197,1.0459,-0.3193,2.4425,1.3404,-1.1994,-0.3233,-0.7553,2.6280,
1.912418,-0.2685,1.0644,-0.0484,2.4425,1.3404,-1.1994,-0.3233,-0.7553,2.6280,
1.914998,-0.2685,1.0644,-0.0484,0.1114,1.1763,1.2546,-0.3233,-0.7553,2.6280,
1.916865,-0.2685,1.0644,-0.0484,0.1114,1.1763,1.2546,-0.2237,-1.0844,2.7473,
1.931786,-0.2685,1.0644,-0.0484,0.1114,1.1763,1.2546,-0.2716,-1.8978,2.8261,
1.951599,-0.3134,1.1766,-0.1625,0.1114,1.1763,1.2546,-0.2716,-1.8978,2.8261,
1.953941,-0.3134,1.1766,-0.1625,-1.2785,2.0073,-0.0875,-0.2716,-1.8978,2.8261,
1.955934,-0.3134,1.1766,-0.1625,-1.2785,2.0073,-0.0875,-0.2674,-1.5329,2.5225,
1.971657,-0.3134,1.1766,-0.1625,-1.2785,2.0073,-0.0875,-0.1140,-1.3753,2.3047,
1.992619,-0.2472,1.2489,-0.0435,-1.2785,2.0073,-0.0875,-0.1140,-1.3753,2.3047,
1.994978,-0.2472,1.2489,-0.0435,-1.4729,2.5727,0.9255,-0.1140,-1.3753,2.3047,
1.997089,-0.2472,1.2489,-0.0435,-1.4729,2.5727,0.9255,0.2120,-1.5915,1.9553,
2.011276,-0.2472,1.2489,-0.0435,-1.4729,2.5727,0.9255,0.3143,-1.3673,1.6607,
2.032497,-0.0139,1.0456,-0.2309,-1.4729,2.5727,0.9255,0.3143,-1.3673,1.6607,
2.034426,-0.0139,1.0456,-0.2309,0.1951,0.5489,-0.8468,0.3143,-1.3673,1.6607,
2.036089,-0.0139,1.0456,-0.2309,0.1951,0.5489,-0.8468,0.1720,-1.3928,1.4626,
2.051804,-0.0139,1.0456,-0.2309,0.1951,0.5489,-0.8468,0.1321,-1.0914,1.2149,
2.071320,0.0305,0.9902,-0.2331,0.1951,0.5489,-0.8468,0.1321,-1.0914,1.2149,
2.073682,0.0305,0.9902,-0.2331,0.1914,0.0088,-0.8118,0.1321,-1.0914,1.2149,
2.075523,0.0305,0.9902,-0.2331,0.1914,0.0088,-0.8118,0.0059,-0.9454,0.8543,
2.091115,0.0305,0.9902,-0.2331,0.1914,0.0088,-0.8118,-0.2024,-0.7910,0.4714,
2.111310,0.0396,1.0205,-0.2111,0.1914,0.0088,-0.8118,-0.2024,-0.7910,0.4714,
2.113348,0.0396,1.0205,-0.2111,0.0836,0.3064,-0.6195,-0.2024,-0.7910,0.4714,
2.114861,0.0396,1.0205,-0.2111,0.0836,0.3064,-0.6195,-0.3595,-0.6866,0.2354,
2.131172,0.0396,1.0205,-0.2111,0.0836,0.3064,-0.6195,-0.2104,-0.3952,-0.0634,
2.151735,0.2123,1.0662,-0.1805,0.0836,0.3064,-0.6195,-0.2104,-0.3952,-0.0634,
2.154331,0.2123,1.0662,-0.1805,1.7690,0.7401,-0.4187,-0.2104,-0.3952,-0.0634,
2.156029,0.2123,1.0662,-0.1805,1.7690,0.7401,-0.4187,0.0309,0.0522,-0.3888,
2.171683,0.2123,1.0662,-0.1805,1.7690,0.7401,-0.4187,0.0932,0.2514,-0.8064,
2.191887,0.0894,0.9540,-0.4774,1.7690,0.7401,-0.4187,0.0932,0.2514,-0.8064,
2.193621,0.0894,0.9540,-0.4774,0.7777,-0.3566,-3.2798,0.0932,0.2514,-0.8064,
2.195068,0.0894,0.9540,-0.4774,0.7777,-0.3566,-3.2798,-0.1459,-0.1071,-1.1617,
2.211850,0.0894,0.9540,-0.4774,0.7777,-0.3566,-3.2798,-0.8842,-0.7191,-0.7835,
2.231718,-0.1334,0.7359,-0.3286,0.7777,-0.3566,-3.2798,-0.8842,-0.7191,-0.7835,
2.233910,-0.1334,0.7359,-0.3286,-1.0104,-2.5125,-1.9833,-0.8842,-0.7191,-0.7835,
2.235806,-0.1334,0.7359,-0.3286,-1.0104,-2.5125,-1.9833,-1.0354,-1.0408,-0.3467,
2.251341,-0.1334,0.7359,-0.3286,-1.0104,-2.5125,-1.9833,-1.0051,-1.1755,-0.1433,
2.271391,-0.1945,0.8710,-0.2382,-1.0104,-2.5125,-1.9833,-1.0051,-1.1755,-0.1433,
2.273980,-0.1945,0.8710,-0.2382,-1.4618,-1.2242,-1.4828,-1.0051,-1.1755,-0.1433,
2.275766,-0.1945,0.8710,-0.2382,-1.4618,-1.2242,-1.4828,-0.9870,-0.9523,-0.1513,
2.290732,-0.1945,0.8710,-0.2382,-1.4618,-1.2242,-1.4828,-0.9204,-0.6525,-0.1150,
2.312270,-0.2411,0.9308,-0.2697,-1.4618,-1.2242,-1.4828,-0.9204,-0.6525,-0.1150,
2.314337,-0.2411,0.9308,-0.2697,-1.8230,-0.6564,-2.1293,-0.9204,-0.6525,-0.1150,
2.316296,-0.2411,0.9308,-0.2697,-1.8230,-0.6564,-2.1293,-0.8991,-0.6647,-0.1012,
2.331330,-0.2411,0.9308,-0.2697,-1.8230,-0.6564,-2.1293,-0.8565,-0.6274,-0.0698,
2.350719,-0.2311,0.9953,-0.2978,-1.8230,-0.6564,-2.1293,-0.8565,-0.6274,-0.0698,
2.353220,-0.2311,0.9953,-0.2978,-1.6424,-0.0299,-2.6783,-0.8565,-0.6274,-0.0698,
2.355050,-0.2311,0.9953,-0.2978,-1.6424,-0.0299,-2.6783,-0.8368,-0.6578,-0.0740,
2.370885,-0.2311,0.9953,-0.2978,-1.6424,-0.0299,-2.6783,-0.8059,-0.5294,-0.1449,
2.391590,-0.2770,1.1521,-0.1625,-1.6424,-0.0299,-2.6783,-0.8059,-0.5294,-0.1449,
2.393753,-0.2770,1.1521,-0.1625,-1.5888,1.5697,-0.9622,-0.8059,-0.5294,-0.1449,
2.395485,-0.2770,1.1521,-0.1625,-1.5888,1.5697,-0.9622,-0.7244,-0.4463,-0.2221,
2.411231,-0.2770,1.1521,-0.1625,-1.5888,1.5697,-0.9622,-0.6216,-0.5140,-0.2775,
2.430835,-0.3447,1.2506,0.1165,-1.5888,1.5697,-0.9622,-0.6216,-0.5140,-0.2775,
2.432959,-0.3447,1.2506,0.1165,-2.1458,2.5332,1.4880,-0.6216,-0.5140,-0.2775,
2.434630,-0.3447,1.2506,0.1165,-2.1458,2.5332,1.4880,-0.3792,-1.4844,-0.4522,
2.450559,-0.3447,1.2506,0.1165,-2.1458,2.5332,1.4880,0.1358,-2.4229,-0.2232,
2.471143,-0.4163,1.3149,-0.2675,-2.1458,2.5332,1.4880,0.1358,-2.4229,-0.2232,
2.473736,-0.4163,1.3149,-0.2675,-2.6972,3.1788,-2.4264,0.1358,-2.4229,-0.2232,
2.475424,-0.4163,1.3149,-0.2675,-2.6972,3.1788,-2.4264,0.6179,-1.1217,-0.0426,
2.491085,-0.4163,1.3149,-0.2675,-2.6972,3.1788,-2.4264,0.2802,0.2722,0.2450,
2.510537,-0.1986,1.1573,-0.0569,-2.6972,3.1788,-2.4264,0.2802,0.2722,0.2450,
2.512759,-0.1986,1.1573,-0.0569,-0.5996,1.6338,-0.2123,0.2802,0.2722,0.2450,
2.515228,-0.1986,1.1573,-0.0569,-0.5996,1.6338,-0.2123,-0.0858,-0.0485,0.2929,
2.530867,-0.1986,1.1573,-0.0569,-0.5996,1.6338,-0.2123,-0.0804,-0.4133,0.1326,
2.550113,-0.0327,0.8455,0.1138,-0.5996,1.6338,-0.2123,-0.0804,-0.4133,0.1326,
2.551443,-0.0327,0.8455,0.1138,0.9527,-1.4327,1.4147,-0.0804,-0.4133,0.1326,
2.552511,-0.0327,0.8455,0.1138,0.9527,-1.4327,1.4147,0.1097,-0.6104,-0.1417,
2.570732,-0.0327,0.8455,0.1138,0.9527,-1.4327,1.4147,0.3404,-0.7169,-0.3936,
2.591165,0.0022,0.9865,0.1512,0.9527,-1.4327,1.4147,0.3404,-0.7169,-0.3936,
2.593107,0.0022,0.9865,0.1512,1.3935,-0.0370,1.8061,0.3404,-0.7169,-0.3936,
2.594786,0.0022,0.9865,0.1512,1.3935,-0.0370,1.8061,0.5300,-0.8890,-0.5534,
2.610896,0.0022,0.9865,0.1512,1.3935,-0.0370,1.8061,0.6056,-1.0866,-0.6019,
2.630999,0.1158,1.0061,0.0687,1.3935,-0.0370,1.8061,0.6056,-1.0866,-0.6019,
2.633692,0.1158,1.0061,0.0687,2.6931,0.1876,1.1205,0.6056,-1.0866,-0.6019,
2.635396,0.1158,1.0061,0.0687,2.6931,0.1876,1.1205,0.5811,-1.1084,-0.5225,
2.650481,0.1158,1.0061,0.0687,2.6931,0.1876,1.1205,0.4964,-0.7995,-0.3276,
2.670743,0.1923,1.0046,-0.0313,2.6931,0.1876,1.1205,0.4964,-0.7995,-0.3276,
2.673623,0.1923,1.0046,-0.0313,3.5467,0.1969,0.2608,0.4964,-0.7995,-0.3276,
2.675443,0.1923,1.0046,-0.0313,3.5467,0.1969,0.2608,0.4048,-0.1720,-0.1768,
2.690319,0.1923,1.0046,-0.0313,3.5467,0.1969,0.2608,0.3691,0.5486,-0.0714,
2.711133,0.1116,0.9367,-0.0178,3.5467,0.1969,0.2608,0.3691,0.5486,-0.0714,
2.713039,0.1116,0.9367,-0.0178,2.7251,-0.4648,0.5329,0.3691,0.5486,-0.0714,
2.714802,0.1116,0.9367,-0.0178,2.7251,-0.4648,0.5329,0.3952,1.0147,0.0277,
2.730198,0.1116,0.9367,-0.0178,2.7251,-0.4648,0.5329,0.5667,1.3412,0.0629,
2.750501,0.0110,0.8661,-0.0310,2.7251,-0.4648,0.5329,0.5667,1.3412,0.0629,
2.753861,0.0110,0.8661,-0.0310,1.6551,-1.1489,0.6539,0.5667,1.3412,0.0629,
2.755779,0.0110,0.8661,-0.0310,1.6551,-1.1489,0.6539,0.8794,1.6986,0.0527,
2.770123,0.0110,0.8661,-0.0310,1.6551,-1.1489,0.6539,1.1798,2.0906,0.0506,
2.790390,-0.1397,0.8355,-0.2226,1.6551,-1.1489,0.6539,1.1798,2.0906,0.0506,
2.792645,-0.1397,0.8355,-0.2226,0.0666,-1.4013,-0.7148,1.1798,2.0906,0.0506,
2.794277,-0.1397,0.8355,-0.2226,0.0666,-1.4013,-0.7148,1.3806,2.3159,0.0575,
2.810899,-0.1397,0.8355,-0.2226,0.0666,-1.4013,-0.7148,1.2842,2.0027,0.0597,
2.830208,-0.1090,0.8018,-0.3850,0.0666,-1.4013,-0.7148,1.2842,2.0027,0.0597,
2.832991,-0.1090,0.8018,-0.3850,0.1930,-1.6401,-1.6827,1.2842,2.0027,0.0597,
2.834686,-0.1090,0.8018,-0.3850,0.1930,-1.6401,-1.6827,0.9689,1.2528,0.0538,
2.850278,-0.1090,0.8018,-0.3850,0.1930,-1.6401,-1.6827,0.6232,0.4756,0.0240,
2.870597,-0.0476,0.6755,-0.4358,0.1930,-1.6401,-1.6827,0.6232,0.4756,0.0240,
2.874060,-0.0476,0.6755,-0.4358,0.7017,-2.8078,-1.8378,0.6232,0.4756,0.0240,
2.876034,-0.0476,0.6755,-0.4358,0.7017,-2.8078,-1.8378,0.2322,-0.2104,-0.0751,
2.889536,-0.0476,0.6755,-0.4358,0.7017,-2.8078,-1.8378,-0.1534,-0.6477,-0.1859,
2.910636,-0.0042,0.6831,-0.4195,0.7017,-2.8078,-1.8378,-0.1534,-0.6477,-0.1859,
2.912754,-0.0042,0.6831,-0.4195,1.2189,-2.7234,-1.6833,-0.1534,-0.6477,-0.1859,
2.914694,-0.0042,0.6831,-0.4195,1.2189,-2.7234,-1.6833,-0.4357,-0.6424,-0.3228,
2.930620,-0.0042,0.6831,-0.4195,1.2189,-2.7234,-1.6833,-0.6578,-0.3798,-0.4160,
2.950920,-0.0828,0.8458,-0.5106,1.2189,-2.7234,-1.6833,-0.6578,-0.3798,-0.4160,
2.953412,-0.0828,0.8458,-0.5106,0.6348,-1.1592,-2.8097,-0.6578,-0.3798,-0.4160,
2.955222,-0.0828,0.8458,-0.5106,0.6348,-1.1592,-2.8097,-0.7734,0.0107,-0.4682,
2.969814,-0.0828,0.8458,-0.5106,0.6348,-1.1592,-2.8097,-0.6578,0.5044,-0.5486,
2.990694,-0.1903,1.1204,-0.4490,0.6348,-1.1592,-2.8097,-0.6578,0.5044,-0.5486,
2.992893,-0.1903,1.1204,-0.4490,-0.2610,1.5149,-2.3975,-0.6578,0.5044,-0.5486,
2.994758,-0.1903,1.1204,-0.4490,-0.2610,1.5149,-2.3975,-0.3164,0.6152,-0.6461,
3.010364,-0.1903,1.1204,-0.4490,-0.2610,1.5149,-2.3975,-0.0383,0.0282,-0.5603,
3.030809,-0.4134,1.2848,-0.3389,-0.2610,1.5149,-2.3975,-0.0383,0.0282,-0.5603,
3.033406,-0.4134,1.2848,-0.3389,-2.2447,3.1531,-1.3634,-0.0383,0.0282,-0.5603,
3.035542,-0.4134,1.2848,-0.3389,-2.2447,3.1531,-1.3634,0.3776,0.2157,-0.2141,
3.050098,-0.4134,1.2848,-0.3389,-2.2447,3.1531,-1.3634,0.8980,1.1175,-0.1838,
3.070336,-0.3662,1.2826,-0.4639,-2.2447,3.1531,-1.3634,0.8980,1.1175,-0.1838,
3.072308,-0.3662,1.2826,-0.4639,-1.7642,3.1995,-2.3010,0.8980,1.1175,-0.1838,
3.074224,-0.3662,1.2826,-0.4639,-1.7642,3.1995,-2.3010,1.2980,1.4504,-0.2269,
3.089924,-0.3662,1.2826,-0.4639,-1.7642,3.1995,-2.3010,1.0994,0.2264,0.2099,
3.110208,-0.0980,1.2533,-0.3134,-1.7642,3.1995,-2.3010,1.0994,0.2264,0.2099,
3.114175,-0.0980,1.2533,-0.3134,0.7869,3.0330,-0.3205,1.0994,0.2264,0.2099,
3.115696,-0.0980,1.2533,-0.3134,0.7869,3.0330,-0.3205,0.4820,-1.6522,0.6317,
3.130208,-0.0980,1.2533,-0.3134,0.7869,3.0330,-0.3205,-0.3968,-2.9753,0.9401,
3.149677,0.1678,1.0647,-0.0388,0.7869,3.0330,-0.3205,-0.3968,-2.9753,0.9401,
3.151552,0.1678,1.0647,-0.0388,3.3526,1.1359,2.2271,-0.3968,-2.9753,0.9401,
3.153173,0.1678,1.0647,-0.0388,3.3526,1.1359,2.2271,-0.8368,-3.0557,1.2996,
3.169805,0.1678,1.0647,-0.0388,3.3526,1.1359,2.2271,-0.3569,-1.4482,1.2815,
3.191103,0.4991,1.0627,0.0432,3.3526,1.1359,2.2271,-0.3569,-1.4482,1.2815,
3.192918,0.4991,1.0627,0.0432,6.3335,0.9767,2.6626,-0.3569,-1.4482,1.2815,
3.194491,0.4991,1.0627,0.0432,6.3335,0.9767,2.6626,0.2956,-0.0607,0.5129,
3.209915,0.4991,1.0627,0.0432,6.3335,0.9767,2.6626,-0.1790,-1.4914,-0.2855,
3.229253,0.0125,1.1468,0.0574,6.3335,0.9767,2.6626,-0.1790,-1.4914,-0.2855,
3.231363,0.0125,1.1468,0.0574,1.5913,1.7993,2.7798,-0.1790,-1.4914,-0.2855,
3.232958,0.0125,1.1468,0.0574,1.5913,1.7993,2.7798,-0.8586,-2.8091,-0.7244,
3.249115,0.0125,1.1468,0.0574,1.5913,1.7993,2.7798,-1.2906,-2.9455,-0.8053,
3.270136,-0.3335,1.0447,0.0723,1.5913,1.7993,2.7798,-1.2906,-2.9455,-0.8053,
3.273579,-0.3335,1.0447,0.0723,-1.2910,0.7679,2.3168,-1.2906,-2.9455,-0.8053,
3.275410,-0.3335,1.0447,0.0723,-1.2910,0.7679,2.3168,-1.4402,-2.1311,-0.8756,
3.289177,-0.3335,1.0447,0.0723,-1.2910,0.7679,2.3168,-1.2602,-0.3095,-0.7995,
3.311260,-0.4126,0.8626,0.2077,-1.2910,0.7679,2.3168,-1.2602,-0.3095,-0.7995,
3.313107,-0.4126,0.8626,0.2077,-1.6880,-1.0196,2.9697,-1.2602,-0.3095,-0.7995,
3.315001,-0.4126,0.8626,0.2077,-1.6880,-1.0196,2.9697,-0.8266,1.5196,-0.7265,
3.328868,-0.4126,0.8626,0.2077,-1.6880,-1.0196,2.9697,-0.4458,1.9153,-0.8448,
3.349955,-0.3589,0.7046,0.0513,-1.6880,-1.0196,2.9697,-0.4458,1.9153,-0.8448,
3.352128,-0.3589,0.7046,0.0513,-0.9219,-2.5135,1.3566,-0.4458,1.9153,-0.8448,
3.353916,-0.3589,0.7046,0.0513,-0.9219,-2.5135,1.3566,-0.2663,1.3390,-0.9609,
3.369920,-0.3589,0.7046,0.0513,-0.9219,-2.5135,1.3566,-0.3665,0.6099,-0.8282,
3.389714,-0.3965,0.5949,-0.1864,-0.9219,-2.5135,1.3566,-0.3665,0.6099,-0.8282,
3.393412,-0.3965,0.5949,-0.1864,-0.9892,-3.5014,-0.9854,-0.3665,0.6099,-0.8282,
3.395203,-0.3965,0.5949,-0.1864,-0.9892,-3.5014,-0.9854,-0.6743,0.2567,-0.5145,
3.412852,-0.3965,0.5949,-0.1864,-0.9892,-3.5014,-0.9854,-0.9907,0.4554,-0.1300,
3.430126,-0.2507,0.6315,-0.1713,-0.9892,-3.5014,-0.9854,-0.9907,0.4554,-0.1300,
3.433322,-0.2507,0.6315,-0.1713,0.5502,-3.1277,-1.1044,-0.9907,0.4554,-0.1300,
3.435483,-0.2507,0.6315,-0.1713,0.5502,-3.1277,-1.1044,-1.1191,0.8448,0.0799,
3.448973,-0.2507,0.6315,-0.1713,0.5502,-3.1277,-1.1044,-0.9934,1.1516,0.0570,
3.469370,-0.2296,0.7307,-0.0982,0.5502,-3.1277,-1.1044,-0.9934,1.1516,0.0570,
3.471571,-0.2296,0.7307,-0.0982,0.7140,-2.1820,-0.6631,-0.9934,1.1516,0.0570,
3.473395,-0.2296,0.7307,-0.0982,0.7140,-2.1820,-0.6631,-0.7159,1.1899,0.0016,
3.488768,-0.2296,0.7307,-0.0982,0.7140,-2.1820,-0.6631,-0.4224,0.5630,0.0245,
3.509976,-0.2626,0.8336,-0.0989,0.7140,-2.1820,-0.6631,-0.4224,0.5630,0.0245,
3.513520,-0.2626,0.8336,-0.0989,0.3772,-1.1812,-0.7792,-0.4224,0.5630,0.0245,
3.515980,-0.2626,0.8336,-0.0989,0.3772,-1.1812,-0.7792,-0.1300,-0.2200,0.1486,
3.528942,-0.2626,0.8336,-0.0989,0.3772,-1.1812,-0.7792,0.0714,-0.4538,0.2690,
3.549140,-0.3315,0.9394,-0.0950,0.3772,-1.1812,-0.7792,0.0714,-0.4538,0.2690,
3.551654,-0.3315,0.9394,-0.0950,-0.3740,-0.1690,-0.7910,0.0714,-0.4538,0.2690,
3.553665,-0.3315,0.9394,-0.0950,-0.3740,-0.1690,-0.7910,0.1758,-0.2557,0.3238,
3.568959,-0.3315,0.9394,-0.0950,-0.3740,-0.1690,-0.7910,0.2370,-0.0288,0.3963,
3.588849,-0.3811,1.1942,-0.0322,-0.3740,-0.1690,-0.7910,0.2370,-0.0288,0.3963,
3.591373,-0.3811,1.1942,-0.0322,-0.9866,2.2916,-0.1051,0.2370,-0.0288,0.3963,
3.593204,-0.3811,1.1942,-0.0322,-0.9866,2.2916,-0.1051,0.2695,0.0346,0.4048,
3.608704,-0.3811,1.1942,-0.0322,-0.9866,2.2916,-0.1051,0.2993,-0.0224,0.3361,
3.628914,-0.4505,1.3708,-0.1358,-0.9866,2.2916,-0.1051,0.2993,-0.0224,0.3361,
3.631102,-0.4505,1.3708,-0.1358,-1.8061,3.9860,-1.0124,0.2993,-0.0224,0.3361,
3.632943,-0.4505,1.3708,-0.1358,-1.8061,3.9860,-1.0124,0.3169,-0.0639,0.2674,
3.648683,-0.4505,1.3708,-0.1358,-1.8061,3.9860,-1.0124,0.2503,-0.0639,0.2290,
3.669193,-0.6318,1.1771,-0.4285,-1.8061,3.9860,-1.0124,0.2503,-0.0639,0.2290,
3.672731,-0.6318,1.1771,-0.4285,-3.6755,2.0661,-3.7800,0.2503,-0.0639,0.2290,
3.674685,-0.6318,1.1771,-0.4285,-3.6755,2.0661,-3.7800,0.1630,0.2178,0.2296,
3.688746,-0.6318,1.1771,-0.4285,-3.6755,2.0661,-3.7800,0.2477,0.2908,0.1326,
3.709511,-0.5040,1.3801,-0.0042,-3.6755,2.0661,-3.7800,0.2477,0.2908,0.1326,
3.711784,-0.5040,1.3801,-0.0042,-2.4966,4.0416,0.4816,0.2477,0.2908,0.1326,
3.713597,-0.5040,1.3801,-0.0042,-2.4966,4.0416,0.4816,0.4346,-0.1150,-0.0027,
3.728979,-0.5040,1.3801,-0.0042,-2.4966,4.0416,0.4816,0.5497,-0.5055,-0.0975,
3.749091,-0.2487,0.9914,0.0850,-2.4966,4.0416,0.4816,0.5497,-0.5055,-0.0975,
3.751223,-0.2487,0.9914,0.0850,0.0320,0.2492,1.5112,0.5497,-0.5055,-0.0975,
3.752817,-0.2487,0.9914,0.0850,0.0320,0.2492,1.5112,0.5625,-0.7499,-0.1763,
3.768911,-0.2487,0.9914,0.0850,0.0320,0.2492,1.5112,0.5145,-0.9284,-0.2344,
3.788979,-0.0726,0.8392,0.1224,0.0320,0.2492,1.5112,0.5145,-0.9284,-0.2344,
3.790993,-0.0726,0.8392,0.1224,1.8567,-1.2088,1.9724,0.5145,-0.9284,-0.2344,
3.792714,-0.0726,0.8392,0.1224,1.8567,-1.2088,1.9724,0.4485,-1.0860,-0.2770,
3.808907,-0.0726,0.8392,0.1224,1.8567,-1.2088,1.9724,0.3606,-1.2890,-0.3052,
3.828536,0.0665,1.0688,0.2001,1.8567,-1.2088,1.9724,0.3606,-1.2890,-0.3052,
3.830477,0.0665,1.0688,0.2001,3.3335,1.0729,2.7242,0.3606,-1.2890,-0.3052,
3.831959,0.0665,1.0688,0.2001,3.3335,1.0729,2.7242,0.2850,-1.5936,-0.3244,
3.848604,0.0665,1.0688,0.2001,3.3335,1.0729,2.7242,0.3190,-1.8418,-0.2503,
3.868049,0.0225,1.0608,0.1735,3.3335,1.0729,2.7242,0.3190,-1.8418,-0.2503,
3.870022,0.0225,1.0608,0.1735,3.0295,1.0232,2.3601,0.3190,-1.8418,-0.2503,
3.870959,0.0225,1.0608,0.1735,3.0295,1.0232,2.3601,0.3665,-1.5116,-0.0362,
3.887809,0.0225,1.0608,0.1735,3.0295,1.0232,2.3601,0.3089,-0.3009,0.2099,
3.907987,0.0599,0.8236,0.0826,3.0295,1.0232,2.3601,0.3089,-0.3009,0.2099,
3.909943,0.0599,0.8236,0.0826,3.3440,-1.3174,1.4638,0.3089,-0.3009,0.2099,
3.910903,0.0599,0.8236,0.0826,3.3440,-1.3174,1.4638,0.2557,0.6722,0.3760,
3.928771,0.0599,0.8236,0.0826,3.3440,-1.3174,1.4638,0.2242,1.1654,0.4288,
3.948119,0.0271,0.7012,0.0293,3.3440,-1.3174,1.4638,0.2242,1.1654,0.4288,
3.950476,0.0271,0.7012,0.0293,2.8442,-2.5527,1.1297,0.2242,1.1654,0.4288,
3.951985,0.0271,0.7012,0.0293,2.8442,-2.5527,1.1297,0.2407,1.4610,0.3883,
3.968028,0.0271,0.7012,0.0293,2.8442,-2.5527,1.1297,0.4016,1.9367,0.1971,
3.988903,-0.2343,0.8013,0.0054,2.8442,-2.5527,1.1297,0.4016,1.9367,0.1971,
3.991686,-0.2343,0.8013,0.0054,0.1053,-1.5876,1.1842,0.4016,1.9367,0.1971,
3.993710,-0.2343,0.8013,0.0054,0.1053,-1.5876,1.1842,1.2123,3.3343,-0.3318,
4.007797,-0.2343,0.8013,0.0054,0.1053,-1.5876,1.1842,1.8109,3.9138,-0.4091,
4.028895,-0.3244,0.7236,-0.4082,0.1053,-1.5876,1.1842,1.8109,3.9138,-0.4091,
4.031000,-0.3244,0.7236,-0.4082,-0.8667,-2.2175,-1.9607,1.8109,3.9138,-0.4091,
4.033042,-0.3244,0.7236,-0.4082,-0.8667,-2.2175,-1.9607,1.5633,3.2080,0.0229,
4.048155,-0.3244,0.7236,-0.4082,-0.8667,-2.2175,-1.9607,0.8176,1.8168,0.1646,
4.068107,-0.1222,0.6740,-0.5766,-0.8667,-2.2175,-1.9607,0.8176,1.8168,0.1646,
4.071146,-0.1222,0.6740,-0.5766,0.8426,-2.5987,-2.9503,0.8176,1.8168,0.1646,
4.073578,-0.1222,0.6740,-0.5766,0.8426,-2.5987,-2.9503,0.1252,0.7409,-0.0389,
4.088261,-0.1222,0.6740,-0.5766,0.8426,-2.5987,-2.9503,-0.3814,0.1310,-0.1545,
4.108737,-0.0200,0.7373,-0.5126,0.8426,-2.5987,-2.9503,-0.3814,0.1310,-0.1545,
4.111169,-0.0200,0.7373,-0.5126,1.8315,-1.9848,-2.3350,-0.3814,0.1310,-0.1545,
4.113083,-0.0200,0.7373,-0.5126,1.8315,-1.9848,-2.3350,-0.7686,-0.3851,-0.1880,
4.128473,-0.0200,0.7373,-0.5126,1.8315,-1.9848,-2.3350,-1.0914,-0.7686,-0.1981,
4.148533,-0.1361,0.8993,-0.4622,1.8315,-1.9848,-2.3350,-1.0914,-0.7686,-0.1981,
4.151032,-0.1361,0.8993,-0.4622,0.8158,-0.4707,-2.2141,-1.0914,-0.7686,-0.1981,
4.152931,-0.1361,0.8993,-0.4622,0.8158,-0.4707,-2.2141,-1.0967,-0.5454,-0.2823,
4.167952,-0.1361,0.8993,-0.4622,0.8158,-0.4707,-2.2141,-0.7414,-0.0730,-0.3728,
4.188621,-0.4063,1.1732,-0.2511,0.8158,-0.4707,-2.2141,-0.7414,-0.0730,-0.3728,
4.191837,-0.4063,1.1732,-0.2511,-1.6840,2.1694,-0.4893,-0.7414,-0.0730,-0.3728,
4.193970,-0.4063,1.1732,-0.2511,-1.6840,2.1694,-0.4893,-0.2482,-0.0927,-0.4080,
4.211703,-0.4063,1.1732,-0.2511,-1.6840,2.1694,-0.4893,0.0394,-0.5017,-0.1390,
4.228598,-0.4849,1.2645,-0.2873,-1.6840,2.1694,-0.4893,0.0394,-0.5017,-0.1390,
4.230958,-0.4849,1.2645,-0.2873,-2.3304,3.0824,-0.9108,0.0394,-0.5017,-0.1390,
4.232823,-0.4849,1.2645,-0.2873,-2.3304,3.0824,-0.9108,0.4799,0.4123,0.0048,
4.248111,-0.4849,1.2645,-0.2873,-2.3304,3.0824,-0.9108,1.0535,1.9734,-0.3563,
4.268048,-0.4869,0.9750,-0.6132,-2.3304,3.0824,-0.9108,1.0535,1.9734,-0.3563,
4.271014,-0.4869,0.9750,-0.6132,-2.3858,0.3262,-3.7067,1.0535,1.9734,-0.3563,
4.273010,-0.4869,0.9750,-0.6132,-2.3858,0.3262,-3.7067,0.9848,1.2394,-0.5939,
4.288174,-0.4869,0.9750,-0.6132,-2.3858,0.3262,-3.7067,0.7995,0.0985,-0.3318,
4.308906,-0.1881,1.1873,-0.4170,-2.3858,0.3262,-3.7067,0.7995,0.0985,-0.3318,
4.312270,-0.1881,1.1873,-0.4170,0.6467,2.5412,-1.3931,0.7995,0.0985,-0.3318,
4.314377,-0.1881,1.1873,-0.4170,0.6467,2.5412,-1.3931,0.2919,-0.7819,-0.0272,
4.328069,-0.1881,1.1873,-0.4170,0.6467,2.5412,-1.3931,-0.4842,-1.9297,0.2354,
4.349131,-0.0396,1.1969,0.0261,0.6467,2.5412,-1.3931,-0.4842,-1.9297,0.2354,
4.352668,-0.0396,1.1969,0.0261,2.2074,2.6143,2.7770,-0.4842,-1.9297,0.2354,
4.354205,-0.0396,1.1969,0.0261,2.2074,2.6143,2.7770,-1.0669,-2.7681,0.6951,
4.367864,-0.0396,1.1969,0.0261,2.2074,2.6143,2.7770,-1.3087,-3.0621,1.0147,
4.387701,0.3244,1.1407,0.2226,2.2074,2.6143,2.7770,-1.3087,-3.0621,1.0147,
4.390291,0.3244,1.1407,0.2226,5.7114,1.8738,3.9650,-1.3087,-3.0621,1.0147,
4.391824,0.3244,1.1407,0.2226,5.7114,1.8738,3.9650,-0.4400,-0.9380,1.0759,
4.407418,0.3244,1.1407,0.2226,5.7114,1.8738,3.9650,0.2823,0.0879,0.3894,
4.428128,-0.0271,1.0835,0.2475,5.7114,1.8738,3.9650,0.2823,0.0879,0.3894,
4.430388,-0.0271,1.0835,0.2475,2.0220,1.2373,4.1383,0.2823,0.0879,0.3894,
4.431987,-0.0271,1.0835,0.2475,2.0220,1.2373,4.1383,0.0341,-1.2133,-0.2024,
4.447377,-0.0271,1.0835,0.2475,2.0220,1.2373,4.1383,-0.2940,-2.1534,-0.4250,
4.467275,-0.3393,1.0991,0.2387,2.0220,1.2373,4.1383,-0.2940,-2.1534,-0.4250,
4.469816,-0.3393,1.0991,0.2387,-0.8115,1.4125,3.8423,-0.2940,-2.1534,-0.4250,
4.471147,-0.3393,1.0991,0.2387,-0.8115,1.4125,3.8423,-0.4703,-1.6485,-0.3111,
4.487443,-0.3393,1.0991,0.2387,-0.8115,1.4125,3.8423,-0.3611,-0.1949,-0.3276,
4.509001,-0.2453,0.8641,0.0086,-0.8115,1.4125,3.8423,-0.3611,-0.1949,-0.3276,
4.511075,-0.2453,0.8641,0.0086,0.2561,-0.8954,1.2740,-0.3611,-0.1949,-0.3276,
4.513291,-0.2453,0.8641,0.0086,0.2561,-0.8954,1.2740,-0.3590,0.6583,-0.5641,
4.527426,-0.2453,0.8641,0.0086,0.2561,-0.8954,1.2740,-0.4810,0.7169,-0.7425,
4.548634,-0.3953,0.6652,-0.2812,0.2561,-0.8954,1.2740,-0.4810,0.7169,-0.7425,
4.552949,-0.3953,0.6652,-0.2812,-1.0019,-2.7915,-1.6469,-0.4810,0.7169,-0.7425,
4.554946,-0.3953,0.6652,-0.2812,-1.0019,-2.7915,-1.6469,-0.8314,0.6125,-0.6706,
4.567321,-0.3953,0.6652,-0.2812,-1.0019,-2.7915,-1.6469,-1.3641,0.6791,-0.3308,
4.587520,-0.3723,0.5917,-0.2455,-1.0019,-2.7915,-1.6469,-1.3641,0.6791,-0.3308,
4.590110,-0.3723,0.5917,-0.2455,-0.6158,-3.4946,-1.6280,-1.3641,0.6791,-0.3308,
4.592081,-0.3723,0.5917,-0.2455,-0.6158,-3.4946,-1.6280,-1.7641,1.0163,0.0378,
4.607708,-0.3723,0.5917,-0.2455,-0.6158,-3.4946,-1.6280,-1.7406,1.3481,0.1374,
4.627103,-0.2719,0.7075,-0.0156,-0.6158,-3.4946,-1.6280,-1.7406,1.3481,0.1374,
4.629595,-0.2719,0.7075,-0.0156,0.3120,-2.4065,0.1150,-1.7406,1.3481,0.1374,
4.631368,-0.2719,0.7075,-0.0156,0.3120,-2.4065,0.1150,-1.3316,1.3518,0.1044,
4.647140,-0.2719,0.7075,-0.0156,0.3120,-2.4065,0.1150,-0.7308,1.0434,0.1060,
4.667112,-0.3071,0.8729,-0.0132,0.3120,-2.4065,0.1150,-0.7308,1.0434,0.1060,
4.669259,-0.3071,0.8729,-0.0132,-0.0783,-0.8038,-0.1046,-0.7308,1.0434,0.1060,
4.671075,-0.3071,0.8729,-0.0132,-0.0783,-0.8038,-0.1046,-0.0895,0.5039,0.1124,
4.686894,-0.3071,0.8729,-0.0132,-0.0783,-0.8038,-0.1046,0.3952,-0.2913,0.1214,
4.707084,-0.3464,0.8631,-0.1952,-0.0783,-0.8038,-0.1046,0.3952,-0.2913,0.1214,
4.709596,-0.3464,0.8631,-0.1952,-0.5074,-0.9127,-1.8185,0.3952,-0.2913,0.1214,
4.711519,-0.3464,0.8631,-0.1952,-0.5074,-0.9127,-1.8185,0.5358,-0.7867,0.2013,
4.726811,-0.3464,0.8631,-0.1952,-0.5074,-0.9127,-1.8185,0.4059,-0.7547,0.2748,
4.746932,-0.3142,0.8414,-0.2543,-0.5074,-0.9127,-1.8185,0.4059,-0.7547,0.2748,
4.749293,-0.3142,0.8414,-0.2543,-0.2746,-1.1496,-2.3054,0.4059,-0.7547,0.2748,
4.751169,-0.3142,0.8414,-0.2543,-0.2746,-1.1496,-2.3054,0.2216,-0.4139,0.2940,
4.767533,-0.3142,0.8414,-0.2543,-0.2746,-1.1496,-2.3054,0.1529,-0.0629,0.2583,
4.787215,-0.4131,1.0432,-0.0767,-0.2746,-1.1496,-2.3054,0.1529,-0.0629,0.2583,
4.790287,-0.4131,1.0432,-0.0767,-1.3130,0.8098,-0.4788,0.1529,-0.0629,0.2583,
4.791876,-0.4131,1.0432,-0.0767,-1.3130,0.8098,-0.4788,0.2061,0.0341,0.1987,
4.806571,-0.4131,1.0432,-0.0767,-1.3130,0.8098,-0.4788,0.2402,-0.0810,0.1838,
4.827961,-0.4649,1.2904,-0.0191,-1.3130,0.8098,-0.4788,0.2402,-0.0810,0.1838,
4.831615,-0.4649,1.2904,-0.0191,-1.8921,3.2150,0.1677,0.2402,-0.0810,0.1838,
4.833710,-0.4649,1.2904,-0.0191,-1.8921,3.2150,0.1677,0.2088,-0.2695,0.1933,
4.847435,-0.4649,1.2904,-0.0191,-1.8921,3.2150,0.1677,0.1843,-0.2386,0.1641,
4.866748,-0.4126,1.1956,-0.1925,-1.8921,3.2150,0.1677,0.1843,-0.2386,0.1641,
4.868978,-0.4126,1.1956,-0.1925,-1.4433,2.2702,-1.4848,0.1843,-0.2386,0.1641,
4.870791,-0.4126,1.1956,-0.1925,-1.4433,2.2702,-1.4848,0.2557,0.1720,0.1742,
4.887166,-0.4126,1.1956,-0.1925,-1.4433,2.2702,-1.4848,0.4410,0.7627,0.2530,
4.907436,-0.3972,1.3046,-0.2113,-1.4433,2.2702,-1.4848,0.4410,0.7627,0.2530,
4.911559,-0.3972,1.3046,-0.2113,-1.3825,3.3230,-1.4902,0.4410,0.7627,0.2530,
4.913523,-0.3972,1.3046,-0.2113,-1.3825,3.3230,-1.4902,0.6562,0.6855,0.2434,
4.926164,-0.3972,1.3046,-0.2113,-1.3825,3.3230,-1.4902,0.7483,-0.0570,0.1300,
4.946973,-0.2489,0.9738,-0.0413,-1.3825,3.3230,-1.4902,0.7483,-0.0570,0.1300,
4.949488,-0.2489,0.9738,-0.0413,-0.0078,0.0836,0.4729,0.7483,-0.0570,0.1300,
4.951013,-0.2489,0.9738,-0.0413,-0.0078,0.0836,0.4729,0.6924,-0.6701,0.0272,
4.966067,-0.2489,0.9738,-0.0413,-0.0078,0.0836,0.4729,0.6147,-1.2389,-0.1694,
4.986628,-0.1471,0.8057,0.0579,-0.0078,0.0836,0.4729,0.6147,-1.2389,-0.1694,
4.988867,-0.1471,0.8057,0.0579,1.0542,-1.5341,1.5744,0.6147,-1.2389,-0.1694,
4.990668,-0.1471,0.8057,0.0579,1.0542,-1.5341,1.5744,0.5603,-1.7183,-0.3292,
5.006569,-0.1471,0.8057,0.0579,1.0542,-1.5341,1.5744,0.4778,-2.1582,-0.3595,
5.027307,-0.1244,1.0422,0.0853,1.0542,-1.5341,1.5744,0.4778,-2.1582,-0.3595,
5.029707,-0.1244,1.0422,0.0853,1.4616,0.8300,1.8014,0.4778,-2.1582,-0.3595,
5.031281,-0.1244,1.0422,0.0853,1.4616,0.8300,1.8014,0.2679,-2.2296,-0.3270,
5.046601,-0.1244,1.0422,0.0853,1.4616,0.8300,1.8014,-0.0128,-1.8232,-0.1193,
5.066960,-0.0647,1.1512,0.1798,1.4616,0.8300,1.8014,-0.0128,-1.8232,-0.1193,
5.069163,-0.0647,1.1512,0.1798,2.1893,1.9223,2.5391,-0.0128,-1.8232,-0.1193,
5.070769,-0.0647,1.1512,0.1798,2.1893,1.9223,2.5391,-0.1704,-0.8671,0.1081,
5.086213,-0.0647,1.1512,0.1798,2.1893,1.9223,2.5391,-0.1981,0.1827,0.2248,
5.107394,0.0186,0.8810,0.1564,2.1893,1.9223,2.5391,-0.1981,0.1827,0.2248,
5.109523,0.0186,0.8810,0.1564,2.8878,-0.7728,2.1415,-0.1981,0.1827,0.2248,
5.111174,0.0186,0.8810,0.1564,2.8878,-0.7728,2.1415,-0.1316,0.8277,0.3244,
5.128214,0.0186,0.8810,0.1564,2.8878,-0.7728,2.1415,-0.0383,1.1127,0.3638,
5.146806,0.0479,0.7056,0.0938,2.8878,-0.7728,2.1415,-0.0383,1.1127,0.3638,
5.150334,0.0479,0.7056,0.0938,3.0208,-2.5301,1.5984,-0.0383,1.1127,0.3638,
5.151953,0.0479,0.7056,0.0938,3.0208,-2.5301,1.5984,0.0549,1.2096,0.2716,
5.166790,0.0479,0.7056,0.0938,3.0208,-2.5301,1.5984,0.4202,1.7545,0.0069,
5.186693,-0.3286,0.8201,0.0550,3.0208,-2.5301,1.5984,0.4202,1.7545,0.0069,
5.189864,-0.3286,0.8201,0.0550,-0.7677,-1.4134,1.4548,0.4202,1.7545,0.0069,
5.192529,-0.3286,0.8201,0.0550,-0.7677,-1.4134,1.4548,1.6117,3.6208,-0.5566,
5.205804,-0.3286,0.8201,0.0550,-0.7677,-1.4134,1.4548,2.2035,4.2722,-0.2461,
5.226906,-0.3425,0.7280,-0.5138,-0.7677,-1.4134,1.4548,2.2035,4.2722,-0.2461,
5.230779,-0.3425,0.7280,-0.5138,-0.9829,-2.1644,-3.0194,2.2035,4.2722,-0.2461,
5.232857,-0.3425,0.7280,-0.5138,-0.9829,-2.1644,-3.0194,1.6911,3.5100,0.2993,
5.246397,-0.3425,0.7280,-0.5138,-0.9829,-2.1644,-3.0194,0.7313,2.1747,0.2780,
5.266670,-0.1178,0.6535,-0.6054,-0.9829,-2.1644,-3.0194,0.7313,2.1747,0.2780,
5.269252,-0.1178,0.6535,-0.6054,0.8424,-2.8057,-3.2204,0.7313,2.1747,0.2780,
5.271150,-0.1178,0.6535,-0.6054,0.8424,-2.8057,-3.2204,-0.0245,1.2091,-0.0868,
5.286586,-0.1178,0.6535,-0.6054,0.8424,-2.8057,-3.2204,-0.4559,0.3190,-0.1747,
5.306200,-0.0178,0.6951,-0.4415,0.8424,-2.8057,-3.2204,-0.4559,0.3190,-0.1747,
5.308313,-0.0178,0.6951,-0.4415,1.7865,-2.4146,-1.6424,-0.4559,0.3190,-0.1747,
5.309777,-0.0178,0.6951,-0.4415,1.7865,-2.4146,-1.6424,-0.7473,-0.5720,-0.1944,
5.326903,-0.0178,0.6951,-0.4415,1.7865,-2.4146,-1.6424,-1.0115,-1.0088,-0.1965,
5.347209,-0.1417,0.8890,-0.4559,1.7865,-2.4146,-1.6424,-1.0115,-1.0088,-0.1965,
5.349306,-0.1417,0.8890,-0.4559,0.7221,-0.5845,-2.1696,-1.0115,-1.0088,-0.1965,
5.351187,-0.1417,0.8890,-0.4559,0.7221,-0.5845,-2.1696,-1.1334,-0.7675,-0.2168,
5.366405,-0.1417,0.8890,-0.4559,0.7221,-0.5845,-2.1696,-0.8815,0.0442,-0.2684,
5.386853,-0.3542,1.1311,-0.2692,0.7221,-0.5845,-2.1696,-0.8815,0.0442,-0.2684,
5.389193,-0.3542,1.1311,-0.2692,-1.2409,1.7340,-0.7018,-0.8815,0.0442,-0.2684,
5.391021,-0.3542,1.1311,-0.2692,-1.2409,1.7340,-0.7018,-0.2876,0.4085,-0.3531,
5.405514,-0.3542,1.1311,-0.2692,-1.2409,1.7340,-0.7018,0.0224,-0.3542,-0.0868,
5.426253,-0.3762,1.3144,-0.2614,-1.2409,1.7340,-0.7018,0.0224,-0.3542,-0.0868,
5.427945,-0.3762,1.3144,-0.2614,-1.3765,3.5394,-0.6725,0.0224,-0.3542,-0.0868,
5.429079,-0.3762,1.3144,-0.2614,-1.3765,3.5394,-0.6725,0.3686,0.0123,0.1694,
5.447993,-0.3762,1.3144,-0.2614,-1.3765,3.5394,-0.6725,1.1276,1.5920,-0.2631,
5.465747,-0.5020,1.1211,-0.5868,-1.3765,3.5394,-0.6725,1.1276,1.5920,-0.2631,
5.468081,-0.5020,1.1211,-0.5868,-2.6594,1.7111,-3.5107,1.1276,1.5920,-0.2631,
5.469881,-0.5020,1.1211,-0.5868,-2.6594,1.7111,-3.5107,1.3641,0.9987,-0.6338,
5.486523,-0.5020,1.1211,-0.5868,-2.6594,1.7111,-3.5107,1.2783,-0.2290,-0.3036,
5.505640,-0.2934,1.1585,-0.3992,-2.6594,1.7111,-3.5107,1.2783,-0.2290,-0.3036,
5.508033,-0.2934,1.1585,-0.3992,-0.4781,2.2535,-1.1522,1.2783,-0.2290,-0.3036,
5.510186,-0.2934,1.1585,-0.3992,-0.4781,2.2535,-1.1522,0.5513,-1.5771,0.1523,
5.526205,-0.2934,1.1585,-0.3992,-0.4781,2.2535,-1.1522,-0.7100,-3.2528,0.6354,
5.546214,0.0090,1.1617,-0.0139,-0.4781,2.2535,-1.1522,-0.7100,-3.2528,0.6354,
5.548646,0.0090,1.1617,-0.0139,2.6014,2.2388,2.3561,-0.7100,-3.2528,0.6354,
5.550216,0.0090,1.1617,-0.0139,2.6014,2.2388,2.3561,-1.4216,-3.3998,1.1606,
5.565604,0.0090,1.1617,-0.0139,2.6014,2.2388,2.3561,-0.7531,-0.7185,1.1595,
5.586365,0.2966,1.0894,0.2619,2.6014,2.2388,2.3561,-0.7531,-0.7185,1.1595,
5.588811,0.2966,1.0894,0.2619,5.1732,1.3235,4.4554,-0.7531,-0.7185,1.1595,
5.590306,0.2966,1.0894,0.2619,5.1732,1.3235,4.4554,0.3925,1.1372,0.3020,
5.605714,0.2966,1.0894,0.2619,5.1732,1.3235,4.4554,0.0027,-0.6189,-0.2775,
5.626557,-0.2551,1.0928,0.0848,5.1732,1.3235,4.4554,0.0027,-0.6189,-0.2775,
5.628670,-0.2551,1.0928,0.0848,-0.2569,1.3713,2.8164,0.0027,-0.6189,-0.2775,
5.630416,-0.2551,1.0928,0.0848,-0.2569,1.3713,2.8164,-0.5992,-1.8125,-0.7148,
5.645959,-0.2551,1.0928,0.0848,-0.2569,1.3713,2.8164,-0.9193,-1.7055,-0.7025,
5.666419,-0.4977,1.0031,0.1388,-0.2569,1.3713,2.8164,-0.9193,-1.7055,-0.7025,
5.668731,-0.4977,1.0031,0.1388,-2.2458,0.5083,2.8905,-0.9193,-1.7055,-0.7025,
5.670332,-0.4977,1.0031,0.1388,-2.2458,0.5083,2.8905,-1.0306,-0.6908,-0.4075,
5.685705,-0.4977,1.0031,0.1388,-2.2458,0.5083,2.8905,-0.8650,0.1731,-0.3531,
5.706818,-0.2301,0.7735,0.0547,-2.2458,0.5083,2.8905,-0.8650,0.1731,-0.3531,
5.710514,-0.2301,0.7735,0.0547,0.5271,-1.7594,1.6336,-0.8650,0.1731,-0.3531,
5.712902,-0.2301,0.7735,0.0547,0.5271,-1.7594,1.6336,-0.6594,0.6972,-0.5081,
5.726713,-0.2301,0.7735,0.0547,0.5271,-1.7594,1.6336,-0.6328,0.9950,-0.6056,
5.745839,-0.3039,0.6513,-0.1612,0.5271,-1.7594,1.6336,-0.6328,0.9950,-0.6056,
5.747871,-0.3039,0.6513,-0.1612,-0.0228,-2.9190,-0.6264,-0.6328,0.9950,-0.6056,
5.749926,-0.3039,0.6513,-0.1612,-0.0228,-2.9190,-0.6264,-0.7622,1.0802,-0.4911,
5.765481,-0.3039,0.6513,-0.1612,-0.0228,-2.9190,-0.6264,-0.9854,1.1840,-0.2514,
5.785754,-0.2702,0.6254,-0.2394,-0.0228,-2.9190,-0.6264,-0.9854,1.1840,-0.2514,
5.788174,-0.2702,0.6254,-0.2394,0.4063,-3.1582,-1.5804,-0.9854,1.1840,-0.2514,
5.789963,-0.2702,0.6254,-0.2394,0.4063,-3.1582,-1.5804,-1.1004,1.4493,-0.0618,
5.805788,-0.2702,0.6254,-0.2394,0.4063,-3.1582,-1.5804,-0.9476,1.5420,0.0597,
5.825701,-0.2582,0.7710,-0.1764,0.4063,-3.1582,-1.5804,-0.9476,1.5420,0.0597,
5.828104,-0.2582,0.7710,-0.1764,0.4847,-1.7582,-1.1614,-0.9476,1.5420,0.0597,
5.830003,-0.2582,0.7710,-0.1764,0.4847,-1.7582,-1.1614,-0.5965,1.1808,0.0836,
5.845528,-0.2582,0.7710,-0.1764,0.4847,-1.7582,-1.1614,-0.1710,0.4735,0.0735,
5.866432,-0.3586,0.8153,-0.1461,0.4847,-1.7582,-1.1614,-0.1710,0.4735,0.0735,
5.868762,-0.3586,0.8153,-0.1461,-0.5464,-1.3425,-0.9085,-0.1710,0.4735,0.0735,
5.870753,-0.3586,0.8153,-0.1461,-0.5464,-1.3425,-0.9085,0.1486,-0.2653,0.0794,
5.886044,-0.3586,0.8153,-0.1461,-0.5464,-1.3425,-0.9085,0.2647,-0.7212,0.1257,
5.905895,-0.3977,0.8013,-0.1119,-0.5464,-1.3425,-0.9085,0.2647,-0.7212,0.1257,
5.909720,-0.3977,0.8013,-0.1119,-0.9572,-1.4867,-0.5544,0.2647,-0.7212,0.1257,
5.911673,-0.3977,0.8013,-0.1119,-0.9572,-1.4867,-0.5544,0.2147,-0.8602,0.1784,
5.924969,-0.3977,0.8013,-0.1119,-0.9572,-1.4867,-0.5544,0.1087,-0.6184,0.2226,
5.946440,-0.3496,0.9347,-0.1107,-0.9572,-1.4867,-0.5544,0.1087,-0.6184,0.2226,
5.948980,-0.3496,0.9347,-0.1107,-0.5361,-0.1962,-0.5599,0.1087,-0.6184,0.2226,
5.950928,-0.3496,0.9347,-0.1107,-0.5361,-0.1962,-0.5599,0.0378,-0.2008,0.2376,
5.965064,-0.3496,0.9347,-0.1107,-0.5361,-0.1962,-0.5599,0.0655,-0.0218,0.2152,
5.985312,-0.3801,1.2289,-0.0916,-0.5361,-0.1962,-0.5599,0.0655,-0.0218,0.2152,
5.987575,-0.3801,1.2289,-0.0916,-0.9140,2.6630,-0.3629,0.0655,-0.0218,0.2152,
5.989381,-0.3801,1.2289,-0.0916,-0.9140,2.6630,-0.3629,0.0783,-0.2157,0.2173,
6.004841,-0.3801,1.2289,-0.0916,-0.9140,2.6630,-0.3629,0.0543,-0.3441,0.2461,
6.024889,-0.5128,1.2758,-0.2780,-0.9140,2.6630,-0.3629,0.0543,-0.3441,0.2461,
6.027005,-0.5128,1.2758,-0.2780,-2.2951,3.0985,-2.1958,0.0543,-0.3441,0.2461,
6.028303,-0.5128,1.2758,-0.2780,-2.2951,3.0985,-2.1958,0.0842,0.0772,0.2525,
6.044484,-0.5128,1.2758,-0.2780,-2.2951,3.0985,-2.1958,0.2370,0.6237,0.2674,
6.065660,-0.5099,1.2982,-0.3081,-2.2951,3.0985,-2.1958,0.2370,0.6237,0.2674,
6.067988,-0.5099,1.2982,-0.3081,-2.3722,3.2946,-2.3927,0.2370,0.6237,0.2674,
6.069804,-0.5099,1.2982,-0.3081,-2.3722,3.2946,-2.3927,0.4240,0.4772,0.2855,
6.085265,-0.5099,1.2982,-0.3081,-2.3722,3.2946,-2.3927,0.5374,-0.1417,0.1971,
6.105395,-0.3970,1.1900,-0.0200,-2.3722,3.2946,-2.3927,0.5374,-0.1417,0.1971,
6.108520,-0.3970,1.1900,-0.0200,-1.3613,2.2233,0.6288,0.5374,-0.1417,0.1971,
6.110828,-0.3970,1.1900,-0.0200,-1.3613,2.2233,0.6288,0.6120,-0.6040,0.0756,
6.128477,-0.3970,1.1900,-0.0200,-1.3613,2.2233,0.6288,0.6322,-0.9358,0.0064,
6.145522,-0.2116,0.8057,0.0445,-1.3613,2.2233,0.6288,0.6322,-0.9358,0.0064,
6.147570,-0.2116,0.8057,0.0445,0.4721,-1.5237,1.4147,0.6322,-0.9358,0.0064,
6.149270,-0.2116,0.8057,0.0445,0.4721,-1.5237,1.4147,0.5971,-1.2314,-0.0639,
6.165060,-0.2116,0.8057,0.0445,0.4721,-1.5237,1.4147,0.5193,-1.5127,-0.1108,
6.185340,-0.0894,0.9076,0.0674,0.4721,-1.5237,1.4147,0.5193,-1.5127,-0.1108,
6.188757,-0.0894,0.9076,0.0674,1.7441,-0.5016,1.6696,0.5193,-1.5127,-0.1108,
6.190281,-0.0894,0.9076,0.0674,1.7441,-0.5016,1.6696,0.3830,-1.6464,-0.1246,
6.204753,-0.0894,0.9076,0.0674,1.7441,-0.5016,1.6696,0.2019,-1.6549,-0.1454,
6.224560,-0.0032,1.1644,0.1808,1.7441,-0.5016,1.6696,0.2019,-1.6549,-0.1454,
6.226556,-0.0032,1.1644,0.1808,2.6858,2.0331,2.6927,0.2019,-1.6549,-0.1454,
6.228161,-0.0032,1.1644,0.1808,2.6858,2.0331,2.6927,0.0852,-1.6022,-0.0980,
6.244976,-0.0032,1.1644,0.1808,2.6858,2.0331,2.6927,0.0794,-1.2165,0.0421,
6.265635,-0.0513,1.0073,0.0669,2.6858,2.0331,2.6927,0.0794,-1.2165,0.0421,
6.267533,-0.0513,1.0073,0.0669,2.2315,0.4845,1.4191,0.0794,-1.2165,0.0421,
6.269156,-0.0513,1.0073,0.0669,2.2315,0.4845,1.4191,0.0581,-0.2226,0.2812,
6.284972,-0.0513,1.0073,0.0669,2.2315,0.4845,1.4191,0.0325,0.6440,0.4234,
6.305120,0.0088,0.7588,0.0132,2.2315,0.4845,1.4191,0.0325,0.6440,0.4234,
6.308356,0.0088,0.7588,0.0132,2.6669,-1.9913,0.9218,0.0325,0.6440,0.4234,
6.310376,0.0088,0.7588,0.0132,2.6669,-1.9913,0.9218,0.0463,1.2362,0.4224,
6.327995,0.0088,0.7588,0.0132,2.6669,-1.9913,0.9218,0.1614,1.7151,0.3004,
6.344833,-0.1244,0.7666,0.0015,2.6669,-1.9913,0.9218,0.1614,1.7151,0.3004,
6.346942,-0.1244,0.7666,0.0015,1.1738,-1.9470,0.9920,0.1614,1.7151,0.3004,
6.348714,-0.1244,0.7666,0.0015,1.1738,-1.9470,0.9920,0.5779,2.4906,0.0389,
6.364046,-0.1244,0.7666,0.0015,1.1738,-1.9470,0.9920,1.3374,3.6773,-0.2226,
6.384497,-0.3740,0.7859,-0.3235,1.1738,-1.9470,0.9920,1.3374,3.6773,-0.2226,
6.386578,-0.3740,0.7859,-0.3235,-1.3967,-1.6991,-1.5451,1.3374,3.6773,-0.2226,
6.388591,-0.3740,0.7859,-0.3235,-1.3967,-1.6991,-1.5451,1.4669,3.4914,0.1353,
6.404091,-0.3740,0.7859,-0.3235,-1.3967,-1.6991,-1.5451,1.0472,2.3446,0.3116,
6.425765,-0.1815,0.7231,-0.5045,-1.3967,-1.6991,-1.5451,1.0472,2.3446,0.3116,
6.428819,-0.1815,0.7231,-0.5045,0.1753,-2.2331,-2.6009,1.0472,2.3446,0.3116,
6.430513,-0.1815,0.7231,-0.5045,0.1753,-2.2331,-2.6009,0.5193,1.0397,0.0884,
6.444130,-0.1815,0.7231,-0.5045,0.1753,-2.2331,-2.6009,0.1097,0.0905,-0.1204,
6.464896,-0.0662,0.6696,-0.4026,0.1753,-2.2331,-2.6009,0.1097,0.0905,-0.1204,
6.467247,-0.0662,0.6696,-0.4026,1.2566,-2.7258,-1.4422,0.1097,0.0905,-0.1204,
6.469093,-0.0662,0.6696,-0.4026,1.2566,-2.7258,-1.4422,-0.2365,-0.4863,-0.1635,
6.484737,-0.0662,0.6696,-0.4026,1.2566,-2.7258,-1.4422,-0.5342,-0.9039,-0.2013,
6.504682,-0.0511,0.8299,-0.4202,1.2566,-2.7258,-1.4422,-0.5342,-0.9039,-0.2013,
6.507754,-0.0511,0.8299,-0.4202,1.5397,-1.1778,-1.8126,-0.5342,-0.9039,-0.2013,
6.510431,-0.0511,0.8299,-0.4202,1.5397,-1.1778,-1.8126,-0.8464,-1.0514,-0.2242,
6.524548,-0.0511,0.8299,-0.4202,1.5397,-1.1778,-1.8126,-1.0610,-0.7164,-0.2429,
6.545550,-0.2907,0.9572,-0.3941,1.5397,-1.1778,-1.8126,-1.0610,-0.7164,-0.2429,
6.548365,-0.2907,0.9572,-0.3941,-0.6526,0.0175,-1.9432,-1.0610,-0.7164,-0.2429,
6.550770,-0.2907,0.9572,-0.3941,-0.6526,0.0175,-1.9432,-0.9012,0.0820,-0.2663,
6.564908,-0.2907,0.9572,-0.3941,-0.6526,0.0175,-1.9432,-0.3723,0.4692,-0.2386,
6.584231,-0.4500,1.2032,-0.1595,-0.6526,0.0175,-1.9432,-0.3723,0.4692,-0.2386,
6.586655,-0.4500,1.2032,-0.1595,-2.1356,2.4068,0.1469,-0.3723,0.4692,-0.2386,
6.588302,-0.4500,1.2032,-0.1595,-2.1356,2.4068,0.1469,0.0112,-0.1827,-0.1108,
6.603752,-0.4500,1.2032,-0.1595,-2.1356,2.4068,0.1469,0.2194,-0.2951,0.0900,
6.624788,-0.4007,1.2064,-0.4422,-2.1356,2.4068,0.1469,0.2194,-0.2951,0.0900,
6.627065,-0.4007,1.2064,-0.4422,-1.6316,2.4468,-2.6019,0.2194,-0.2951,0.0900,
6.628900,-0.4007,1.2064,-0.4422,-1.6316,2.4468,-2.6019,1.0796,1.7321,-0.1566,
6.643707,-0.4007,1.2064,-0.4422,-1.6316,2.4468,-2.6019,1.3476,1.4898,-0.5534,
6.663928,-0.3963,1.1118,-0.7007,-1.6316,2.4468,-2.6019,1.3476,1.4898,-0.5534,
6.666220,-0.3963,1.1118,-0.7007,-1.5860,1.6513,-4.5367,1.3476,1.4898,-0.5534,
6.667953,-0.3963,1.1118,-0.7007,-1.5860,1.6513,-4.5367,1.2773,0.3574,-0.4788,
6.684364,-0.3963,1.1118,-0.7007,-1.5860,1.6513,-4.5367,0.6983,-0.8639,-0.1806,
6.703489,-0.1478,1.0283,-0.2184,-1.5860,1.6513,-4.5367,0.6983,-0.8639,-0.1806,
6.705313,-0.1478,1.0283,-0.2184,0.9976,0.9627,0.5265,0.6983,-0.8639,-0.1806,
6.706729,-0.1478,1.0283,-0.2184,0.9976,0.9627,0.5265,-0.5257,-2.5476,0.2583,
6.725087,-0.1478,1.0283,-0.2184,0.9976,0.9627,0.5265,-1.3763,-3.3529,0.6498,
6.743964,0.0894,1.2741,0.1156,0.9976,0.9627,0.5265,-1.3763,-3.3529,0.6498,
6.745810,0.0894,1.2741,0.1156,3.4353,3.2372,3.1541,-1.3763,-3.3529,0.6498,
6.747320,0.0894,1.2741,0.1156,3.4353,3.2372,3.1541,-1.5569,-2.8022,0.8320,
6.764165,0.0894,1.2741,0.1156,3.4353,3.2372,3.1541,0.0368,0.8783,0.9784,
6.783572,0.1439,1.0403,0.3318,3.4353,3.2372,3.1541,0.0368,0.8783,0.9784,
6.785552,0.1439,1.0403,0.3318,3.7045,0.8021,4.8914,0.0368,0.8783,0.9784,
6.787097,0.1439,1.0403,0.3318,3.7045,0.8021,4.8914,0.4123,0.0602,0.3372,
6.804484,0.1439,1.0403,0.3318,3.7045,0.8021,4.8914,0.0719,-1.4344,-0.2168,
6.824175,-0.3305,1.1211,0.1739,3.7045,0.8021,4.8914,0.0719,-1.4344,-0.2168,
6.826146,-0.3305,1.1211,0.1739,-0.9212,1.6055,3.3732,0.0719,-1.4344,-0.2168,
6.827854,-0.3305,1.1211,0.1739,-0.9212,1.6055,3.3732,-0.1513,-1.4472,-0.4820,
6.843581,-0.3305,1.1211,0.1739,-0.9212,1.6055,3.3732,-0.1944,-0.7217,-0.4432,
6.863517,-0.3369,0.9318,0.0396,-0.9212,1.6055,3.3732,-0.1944,-0.7217,-0.4432,
6.865648,-0.3369,0.9318,0.0396,-0.7478,-0.2227,1.8536,-0.1944,-0.7217,-0.4432,
6.867081,-0.3369,0.9318,0.0396,-0.7478,-0.2227,1.8536,-0.3489,-0.1997,-0.2967,
6.883263,-0.3369,0.9318,0.0396,-0.7478,-0.2227,1.8536,-0.4703,0.0980,-0.3350,
6.903764,-0.2174,0.6692,-0.1654,-0.7478,-0.2227,1.8536,-0.4703,0.0980,-0.3350,
6.906088,-0.2174,0.6692,-0.1654,0.5434,-2.7865,-0.3154,-0.4703,0.0980,-0.3350,
6.907801,-0.2174,0.6692,-0.1654,0.5434,-2.7865,-0.3154,-0.6290,0.4314,-0.4517,
6.923665,-0.2174,0.6692,-0.1654,0.5434,-2.7865,-0.3154,-0.8069,0.8575,-0.4884,
6.943715,-0.2846,0.5920,-0.3643,0.5434,-2.7865,-0.3154,-0.8069,0.8575,-0.4884,
6.945583,-0.2846,0.5920,-0.3643,0.0294,-3.5260,-2.4608,-0.8069,0.8575,-0.4884,
6.946624,-0.2846,0.5920,-0.3643,0.0294,-3.5260,-2.4608,-0.9710,1.3667,-0.3079,
6.963812,-0.2846,0.5920,-0.3643,0.0294,-3.5260,-2.4608,-0.9587,1.5052,-0.0341,
6.983068,-0.2934,0.6718,-0.2641,0.0294,-3.5260,-2.4608,-0.9587,1.5052,-0.0341,
6.984828,-0.2934,0.6718,-0.2641,-0.0507,-2.7626,-1.6764,-0.9587,1.5052,-0.0341,
6.985969,-0.2934,0.6718,-0.2641,-0.0507,-2.7626,-1.6764,-0.7159,0.8133,0.1529,
7.003728,-0.2934,0.6718,-0.2641,-0.0507,-2.7626,-1.6764,-0.3574,-0.1694,0.1326,
7.023600,-0.4080,0.7637,-0.0963,-0.0507,-2.7626,-1.6764,-0.3574,-0.1694,0.1326,
7.026985,-0.4080,0.7637,-0.0963,-1.2384,-1.8963,-0.1960,-0.3574,-0.1694,0.1326,
7.029048,-0.4080,0.7637,-0.0963,-1.2384,-1.8963,-0.1960,-0.0959,-0.6221,0.0714,
7.044243,-0.4080,0.7637,-0.0963,-1.2384,-1.8963,-0.1960,0.0149,-0.6440,0.0921,
7.063007,-0.4473,0.8211,-0.0821,-1.2384,-1.8963,-0.1960,0.0149,-0.6440,0.0921,
7.065403,-0.4473,0.8211,-0.0821,-1.6368,-1.3438,-0.1419,0.0149,-0.6440,0.0921,
7.067259,-0.4473,0.8211,-0.0821,-1.6368,-1.3438,-0.1419,0.0304,-0.4581,0.1252,
7.082946,-0.4473,0.8211,-0.0821,-1.6368,-1.3438,-0.1419,-0.0314,-0.1060,0.1710,
7.102930,-0.3762,0.8385,-0.1669,-1.6368,-1.3438,-0.1419,-0.0314,-0.1060,0.1710,
7.104979,-0.3762,0.8385,-0.1669,-0.9883,-1.1899,-1.0037,-0.0314,-0.1060,0.1710,
7.106360,-0.3762,0.8385,-0.1669,-0.9883,-1.1899,-1.0037,-0.0975,0.2642,0.2120,
7.122874,-0.3762,0.8385,-0.1669,-0.9883,-1.1899,-1.0037,-0.0788,0.2546,0.2051,
7.142817,-0.3381,1.0295,-0.1952,-0.9883,-1.1899,-1.0037,-0.0788,0.2546,0.2051,
7.145190,-0.3381,1.0295,-0.1952,-0.6661,0.6698,-1.2526,-0.0788,0.2546,0.2051,
7.146505,-0.3381,1.0295,-0.1952,-0.6661,0.6698,-1.2526,-0.0165,0.0288,0.1779,
7.163460,-0.3381,1.0295,-0.1952,-0.6661,0.6698,-1.2526,0.0538,-0.1204,0.1459,
7.182608,-0.4393,1.3163,-0.2653,-0.6661,0.6698,-1.2526,0.0538,-0.1204,0.1459,
7.184415,-0.4393,1.3163,-0.2653,-1.7170,3.4641,-1.9374,0.0538,-0.1204,0.1459,
7.185607,-0.4393,1.3163,-0.2653,-1.7170,3.4641,-1.9374,0.1262,-0.0501,0.1369,
7.202666,-0.4393,1.3163,-0.2653,-1.7170,3.4641,-1.9374,0.1843,0.1294,0.1188,
7.222749,-0.6108,1.4084,-0.2238,-1.7170,3.4641,-1.9374,0.1843,0.1294,0.1188,
7.225210,-0.6108,1.4084,-0.2238,-3.4471,4.3579,-1.4679,0.1843,0.1294,0.1188,
7.227058,-0.6108,1.4084,-0.2238,-3.4471,4.3579,-1.4679,0.2077,0.1443,0.1300,
7.243534,-0.6108,1.4084,-0.2238,-3.4471,4.3579,-1.4679,0.1901,0.0554,0.1135,
7.262644,-0.4239,1.1903,-0.0166,-3.4471,4.3579,-1.4679,0.1901,0.0554,0.1135,
7.264533,-0.4239,1.1903,-0.0166,-1.6645,2.2138,0.6475,0.1901,0.0554,0.1135,
7.265699,-0.4239,1.1903,-0.0166,-1.6645,2.2138,0.6475,0.1912,-0.0320,0.0447,
7.282697,-0.4239,1.1903,-0.0166,-1.6645,2.2138,0.6475,0.2413,-0.2296,-0.0112,
7.302693,-0.2038,0.8275,0.0577,-1.6645,2.2138,0.6475,0.2413,-0.2296,-0.0112,
7.304794,-0.2038,0.8275,0.0577,0.4908,-1.3359,1.4440,0.2413,-0.2296,-0.0112,
7.306394,-0.2038,0.8275,0.0577,0.4908,-1.3359,1.4440,0.2988,-0.4719,-0.0581,
7.322884,-0.2038,0.8275,0.0577,0.4908,-1.3359,1.4440,0.3116,-0.7760,-0.1390,
7.342413,-0.0728,0.9445,0.0867,0.4908,-1.3359,1.4440,0.3116,-0.7760,-0.1390,
7.344015,-0.0728,0.9445,0.0867,1.8243,-0.1736,1.7516,0.3116,-0.7760,-0.1390,
7.344976,-0.0728,0.9445,0.0867,1.8243,-0.1736,1.7516,0.2631,-1.1505,-0.1901,
7.363014,-0.0728,0.9445,0.0867,1.8243,-0.1736,1.7516,0.1683,-1.4615,-0.2274,
7.382298,0.0445,1.1350,0.1266,1.8243,-0.1736,1.7516,0.1683,-1.4615,-0.2274,
7.383964,0.0445,1.1350,0.1266,3.0764,1.7154,2.0684,0.1683,-1.4615,-0.2274,
7.385060,0.0445,1.1350,0.1266,3.0764,1.7154,2.0684,0.1204,-1.7018,-0.1965,
7.403049,0.0445,1.1350,0.1266,3.0764,1.7154,2.0684,0.1593,-1.5340,-0.0085,
7.422862,0.0203,1.0498,-0.0635,3.0764,1.7154,2.0684,0.1593,-1.5340,-0.0085,
7.426088,0.0203,1.0498,-0.0635,2.8893,0.8831,0.0708,0.1593,-1.5340,-0.0085,
7.427522,0.0203,1.0498,-0.0635,2.8893,0.8831,0.0708,0.1561,-0.5518,0.2716,
7.442754,0.0203,1.0498,-0.0635,2.8893,0.8831,0.0708,0.0975,0.8740,0.4549,
7.463596,-0.0051,0.7757,-0.0298,2.8893,0.8831,0.0708,0.0975,0.8740,0.4549,
7.465542,-0.0051,0.7757,-0.0298,2.4687,-1.8465,0.4557,0.0975,0.8740,0.4549,
7.467266,-0.0051,0.7757,-0.0298,2.4687,-1.8465,0.4557,0.1481,1.8227,0.4874,
7.483064,-0.0051,0.7757,-0.0298,2.4687,-1.8465,0.4557,0.3404,2.1982,0.4240,
7.502837,-0.1129,0.7588,-0.0078,2.4687,-1.8465,0.4557,0.3404,2.1982,0.4240,
7.505743,-0.1129,0.7588,-0.0078,1.1695,-2.0466,0.9556,0.3404,2.1982,0.4240,
7.508347,-0.1129,0.7588,-0.0078,1.1695,-2.0466,0.9556,0.7015,2.4427,0.2573,
7.522193,-0.1129,0.7588,-0.0078,1.1695,-2.0466,0.9556,1.1473,2.6514,0.1156,
7.543689,-0.2595,0.7713,-0.2489,1.1695,-2.0466,0.9556,1.1473,2.6514,0.1156,
7.545828,-0.2595,0.7713,-0.2489,-0.4698,-1.8917,-0.8374,1.1473,2.6514,0.1156,
7.547729,-0.2595,0.7713,-0.2489,-0.4698,-1.8917,-0.8374,1.2602,2.2403,0.1353,
7.562908,-0.2595,0.7713,-0.2489,-0.4698,-1.8917,-0.8374,1.0525,1.3976,0.1230,
7.582622,-0.1888,0.7244,-0.4305,-0.4698,-1.8917,-0.8374,1.0525,1.3976,0.1230,
7.585199,-0.1888,0.7244,-0.4305,0.0371,-2.2739,-2.0373,1.0525,1.3976,0.1230,
7.586968,-0.1888,0.7244,-0.4305,0.0371,-2.2739,-2.0373,0.6285,0.6072,0.0644,
7.602594,-0.1888,0.7244,-0.4305,0.0371,-2.2739,-2.0373,0.1832,0.1449,-0.0053,
7.623137,-0.0386,0.6911,-0.4158,0.0371,-2.2739,-2.0373,0.1832,0.1449,-0.0053,
7.627359,-0.0386,0.6911,-0.4158,1.4645,-2.5650,-1.7141,0.1832,0.1449,-0.0053,
7.629247,-0.0386,0.6911,-0.4158,1.4645,-2.5650,-1.7141,-0.2061,-0.1353,-0.0730,
7.642768,-0.0386,0.6911,-0.4158,1.4645,-2.5650,-1.7141,-0.5220,-0.3883,-0.1901,
7.662853,-0.0193,0.7813,-0.4420,1.4645,-2.5650,-1.7141,-0.5220,-0.3883,-0.1901,
7.665130,-0.0193,0.7813,-0.4420,1.7266,-1.7048,-2.1258,-0.5220,-0.3883,-0.1901,
7.666980,-0.0193,0.7813,-0.4420,1.7266,-1.7048,-2.1258,-0.8181,-0.5731,-0.2530,
7.682323,-0.0193,0.7813,-0.4420,1.7266,-1.7048,-2.1258,-1.0077,-0.4005,-0.3079,
7.702836,-0.2384,0.9271,-0.5042,1.7266,-1.7048,-2.1258,-1.0077,-0.4005,-0.3079,
7.704981,-0.2384,0.9271,-0.5042,-0.2839,-0.3199,-3.0748,-1.0077,-0.4005,-0.3079,
7.706982,-0.2384,0.9271,-0.5042,-0.2839,-0.3199,-3.0748,-0.8703,0.1960,-0.3547,
7.722516,-0.2384,0.9271,-0.5042,-0.2839,-0.3199,-3.0748,-0.5049,0.2791,-0.3840,
7.743333,-0.4466,1.2201,-0.1945,-0.2839,-0.3199,-3.0748,-0.5049,0.2791,-0.3840,
7.746505,-0.4466,1.2201,-0.1945,-2.1992,2.5358,-0.2693,-0.5049,0.2791,-0.3840,
7.748519,-0.4466,1.2201,-0.1945,-2.1992,2.5358,-0.2693,0.0282,-0.1726,-0.3388,
7.763703,-0.4466,1.2201,-0.1945,-2.1992,2.5358,-0.2693,0.3691,-0.5001,-0.0575,
7.782210,-0.4764,1.2633,-0.4505,-2.1992,2.5358,-0.2693,0.3691,-0.5001,-0.0575,
7.784416,-0.4764,1.2633,-0.4505,-2.3947,2.9903,-2.7341,0.3691,-0.5001,-0.0575,
7.786236,-0.4764,1.2633,-0.4505,-2.3947,2.9903,-2.7341,1.0994,1.3193,-0.1198,
7.801791,-0.4764,1.2633,-0.4505,-2.3947,2.9903,-2.7341,1.3587,2.0506,-0.3787,
7.822414,-0.2983,1.1402,-0.5629,-2.3947,2.9903,-2.7341,1.3587,2.0506,-0.3787,
7.824560,-0.2983,1.1402,-0.5629,-0.6911,1.9033,-3.2259,1.3587,2.0506,-0.3787,
7.826306,-0.2983,1.1402,-0.5629,-0.6911,1.9033,-3.2259,1.1531,0.5007,-0.1896,
7.842343,-0.2983,1.1402,-0.5629,-0.6911,1.9033,-3.2259,0.4581,-1.1558,0.1342,
7.862893,-0.1278,1.1265,-0.1942,-0.6911,1.9033,-3.2259,0.4581,-1.1558,0.1342,
7.865229,-0.1278,1.1265,-0.1942,1.0250,1.8503,0.6539,0.4581,-1.1558,0.1342,
7.866699,-0.1278,1.1265,-0.1942,1.0250,1.8503,0.6539,-0.6253,-2.7654,0.4906,
7.882112,-0.1278,1.1265,-0.1942,1.0250,1.8503,0.6539,-1.2037,-3.3433,1.0397,
7.901789,0.1693,1.2191,0.1451,1.0250,1.8503,0.6539,-1.2037,-3.3433,1.0397,
7.904261,0.1693,1.2191,0.1451,3.9297,2.6059,3.3607,-1.2037,-3.3433,1.0397,
7.906072,0.1693,1.2191,0.1451,3.9297,2.6059,3.3607,-0.9976,-2.1135,1.2591,
7.922905,0.1693,1.2191,0.1451,3.9297,2.6059,3.3607,0.3702,0.8080,0.5944,
7.942532,0.1219,0.9596,0.2086,3.9297,2.6059,3.3607,0.3702,0.8080,0.5944,
7.944485,0.1219,0.9596,0.2086,3.1496,-0.0452,3.7922,0.3702,0.8080,0.5944,
7.946139,0.1219,0.9596,0.2086,3.1496,-0.0452,3.7922,0.3654,-0.5784,-0.0165,
7.962674,0.1219,0.9596,0.2086,3.1496,-0.0452,3.7922,-0.3372,-2.2014,-0.4698,
7.982620,-0.2985,1.1182,0.0923,3.1496,-0.0452,3.7922,-0.3372,-2.2014,-0.4698,
7.984830,-0.2985,1.1182,0.0923,-0.7834,1.5300,2.5448,-0.3372,-2.2014,-0.4698,
7.986511,-0.2985,1.1182,0.0923,-0.7834,1.5300,2.5448,-0.8469,-2.5023,-0.7734,
8.002317,-0.2985,1.1182,0.0923,-0.7834,1.5300,2.5448,-1.0322,-1.4280,-0.5827,
8.022473,-0.4698,1.0156,0.1112,-0.7834,1.5300,2.5448,-1.0322,-1.4280,-0.5827,
8.026264,-0.4698,1.0156,0.1112,-2.0965,0.5363,2.1914,-1.0322,-1.4280,-0.5827,
8.028325,-0.4698,1.0156,0.1112,-2.0965,0.5363,2.1914,-0.9673,0.1571,-0.2535,
8.042391,-0.4698,1.0156,0.1112,-2.0965,0.5363,2.1914,-0.7926,0.9710,-0.3334,
8.062594,-0.2521,0.7918,-0.0139,-2.0965,0.5363,2.1914,-0.7926,0.9710,-0.3334,
8.064576,-0.2521,0.7918,-0.0139,0.1283,-1.6632,0.6540,-0.7926,0.9710,-0.3334,
8.066181,-0.2521,0.7918,-0.0139,0.1283,-1.6632,0.6540,-0.6956,1.0088,-0.5183,
8.081719,-0.2521,0.7918,-0.0139,0.1283,-1.6632,0.6540,-0.6988,0.8288,-0.5896,
8.102133,-0.2785,0.7124,-0.2646,0.1283,-1.6632,0.6540,-0.6988,0.8288,-0.5896,
8.104516,-0.2785,0.7124,-0.2646,0.0516,-2.4017,-1.9660,-0.6988,0.8288,-0.5896,
8.106146,-0.2785,0.7124,-0.2646,0.0516,-2.4017,-1.9660,-0.8261,0.7286,-0.5103,
8.122001,-0.2785,0.7124,-0.2646,0.0516,-2.4017,-1.9660,-0.9923,0.8623,-0.2439,
8.141857,-0.3428,0.6753,-0.2753,0.0516,-2.4017,-1.9660,-0.9923,0.8623,-0.2439,
8.145686,-0.3428,0.6753,-0.2753,-0.4530,-2.7410,-2.3205,-0.9923,0.8623,-0.2439,
8.148007,-0.3428,0.6753,-0.2753,-0.4530,-2.7410,-2.3205,-1.0136,0.7446,0.0517,
8.161924,-0.3428,0.6753,-0.2753,-0.4530,-2.7410,-2.3205,-0.7686,0.3622,0.1806,
8.182048,-0.3315,0.7420,-0.0772,-0.4530,-2.7410,-2.3205,-0.7686,0.3622,0.1806,
8.184220,-0.3315,0.7420,-0.0772,-0.3921,-2.1095,-0.6481,-0.7686,0.3622,0.1806,
8.186214,-0.3315,0.7420,-0.0772,-0.3921,-2.1095,-0.6481,-0.3819,0.0442,0.1502,
8.201717,-0.3315,0.7420,-0.0772,-0.3921,-2.1095,-0.6481,-0.0224,-0.1646,0.1055,
8.222529,-0.3931,0.8003,-0.0489,-0.3921,-2.1095,-0.6481,-0.0224,-0.1646,0.1055,
8.224927,-0.3931,0.8003,-0.0489,-1.0433,-1.5523,-0.4530,-0.0224,-0.1646,0.1055,
8.226804,-0.3931,0.8003,-0.0489,-1.0433,-1.5523,-0.4530,0.2003,-0.4410,0.1188,
8.240983,-0.3931,0.8003,-0.0489,-1.0433,-1.5523,-0.4530,0.2477,-0.7446,0.1656,
8.261230,-0.3557,0.8223,-0.1134,-1.0433,-1.5523,-0.4530,0.2477,-0.7446,0.1656,
8.263453,-0.3557,0.8223,-0.1134,-0.7295,-1.3523,-1.0668,0.2477,-0.7446,0.1656,
8.265437,-0.3557,0.8223,-0.1134,-0.7295,-1.3523,-1.0668,0.1545,-0.9065,0.1912,
8.281752,-0.3557,0.8223,-0.1134,-0.7295,-1.3523,-1.0668,0.0256,-0.7574,0.2013,
8.301538,-0.2971,1.0107,-0.2035,-0.7295,-1.3523,-1.0668,0.0256,-0.7574,0.2013,
8.305964,-0.2971,1.0107,-0.2035,-0.2116,0.4771,-1.9719,0.0256,-0.7574,0.2013,
8.308077,-0.2971,1.0107,-0.2035,-0.2116,0.4771,-1.9719,-0.0208,-0.2530,0.2072,
8.321967,-0.2971,1.0107,-0.2035,-0.2116,0.4771,-1.9719,0.0426,0.1278,0.2109,
8.341510,-0.4368,1.1920,-0.1153,-0.2116,0.4771,-1.9719,0.0426,0.1278,0.2109,
8.343513,-0.4368,1.1920,-0.1153,-1.6576,2.2320,-1.1069,0.0426,0.1278,0.2109,
8.345346,-0.4368,1.1920,-0.1153,-1.6576,2.2320,-1.1069,0.0644,0.0160,0.2445,
8.361966,-0.4368,1.1920,-0.1153,-1.6576,2.2320,-1.1069,0.0336,-0.0815,0.2178,
8.381717,-0.4710,1.1910,-0.1698,-1.6576,2.2320,-1.1069,0.0336,-0.0815,0.2178,
8.383866,-0.4710,1.1910,-0.1698,-2.0802,2.1987,-1.6256,0.0336,-0.0815,0.2178,
8.385708,-0.4710,1.1910,-0.1698,-2.0802,2.1987,-1.6256,0.1071,0.1321,0.2083,
8.400655,-0.4710,1.1910,-0.1698,-2.0802,2.1987,-1.6256,0.3169,0.3510,0.2487,
8.421307,-0.4664,1.4761,-0.1204,-2.0802,2.1987,-1.6256,0.3169,0.3510,0.2487,
8.423414,-0.4664,1.4761,-0.1204,-2.1221,4.9708,-1.0378,0.3169,0.3510,0.2487,
8.425231,-0.4664,1.4761,-0.1204,-2.1221,4.9708,-1.0378,0.5651,0.1928,0.2093,
8.440768,-0.4664,1.4761,-0.1204,-2.1221,4.9708,-1.0378,0.7430,-0.3265,0.1449,
8.461369,-0.3298,1.0058,-0.0125,-2.1221,4.9708,-1.0378,0.7430,-0.3265,0.1449,
8.463588,-0.3298,1.0058,-0.0125,-0.8496,0.3519,0.2623,0.7430,-0.3265,0.1449,
8.465459,-0.3298,1.0058,-0.0125,-0.8496,0.3519,0.2623,0.7872,-0.7595,0.1380,
8.481903,-0.3298,1.0058,-0.0125,-0.8496,0.3519,0.2623,0.7457,-1.0578,0.0048,
8.501643,-0.1586,0.7446,0.0125,-0.8496,0.3519,0.2623,0.7457,-1.0578,0.0048,
8.505479,-0.1586,0.7446,0.0125,0.8340,-2.1961,0.7053,0.7457,-1.0578,0.0048,
8.508019,-0.1586,0.7446,0.0125,0.8340,-2.1961,0.7053,0.6621,-1.2197,-0.1688,
8.520780,-0.1586,0.7446,0.0125,0.8340,-2.1961,0.7053,0.5486,-1.2964,-0.2706,
8.541054,-0.1011,1.0158,0.1063,0.8340,-2.1961,0.7053,0.5486,-1.2964,-0.2706,
8.543555,-0.1011,1.0158,0.1063,1.4962,0.4921,1.7005,0.5486,-1.2964,-0.2706,
8.545349,-0.1011,1.0158,0.1063,1.4962,0.4921,1.7005,0.3952,-1.4583,-0.3340,
8.561980,-0.1011,1.0158,0.1063,1.4962,0.4921,1.7005,0.2338,-1.6778,-0.2668,
8.581514,-0.1239,1.1590,0.1779,1.4962,0.4921,1.7005,0.2338,-1.6778,-0.2668,
8.584268,-0.1239,1.1590,0.1779,1.4196,1.9311,2.3490,0.2338,-1.6778,-0.2668,
8.586080,-0.1239,1.1590,0.1779,1.4196,1.9311,2.3490,0.1305,-1.4365,0.0037,
8.600644,-0.1239,1.1590,0.1779,1.4196,1.9311,2.3490,0.0559,-0.4453,0.2077,
8.621950,-0.0293,0.8793,0.0892,1.4196,1.9311,2.3490,0.0559,-0.4453,0.2077,
8.624811,-0.0293,0.8793,0.0892,2.2724,-0.8374,1.3625,0.0559,-0.4453,0.2077,
8.626677,-0.0293,0.8793,0.0892,2.2724,-0.8374,1.3625,0.0245,0.3995,0.2913,
8.640893,-0.0293,0.8793,0.0892,2.2724,-0.8374,1.3625,0.0224,0.9358,0.3159,
8.661967,0.0159,0.7327,0.0506,2.2724,-0.8374,1.3625,0.0224,0.9358,0.3159,
8.663930,0.0159,0.7327,0.0506,2.5865,-2.3036,1.0593,0.0224,0.9358,0.3159,
8.665755,0.0159,0.7327,0.0506,2.5865,-2.3036,1.0593,0.0373,1.1297,0.2301,
8.680962,0.0159,0.7327,0.0506,2.5865,-2.3036,1.0593,0.1241,1.1958,0.1854,
8.700978,-0.1644,0.7813,0.0452,2.5865,-2.3036,1.0593,0.1241,1.1958,0.1854,
8.703269,-0.1644,0.7813,0.0452,0.7115,-1.8449,1.1475,0.1241,1.1958,0.1854,
8.705194,-0.1644,0.7813,0.0452,0.7115,-1.8449,1.1475,0.5976,1.9904,0.0011,
8.721487,-0.1644,0.7813,0.0452,0.7115,-1.8449,1.1475,1.5372,3.2597,-0.3334,
8.741054,-0.4366,0.7886,-0.3144,0.7115,-1.8449,1.1475,1.5372,3.2597,-0.3334,
8.744169,-0.4366,0.7886,-0.3144,-1.9984,-1.7136,-1.7328,1.5372,3.2597,-0.3334,
8.746769,-0.4366,0.7886,-0.3144,-1.9984,-1.7136,-1.7328,1.7779,3.2373,-0.1316,
8.760314,-0.4366,0.7886,-0.3144,-1.9984,-1.7136,-1.7328,1.2528,2.2376,0.1497,
8.781004,-0.1771,0.6611,-0.5184,-1.9984,-1.7136,-1.7328,1.2528,2.2376,0.1497,
8.783551,-0.1771,0.6611,-0.5184,0.3493,-2.8576,-2.9227,1.2528,2.2376,0.1497,
8.785691,-0.1771,0.6611,-0.5184,0.3493,-2.8576,-2.9227,0.5140,1.0850,0.0794,
8.800501,-0.1771,0.6611,-0.5184,0.3493,-2.8576,-2.9227,-0.1023,0.3127,-0.1001,
8.821038,-0.0655,0.6706,-0.4515,0.3493,-2.8576,-2.9227,-0.1023,0.3127,-0.1001,
8.823560,-0.0655,0.6706,-0.4515,1.3846,-2.7452,-2.1328,-0.1023,0.3127,-0.1001,
8.825616,-0.0655,0.6706,-0.4515,1.3846,-2.7452,-2.1328,-0.5774,-0.2141,-0.1832,
8.841127,-0.0655,0.6706,-0.4515,1.3846,-2.7452,-2.1328,-0.9886,-0.5625,-0.1779,
8.860964,-0.1434,0.8800,-0.4405,1.3846,-2.7452,-2.1328,-0.9886,-0.5625,-0.1779,
8.863298,-0.1434,0.8800,-0.4405,0.7211,-0.7451,-2.3495,-0.9886,-0.5625,-0.1779,
8.865298,-0.1434,0.8800,-0.4405,0.7211,-0.7451,-2.3495,-1.2405,-0.3425,-0.1997,
8.880908,-0.1434,0.8800,-0.4405,0.7211,-0.7451,-2.3495,-1.0701,0.4932,-0.2573,
8.900616,-0.4095,1.1077,-0.2888,0.7211,-0.7451,-2.3495,-1.0701,0.4932,-0.2573,
8.903618,-0.4095,1.1077,-0.2888,-1.7932,1.4378,-1.2313,-1.0701,0.4932,-0.2573,
8.905454,-0.4095,1.1077,-0.2888,-1.7932,1.4378,-1.2313,-0.4357,1.0269,-0.3238,
8.919826,-0.4095,1.1077,-0.2888,-1.7932,1.4378,-1.2313,0.0655,0.2993,-0.0921,
8.940957,-0.4087,1.2496,-0.2751,-1.7932,1.4378,-1.2313,0.0655,0.2993,-0.0921,
8.944005,-0.4087,1.2496,-0.2751,-1.7497,2.8358,-1.1076,0.0655,0.2993,-0.0921,
8.946084,-0.4087,1.2496,-0.2751,-1.7497,2.8358,-1.1076,0.2972,0.0021,0.2887,
8.959934,-0.4087,1.2496,-0.2751,-1.7497,2.8358,-1.1076,0.9934,1.5228,-0.0565,
8.979572,-0.4881,1.0488,-0.6430,-1.7497,2.8358,-1.1076,0.9934,1.5228,-0.0565,
8.981709,-0.4881,1.0488,-0.6430,-2.6253,0.9020,-4.4048,0.9934,1.5228,-0.0565,
8.982675,-0.4881,1.0488,-0.6430,-2.6253,0.9020,-4.4048,1.3034,1.5297,-0.5902,
9.000232,-0.4881,1.0488,-0.6430,-2.6253,0.9020,-4.4048,1.3571,0.5960,-0.4858,
9.019566,-0.3386,1.1199,-0.5167,-2.6253,0.9020,-4.4048,1.3571,0.5960,-0.4858,
9.021451,-0.3386,1.1199,-0.5167,-1.0508,1.7631,-2.5798,1.3571,0.5960,-0.4858,
9.022474,-0.3386,1.1199,-0.5167,-1.0508,1.7631,-2.5798,0.8357,-0.6226,-0.1300,
9.040992,-0.3386,1.1199,-0.5167,-1.0508,1.7631,-2.5798,-0.4346,-2.6008,0.3148,
9.060987,-0.0630,1.1671,-0.0005,-1.0508,1.7631,-2.5798,-0.4346,-2.6008,0.3148,
9.063221,-0.0630,1.1671,-0.0005,1.7779,2.2370,2.4015,-0.4346,-2.6008,0.3148,
9.064933,-0.0630,1.1671,-0.0005,1.7779,2.2370,2.4015,-1.6000,-3.9963,0.8831,
9.080106,-0.0630,1.1671,-0.0005,1.7779,2.2370,2.4015,-1.9382,-3.4227,1.1531,
9.100817,0.3345,1.2203,0.3726,1.7779,2.2370,2.4015,-1.9382,-3.4227,1.1531,
9.103568,0.3345,1.2203,0.3726,5.5802,2.5293,5.0471,-1.9382,-3.4227,1.1531,
9.105530,0.3345,1.2203,0.3726,5.5802,2.5293,5.0471,-0.1529,1.1547,1.0227,
9.119917,0.3345,1.2203,0.3726,5.5802,2.5293,5.0471,0.4554,0.9811,0.3020,
9.140570,-0.0919,0.9775,0.2209,5.5802,2.5293,5.0471,0.4554,0.9811,0.3020,
9.142577,-0.0919,0.9775,0.2209,1.0838,0.0987,3.6985,0.4554,0.9811,0.3020,
9.144242,-0.0919,0.9775,0.2209,1.0838,0.0987,3.6985,0.0096,-0.8847,-0.2232,
9.159957,-0.0919,0.9775,0.2209,1.0838,0.0987,3.6985,-0.4197,-1.3065,-0.6392,
9.180480,-0.4312,1.0004,0.0374,1.0838,0.0987,3.6985,-0.4197,-1.3065,-0.6392,
9.183194,-0.4312,1.0004,0.0374,-2.0182,0.3439,1.7071,-0.4197,-1.3065,-0.6392,
9.185093,-0.4312,1.0004,0.0374,-2.0182,0.3439,1.7071,-0.5630,-0.6269,-0.6988,
9.200172,-0.4312,1.0004,0.0374,-2.0182,0.3439,1.7071,-0.7121,0.0623,-0.5864,
9.220348,-0.2856,0.8140,0.0076,-2.0182,0.3439,1.7071,-0.7121,0.0623,-0.5864,
9.222623,-0.2856,0.8140,0.0076,-0.3352,-1.4588,1.1023,-0.7121,0.0623,-0.5864,
9.224616,-0.2856,0.8140,0.0076,-0.3352,-1.4588,1.1023,-0.8128,0.3830,-0.4948,
9.241701,-0.2856,0.8140,0.0076,-0.3352,-1.4588,1.1023,-0.8325,0.7691,-0.5619,
9.260599,-0.2248,0.6264,-0.1642,-0.3352,-1.4588,1.1023,-0.8325,0.7691,-0.5619,
9.262991,-0.2248,0.6264,-0.1642,0.4397,-3.2732,-0.8316,-0.8325,0.7691,-0.5619,
9.264989,-0.2248,0.6264,-0.1642,0.4397,-3.2732,-0.8316,-0.9167,1.0093,-0.6056,
9.279749,-0.2248,0.6264,-0.1642,0.4397,-3.2732,-0.8316,-1.0807,1.0621,-0.5470,
9.300134,-0.2516,0.6262,-0.2658,0.4397,-3.2732,-0.8316,-1.0807,1.0621,-0.5470,
9.302450,-0.2516,0.6262,-0.2658,0.3656,-3.2384,-2.0888,-1.0807,1.0621,-0.5470,
9.304276,-0.2516,0.6262,-0.2658,0.3656,-3.2384,-2.0888,-1.1590,1.1649,-0.3318,
9.320155,-0.2516,0.6262,-0.2658,0.3656,-3.2384,-2.0888,-1.0488,1.2911,-0.0261,
9.340644,-0.2849,0.7710,-0.1852,0.3656,-3.2384,-2.0888,-1.0488,1.2911,-0.0261,
9.343237,-0.2849,0.7710,-0.1852,0.0889,-1.8148,-1.5711,-1.0488,1.2911,-0.0261,
9.345297,-0.2849,0.7710,-0.1852,0.0889,-1.8148,-1.5711,-0.7366,1.0045,0.1326,
9.360194,-0.2849,0.7710,-0.1852,0.0889,-1.8148,-1.5711,-0.2935,0.2301,0.1044,
9.380648,-0.3880,0.8585,-0.0518,0.0889,-1.8148,-1.5711,-0.2935,0.2301,0.1044,
9.383053,-0.3880,0.8585,-0.0518,-0.9706,-0.9750,-0.3863,-0.2935,0.2301,0.1044,
9.385200,-0.3880,0.8585,-0.0518,-0.9706,-0.9750,-0.3863,0.0581,-0.5891,0.0799,
9.399576,-0.3880,0.8585,-0.0518,-0.9706,-0.9750,-0.3863,0.1960,-1.0163,0.1316,
9.420084,-0.4461,0.8900,-0.1114,-0.9706,-0.9750,-0.3863,0.1960,-1.0163,0.1316,
9.422750,-0.4461,0.8900,-0.1114,-1.5668,-0.6744,-1.0035,0.1960,-1.0163,0.1316,
9.424852,-0.4461,0.8900,-0.1114,-1.5668,-0.6744,-1.0035,0.1651,-0.8756,0.2088,
9.440130,-0.4461,0.8900,-0.1114,-1.5668,-0.6744,-1.0035,0.0517,-0.2999,0.2605,
9.460111,-0.3560,0.9496,-0.1583,-1.5668,-0.6744,-1.0035,0.0517,-0.2999,0.2605,
9.462357,-0.3560,0.9496,-0.1583,-0.7429,-0.1077,-1.4540,0.0517,-0.2999,0.2605,
9.464255,-0.3560,0.9496,-0.1583,-0.7429,-0.1077,-1.4540,-0.0373,0.3105,0.2546,
9.479490,-0.3560,0.9496,-0.1583,-0.7429,-0.1077,-1.4540,-0.0602,0.3393,0.2173,
9.500034,-0.3784,1.1267,-0.1793,-0.7429,-0.1077,-1.4540,-0.0602,0.3393,0.2173,
9.504075,-0.3784,1.1267,-0.1793,-1.0428,1.6056,-1.6258,-0.0602,0.3393,0.2173,
9.506736,-0.3784,1.1267,-0.1793,-1.0428,1.6056,-1.6258,-0.0415,0.0170,0.1901,
9.519827,-0.3784,1.1267,-0.1793,-1.0428,1.6056,-1.6258,0.0128,-0.2162,0.1646,
9.540637,-0.5531,1.1724,-0.2590,-1.0428,1.6056,-1.6258,0.0128,-0.2162,0.1646,
9.542784,-0.5531,1.1724,-0.2590,-2.8211,2.0346,-2.4221,0.0128,-0.2162,0.1646,
9.544591,-0.5531,1.1724,-0.2590,-2.8211,2.0346,-2.4221,0.0884,0.0607,0.0863,
9.559107,-0.5531,1.1724,-0.2590,-2.8211,2.0346,-2.4221,0.2040,0.3830,0.0895,
9.579140,-0.5167,1.4465,-0.0936,-2.8211,2.0346,-2.4221,0.2040,0.3830,0.0895,
9.581475,-0.5167,1.4465,-0.0936,-2.4990,4.7127,-0.7232,0.2040,0.3830,0.0895,
9.582944,-0.5167,1.4465,-0.0936,-2.4990,4.7127,-0.7232,0.3404,0.1944,0.0943,
9.599390,-0.5167,1.4465,-0.0936,-2.4990,4.7127,-0.7232,0.4996,-0.1502,0.0250,
9.619595,-0.3496,1.1092,0.0320,-2.4990,4.7127,-0.7232,0.4996,-0.1502,0.0250,
9.622947,-0.3496,1.1092,0.0320,-0.8839,1.4049,0.6685,0.4996,-0.1502,0.0250,
9.625178,-0.3496,1.1092,0.0320,-0.8839,1.4049,0.6685,0.5747,-0.5981,-0.0112,
9.640681,-0.3496,1.1092,0.0320,-0.8839,1.4049,0.6685,0.5561,-0.9779,-0.0794,
9.660103,-0.1329,0.7297,0.0625,-0.8839,1.4049,0.6685,0.5561,-0.9779,-0.0794,
9.662439,-0.1329,0.7297,0.0625,1.2782,-2.2974,1.0913,0.5561,-0.9779,-0.0794,
9.664229,-0.1329,0.7297,0.0625,1.2782,-2.2974,1.0913,0.4975,-1.2709,-0.1486,
9.679249,-0.1329,0.7297,0.0625,1.2782,-2.2974,1.0913,0.3787,-1.4338,-0.2061,
9.699825,-0.0511,1.0505,0.1251,1.2782,-2.2974,1.0913,0.3787,-1.4338,-0.2061,
9.703256,-0.0511,1.0505,0.1251,2.1514,0.8658,1.7022,0.3787,-1.4338,-0.2061,
9.704922,-0.0511,1.0505,0.1251,2.1514,0.8658,1.7022,0.2162,-1.5457,-0.2099,
9.719240,-0.0511,1.0505,0.1251,2.1514,0.8658,1.7022,0.1667,-1.7907,-0.1827,
9.739986,0.0371,1.2096,0.2245,2.1514,0.8658,1.7022,0.1667,-1.7907,-0.1827,
9.742167,0.0371,1.2096,0.2245,3.1180,2.4489,2.5684,0.1667,-1.7907,-0.1827,
9.743771,0.0371,1.2096,0.2245,3.1180,2.4489,2.5684,0.3249,-1.8711,-0.0820,
9.759213,0.0371,1.2096,0.2245,3.1180,2.4489,2.5684,0.4682,-1.2735,0.0943,
9.779799,-0.0545,0.9147,-0.0022,3.1180,2.4489,2.5684,0.4682,-1.2735,0.0943,
9.781860,-0.0545,0.9147,-0.0022,2.1788,-0.4549,0.2909,0.4682,-1.2735,0.0943,
9.783679,-0.0545,0.9147,-0.0022,2.1788,-0.4549,0.2909,0.4938,-0.0639,0.3409,
9.799036,-0.0545,0.9147,-0.0022,2.1788,-0.4549,0.2909,0.4416,0.9987,0.4650,
9.819917,-0.0792,0.7573,-0.0376,2.1788,-0.4549,0.2909,0.4416,0.9987,0.4650,
9.823744,-0.0792,0.7573,-0.0376,1.7699,-2.0334,0.1652,0.4416,0.9987,0.4650,
9.825902,-0.0792,0.7573,-0.0376,1.7699,-2.0334,0.1652,0.3984,1.6054,0.4932,
9.839269,-0.0792,0.7573,-0.0376,1.7699,-2.0334,0.1652,0.4075,1.8978,0.4645,
9.859231,-0.1808,0.7566,-0.0401,1.7699,-2.0334,0.1652,0.4075,1.8978,0.4645,
9.861511,-0.1808,0.7566,-0.0401,0.5436,-2.0760,0.4638,0.4075,1.8978,0.4645,
9.863319,-0.1808,0.7566,-0.0401,0.5436,-2.0760,0.4638,0.7127,2.4096,0.2232,
9.878914,-0.1808,0.7566,-0.0401,0.5436,-2.0760,0.4638,1.1500,2.9124,0.0133,
9.899462,-0.3274,0.7283,-0.2433,0.5436,-2.0760,0.4638,1.1500,2.9124,0.0133,
9.902293,-0.3274,0.7283,-0.2433,-1.0588,-2.3213,-0.9394,1.1500,2.9124,0.0133,
9.904635,-0.3274,0.7283,-0.2433,-1.0588,-2.3213,-0.9394,1.1888,2.5082,0.0437,
9.919215,-0.3274,0.7283,-0.2433,-1.0588,-2.3213,-0.9394,0.8799,1.5271,0.1044,
9.939258,-0.2028,0.6650,-0.3753,-1.0588,-2.3213,-0.9394,0.8799,1.5271,0.1044,
9.941678,-0.2028,0.6650,-0.3753,-0.0039,-2.8760,-1.6756,0.8799,1.5271,0.1044,
9.943670,-0.2028,0.6650,-0.3753,-0.0039,-2.8760,-1.6756,0.4549,0.6770,0.0703,
9.959135,-0.2028,0.6650,-0.3753,-0.0039,-2.8760,-1.6756,0.0298,0.2003,-0.0213,
9.979195,0.0029,0.7056,-0.4324,-0.0039,-2.8760,-1.6756,0.0298,0.2003,-0.0213,
9.981501,0.0029,0.7056,-0.4324,1.9666,-2.4606,-2.1108,0.0298,0.2003,-0.0213,
9.983387,0.0029,0.7056,-0.4324,1.9666,-2.4606,-2.1108,-0.3244,-0.0959,-0.1326,
9.998829,0.0029,0.7056,-0.4324,1.9666,-2.4606,-2.1108,-0.7468,-0.3670,-0.2786,
10.019946,-0.1011,0.8707,-0.5218,1.9666,-2.4606,-2.1108,-0.7468,-0.3670,-0.2786,
10.023151,-0.1011,0.8707,-0.5218,1.0424,-0.8690,-3.2064,-0.7468,-0.3670,-0.2786,
10.025004,-0.1011,0.8707,-0.5218,1.0424,-0.8690,-3.2064,-1.1185,-0.2407,-0.3398,
10.039532,-0.1011,0.8707,-0.5218,1.0424,-0.8690,-3.2064,-1.1201,0.4634,-0.3702,
10.059073,-0.3347,1.1182,-0.3586,1.0424,-0.8690,-3.2064,-1.1201,0.4634,-0.3702,
10.061379,-0.3347,1.1182,-0.3586,-1.1230,1.5202,-1.9523,-1.1201,0.4634,-0.3702,
10.063236,-0.3347,1.1182,-0.3586,-1.1230,1.5202,-1.9523,-0.6503,0.9055,-0.4384,
10.078718,-0.3347,1.1182,-0.3586,-1.1230,1.5202,-1.9523,-0.0639,0.2509,-0.3585,
10.098529,-0.4994,1.2425,-0.2406,-1.1230,1.5202,-1.9523,-0.0639,0.2509,-0.3585,
10.100957,-0.4994,1.2425,-0.2406,-2.6214,2.7524,-0.8799,-0.0639,0.2509,-0.3585,
10.102928,-0.4994,1.2425,-0.2406,-2.6214,2.7524,-0.8799,0.2929,-0.5747,0.0479,
10.118988,-0.4994,1.2425,-0.2406,-2.6214,2.7524,-0.8799,1.0349,0.9619,-0.0778,
10.138602,-0.4791,1.1734,-0.6298,-2.6214,2.7524,-0.8799,1.0349,0.9619,-0.0778,
10.140913,-0.4791,1.1734,-0.6298,-2.4312,2.1185,-4.4271,1.0349,0.9619,-0.0778,
10.142837,-0.4791,1.1734,-0.6298,-2.4312,2.1185,-4.4271,1.3710,1.7609,-0.3862,
10.158384,-0.4791,1.1734,-0.6298,-2.4312,2.1185,-4.4271,1.2384,0.7254,-0.2423,
10.178401,-0.1972,1.2122,-0.4153,-2.4312,2.1185,-4.4271,1.2384,0.7254,-0.2423,
10.181268,-0.1972,1.2122,-0.4153,0.3494,2.6348,-1.7268,1.2384,0.7254,-0.2423,
10.182846,-0.1972,1.2122,-0.4153,0.3494,2.6348,-1.7268,0.7574,-0.9023,0.1262,
10.198726,-0.1972,1.2122,-0.4153,0.3494,2.6348,-1.7268,-0.0746,-2.3915,0.2919,
10.219136,-0.0020,1.0561,-0.0318,0.3494,2.6348,-1.7268,-0.0746,-2.3915,0.2919,
10.221386,-0.0020,1.0561,-0.0318,2.3420,1.1182,2.0055,-0.0746,-2.3915,0.2919,
10.222923,-0.0020,1.0561,-0.0318,2.3420,1.1182,2.0055,-1.0413,-3.5356,0.5641,
10.240924,-0.0020,1.0561,-0.0318,2.3420,1.1182,2.0055,-1.4493,-3.5644,0.6605,
10.259159,0.2260,1.1033,0.2340,2.3420,1.1182,2.0055,-1.4493,-3.5644,0.6605,
10.261290,0.2260,1.1033,0.2340,4.6225,1.4271,3.8074,-1.4493,-3.5644,0.6605,
10.262850,0.2260,1.1033,0.2340,4.6225,1.4271,3.8074,-0.7840,-1.1159,0.5156,
10.278163,0.2260,1.1033,0.2340,4.6225,1.4271,3.8074,0.5657,1.2709,0.0085,
10.298729,-0.1786,1.0351,0.1913,4.6225,1.4271,3.8074,0.5657,1.2709,0.0085,
10.300960,-0.1786,1.0351,0.1913,0.5441,0.7230,3.3397,0.5657,1.2709,0.0085,
10.302659,-0.1786,1.0351,0.1913,0.5441,0.7230,3.3397,0.3760,-0.4581,-0.2439,
10.318891,-0.1786,1.0351,0.1913,0.5441,0.7230,3.3397,-0.1848,-1.7390,-0.3862,
10.339291,-0.5135,1.0200,0.0665,0.5441,0.7230,3.3397,-0.1848,-1.7390,-0.3862,
10.341470,-0.5135,1.0200,0.0665,-2.5560,0.6087,2.0365,-0.1848,-1.7390,-0.3862,
10.343315,-0.5135,1.0200,0.0665,-2.5560,0.6087,2.0365,-0.5380,-1.5425,-0.3649,
10.358479,-0.5135,1.0200,0.0665,-2.5560,0.6087,2.0365,-0.6226,-0.4101,-0.2844,
10.378427,-0.3164,0.8426,0.1073,-2.5560,0.6087,2.0365,-0.6226,-0.4101,-0.2844,
10.380417,-0.3164,0.8426,0.1073,-0.4456,-1.1297,2.0511,-0.6226,-0.4101,-0.2844,
10.382490,-0.3164,0.8426,0.1073,-0.4456,-1.1297,2.0511,-0.5752,0.2344,-0.3180,
10.398123,-0.3164,0.8426,0.1073,-0.4456,-1.1297,2.0511,-0.4996,0.3467,-0.4826,
10.418329,-0.2788,0.6716,-0.1204,-0.4456,-1.1297,2.0511,-0.4996,0.3467,-0.4826,
10.419323,-0.2788,0.6716,-0.1204,0.0625,-2.7817,-0.3501,-0.4996,0.3467,-0.4826,
10.420152,-0.2788,0.6716,-0.1204,0.0625,-2.7817,-0.3501,-0.5934,0.4549,-0.5891,
10.438298,-0.2788,0.6716,-0.1204,0.0625,-2.7817,-0.3501,-0.8469,0.5049,-0.5491,
10.458283,-0.3132,0.6174,-0.2878,0.0625,-2.7817,-0.3501,-0.8469,0.5049,-0.5491,
10.461029,-0.3132,0.6174,-0.2878,-0.0767,-3.2683,-2.2031,-0.8469,0.5049,-0.5491,
10.462849,-0.3132,0.6174,-0.2878,-0.0767,-3.2683,-2.2031,-1.1654,0.6429,-0.3547,
10.477815,-0.3132,0.6174,-0.2878,-0.0767,-3.2683,-2.2031,-1.3385,1.1729,-0.0309,
10.498642,-0.2680,0.7200,-0.2228,-0.0767,-3.2683,-2.2031,-1.3385,1.1729,-0.0309,
10.501576,-0.2680,0.7200,-0.2228,0.4230,-2.2611,-1.9218,-1.3385,1.1729,-0.0309,
10.503778,-0.2680,0.7200,-0.2228,0.4230,-2.2611,-1.9218,-1.1824,1.6783,0.1710,
10.517840,-0.2680,0.7200,-0.2228,0.4230,-2.2611,-1.9218,-0.7068,1.4983,0.1992,
10.538267,-0.3667,0.8047,-0.1173,0.4230,-2.2611,-1.9218,-0.7068,1.4983,0.1992,
10.541474,-0.3667,0.8047,-0.1173,-0.6237,-1.4591,-1.0485,-0.7068,1.4983,0.1992,
10.543324,-0.3667,0.8047,-0.1173,-0.6237,-1.4591,-1.0485,-0.1534,0.5135,0.1806,
10.559225,-0.3667,0.8047,-0.1173,-0.6237,-1.4591,-1.0485,0.1774,-0.4027,0.2168,
10.578009,-0.4427,0.8541,-0.1173,-0.6237,-1.4591,-1.0485,0.1774,-0.4027,0.2168,
10.578911,-0.4427,0.8541,-0.1173,-1.4427,-0.9986,-1.0372,0.1774,-0.4027,0.2168,
10.579541,-0.4427,0.8541,-0.1173,-1.4427,-0.9986,-1.0372,0.2120,-0.8384,0.2562,
10.598220,-0.4427,0.8541,-0.1173,-1.4427,-0.9986,-1.0372,0.0985,-0.8586,0.2429,
10.618301,-0.4012,0.8753,-0.0953,-1.4427,-0.9986,-1.0372,0.0985,-0.8586,0.2429,
10.622364,-0.4012,0.8753,-0.0953,-1.1126,-0.8140,-0.8483,0.0985,-0.8586,0.2429,
10.624826,-0.4012,0.8753,-0.0953,-1.1126,-0.8140,-0.8483,-0.0442,-0.4437,0.2519,
10.638710,-0.4012,0.8753,-0.0953,-1.1126,-0.8140,-0.8483,-0.0309,-0.1800,0.2344,
10.658158,-0.3572,1.0901,-0.1075,-1.1126,-0.8140,-0.8483,-0.0309,-0.1800,0.2344,
10.660493,-0.3572,1.0901,-0.1075,-0.7442,1.2718,-0.9833,-0.0309,-0.1800,0.2344,
10.662252,-0.3572,1.0901,-0.1075,-0.7442,1.2718,-0.9833,0.0437,-0.1779,0.2056,
10.678272,-0.3572,1.0901,-0.1075,-0.7442,1.2718,-0.9833,0.1007,-0.2626,0.2019,
10.698150,-0.4837,1.2254,-0.2362,-0.7442,1.2718,-0.9833,0.1007,-0.2626,0.2019,
10.701713,-0.4837,1.2254,-0.2362,-2.0604,2.5763,-2.2418,0.1007,-0.2626,0.2019,
10.703616,-0.4837,1.2254,-0.2362,-2.0604,2.5763,-2.2418,0.1390,-0.0831,0.1949,
10.717530,-0.4837,1.2254,-0.2362,-2.0604,2.5763,-2.2418,0.2109,0.3047,0.1784,
10.737480,-0.5133,1.3073,-0.2265,-2.0604,2.5763,-2.2418,0.2109,0.3047,0.1784,
10.739373,-0.5133,1.3073,-0.2265,-2.4211,3.3594,-2.0685,0.2109,0.3047,0.1784,
10.740712,-0.5133,1.3073,-0.2265,-2.4211,3.3594,-2.0685,0.3499,0.2711,0.1800,
10.757208,-0.5133,1.3073,-0.2265,-2.4211,3.3594,-2.0685,0.4437,-0.0575,0.1310,
10.778327,-0.4608,1.2916,0.0022,-2.4211,3.3594,-2.0685,0.4437,-0.0575,0.1310,
10.780537,-0.4608,1.2916,0.0022,-1.9659,3.1939,0.3336,0.4437,-0.0575,0.1310,
10.782215,-0.4608,1.2916,0.0022,-1.9659,3.1939,0.3336,0.5044,-0.4666,0.0927,
10.798396,-0.4608,1.2916,0.0022,-1.9659,3.1939,0.3336,0.5193,-0.8730,0.0522,
10.817709,-0.2038,0.7730,0.0537,-1.9659,3.1939,0.3336,0.5193,-0.8730,0.0522,
10.819628,-0.2038,0.7730,0.0537,0.5391,-1.8878,0.9639,0.5193,-0.8730,0.0522,
10.821366,-0.2038,0.7730,0.0537,0.5391,-1.8878,0.9639,0.4964,-1.1686,-0.0506,
10.837686,-0.2038,0.7730,0.0537,0.5391,-1.8878,0.9639,0.4607,-1.3241,-0.1614,
10.857585,-0.1046,0.8954,0.0872,0.5391,-1.8878,0.9639,0.4607,-1.3241,-0.1614,
10.859541,-0.1046,0.8954,0.0872,1.5668,-0.6719,1.3199,0.4607,-1.3241,-0.1614,
10.861357,-0.1046,0.8954,0.0872,1.5668,-0.6719,1.3199,0.3718,-1.3646,-0.2344,
10.878036,-0.1046,0.8954,0.0872,1.5668,-0.6719,1.3199,0.2461,-1.4946,-0.2818,
10.897394,-0.0305,1.2325,0.2143,1.5668,-0.6719,1.3199,0.2461,-1.4946,-0.2818,
10.900618,-0.0305,1.2325,0.2143,2.4145,2.6648,2.5289,0.2461,-1.4946,-0.2818,
10.902378,-0.0305,1.2325,0.2143,2.4145,2.6648,2.5289,0.2253,-1.8195,-0.2216,
10.916978,-0.0305,1.2325,0.2143,2.4145,2.6648,2.5289,0.3105,-1.7854,-0.0107,
10.936921,-0.0630,1.0447,0.0694,2.4145,2.6648,2.5289,0.3105,-1.7854,-0.0107,
10.938548,-0.0630,1.0447,0.0694,2.1504,0.8352,1.0002,0.3105,-1.7854,-0.0107,
10.939781,-0.0630,1.0447,0.0694,2.1504,0.8352,1.0002,0.3041,-0.7159,0.2551,
10.957152,-0.0630,1.0447,0.0694,2.1504,0.8352,1.0002,0.2344,0.5358,0.4458,
10.977308,-0.0139,0.8082,-0.0203,2.1504,0.8352,1.0002,0.2344,0.5358,0.4458,
10.980117,-0.0139,0.8082,-0.0203,2.4567,-1.5294,0.1929,0.2344,0.5358,0.4458,
10.982069,-0.0139,0.8082,-0.0203,2.4567,-1.5294,0.1929,0.1603,1.2591,0.4975,
10.997253,-0.0139,0.8082,-0.0203,2.4567,-1.5294,0.1929,0.1348,1.6085,0.4437,
11.017627,-0.1041,0.7512,-0.0293,2.4567,-1.5294,0.1929,0.1348,1.6085,0.4437,
11.019539,-0.1041,0.7512,-0.0293,1.3669,-2.1313,0.3023,0.1348,1.6085,0.4437,
11.021361,-0.1041,0.7512,-0.0293,1.3669,-2.1313,0.3023,0.2487,1.9340,0.3712,
11.037403,-0.1041,0.7512,-0.0293,1.3669,-2.1313,0.3023,0.7766,2.8469,0.0804,
11.058133,-0.3789,0.7891,-0.1598,1.3669,-2.1313,0.3023,0.7766,2.8469,0.0804,
11.060137,-0.3789,0.7891,-0.1598,-1.4869,-1.7644,-0.5627,0.7766,2.8469,0.0804,
11.062138,-0.3789,0.7891,-0.1598,-1.4869,-1.7644,-0.5627,1.3097,3.4941,-0.0996,
11.078087,-0.3789,0.7891,-0.1598,-1.4869,-1.7644,-0.5627,1.2155,2.7692,0.0410,
11.097843,-0.2641,0.6836,-0.3801,-1.4869,-1.7644,-0.5627,1.2155,2.7692,0.0410,
11.100414,-0.2641,0.6836,-0.3801,-0.5217,-2.7263,-1.9750,1.2155,2.7692,0.0410,
11.102480,-0.2641,0.6836,-0.3801,-0.5217,-2.7263,-1.9750,0.8027,1.5430,0.1193,
11.117709,-0.2641,0.6836,-0.3801,-0.5217,-2.7263,-1.9750,0.2780,0.4139,0.0836,
11.138091,-0.0779,0.6247,-0.4024,-0.5217,-2.7263,-1.9750,0.2780,0.4139,0.0836,
11.142368,-0.0779,0.6247,-0.4024,1.1908,-3.2706,-1.9111,0.2780,0.4139,0.0836,
11.144702,-0.0779,0.6247,-0.4024,1.1908,-3.2706,-1.9111,-0.1518,-0.1507,-0.0288,
11.158529,-0.0779,0.6247,-0.4024,1.1908,-3.2706,-1.9111,-0.5300,-0.3878,-0.1917,
11.177182,-0.0523,0.7940,-0.4688,1.1908,-3.2706,-1.9111,-0.5300,-0.3878,-0.1917,
11.179255,-0.0523,0.7940,-0.4688,1.5048,-1.6293,-2.7118,-0.5300,-0.3878,-0.1917,
11.181113,-0.0523,0.7940,-0.4688,1.5048,-1.6293,-2.7118,-0.9593,-0.4746,-0.3063,
11.196862,-0.0523,0.7940,-0.4688,1.5048,-1.6293,-2.7118,-1.2773,-0.0586,-0.3979,
11.217023,-0.2182,0.9687,-0.4312,1.5048,-1.6293,-2.7118,-1.2773,-0.0586,-0.3979,
11.219737,-0.2182,0.9687,-0.4312,0.0247,0.0427,-2.7476,-1.2773,-0.0586,-0.3979,
11.221802,-0.2182,0.9687,-0.4312,0.0247,0.0427,-2.7476,-1.1143,0.9646,-0.5097,
11.236569,-0.2182,0.9687,-0.4312,0.0247,0.0427,-2.7476,-0.4362,1.4056,-0.5923,
11.257528,-0.5736,1.2499,-0.2074,0.0247,0.0427,-2.7476,-0.4362,1.4056,-0.5923,
11.259480,-0.5736,1.2499,-0.2074,-3.3142,2.8053,-0.7411,-0.4362,1.4056,-0.5923,
11.261294,-0.5736,1.2499,-0.2074,-3.3142,2.8053,-0.7411,0.2338,0.3414,-0.3260,
11.276916,-0.5736,1.2499,-0.2074,-3.3142,2.8053,-0.7411,0.4927,-0.5428,0.2077,
11.297075,-0.3381,1.2936,-0.4131,-3.3142,2.8053,-0.7411,0.4927,-0.5428,0.2077,
11.299684,-0.3381,1.2936,-0.4131,-0.9779,3.2591,-2.6298,0.4927,-0.5428,0.2077,
11.301530,-0.3381,1.2936,-0.4131,-0.9779,3.2591,-2.6298,1.0237,0.8991,0.1459,
11.316711,-0.3381,1.2936,-0.4131,-0.9779,3.2591,-2.6298,1.2229,1.6213,-0.2993,
11.337897,-0.3476,1.1683,-0.5409,-0.9779,3.2591,-2.6298,1.2229,1.6213,-0.2993,
11.340048,-0.3476,1.1683,-0.5409,-1.1287,2.1133,-3.3455,1.2229,1.6213,-0.2993,
11.341829,-0.3476,1.1683,-0.5409,-1.1287,2.1133,-3.3455,1.2006,0.9646,-0.2109,
11.356402,-0.3476,1.1683,-0.5409,-1.1287,2.1133,-3.3455,0.8160,-0.3702,0.0511,
11.376886,-0.2201,1.0547,-0.2607,-1.1287,2.1133,-3.3455,0.8160,-0.3702,0.0511,
11.379093,-0.2201,1.0547,-0.2607,0.1275,1.0946,-0.1984,0.8160,-0.3702,0.0511,
11.380715,-0.2201,1.0547,-0.2607,0.1275,1.0946,-0.1984,0.0394,-1.8078,0.2466,
11.396890,-0.2201,1.0547,-0.2607,0.1275,1.0946,-0.1984,-0.9683,-3.3162,0.6972,
11.417407,0.0349,1.1302,0.0647,0.1275,1.0946,-0.1984,-0.9683,-3.3162,0.6972,
11.419424,0.0349,1.1302,0.0647,2.6759,1.7516,2.5807,-0.9683,-3.3162,0.6972,
11.421012,0.0349,1.1302,0.0647,2.6759,1.7516,2.5807,-1.3912,-3.4568,0.9625,
11.437002,0.0349,1.1302,0.0647,2.6759,1.7516,2.5807,-0.7622,-1.0828,0.7958,
11.457611,0.1180,1.0811,0.2700,2.6759,1.7516,2.5807,-0.7622,-1.0828,0.7958,
11.461731,0.1180,1.0811,0.2700,3.3105,1.1208,3.9809,-0.7622,-1.0828,0.7958,
11.463401,0.1180,1.0811,0.2700,3.3105,1.1208,3.9809,-0.0836,0.2999,0.1284,
11.476914,0.1180,1.0811,0.2700,3.3105,1.1208,3.9809,-0.2471,-0.5209,-0.3260,
11.497126,-0.3748,1.0212,0.2057,3.3105,1.1208,3.9809,-0.2471,-0.5209,-0.3260,
11.499164,-0.3748,1.0212,0.2057,-1.4786,0.5320,3.2673,-0.2471,-0.5209,-0.3260,
11.501216,-0.3748,1.0212,0.2057,-1.4786,0.5320,3.2673,-0.4639,-0.9486,-0.5790,
11.517124,-0.3748,1.0212,0.2057,-1.4786,0.5320,3.2673,-0.4501,-0.5412,-0.5145,
11.537319,-0.3266,0.9252,0.1693,-1.4786,0.5320,3.2673,-0.4501,-0.5412,-0.5145,
11.539752,-0.3266,0.9252,0.1693,-0.7683,-0.3847,2.6186,-0.4501,-0.5412,-0.5145,
11.541831,-0.3266,0.9252,0.1693,-0.7683,-0.3847,2.6186,-0.4746,-0.2344,-0.3739,
11.556929,-0.3266,0.9252,0.1693,-0.7683,-0.3847,2.6186,-0.4613,-0.1625,-0.4655,
11.577317,-0.2096,0.7305,-0.0467,-0.7683,-0.3847,2.6186,-0.4613,-0.1625,-0.4655,
11.579410,-0.2096,0.7305,-0.0467,0.5427,-2.2678,0.2965,-0.4613,-0.1625,-0.4655,
11.581226,-0.2096,0.7305,-0.0467,0.5427,-2.2678,0.2965,-0.5412,0.2615,-0.6035,
11.596566,-0.2096,0.7305,-0.0467,0.5427,-2.2678,0.2965,-0.7372,0.4948,-0.6802,
11.616715,-0.2450,0.6596,-0.1441,0.5427,-2.2678,0.2965,-0.7372,0.4948,-0.6802,
11.618963,-0.2450,0.6596,-0.1441,0.4268,-2.9092,-0.8576,-0.7372,0.4948,-0.6802,
11.620720,-0.2450,0.6596,-0.1441,0.4268,-2.9092,-0.8576,-0.9667,0.4975,-0.6083,
11.636853,-0.2450,0.6596,-0.1441,0.4268,-2.9092,-0.8576,-1.1526,0.5673,-0.3925,
11.656518,-0.2900,0.6572,-0.1676,0.4268,-2.9092,-0.8576,-1.1526,0.5673,-0.3925,
11.658945,-0.2900,0.6572,-0.1676,0.1650,-2.8913,-1.4208,-1.1526,0.5673,-0.3925,
11.660643,-0.2900,0.6572,-0.1676,0.1650,-2.8913,-1.4208,-1.1947,0.7270,-0.1305,
11.676340,-0.2900,0.6572,-0.1676,0.1650,-2.8913,-1.4208,-1.0381,0.8187,0.0762,
11.696619,-0.2976,0.8165,-0.1300,0.1650,-2.8913,-1.4208,-1.0381,0.8187,0.0762,
11.698856,-0.2976,0.8165,-0.1300,0.0995,-1.3295,-1.3750,-1.0381,0.8187,0.0762,
11.700690,-0.2976,0.8165,-0.1300,0.0995,-1.3295,-1.3750,-0.7095,0.7494,0.1779,
11.716803,-0.2976,0.8165,-0.1300,0.0995,-1.3295,-1.3750,-0.2993,0.2541,0.1688,
11.736925,-0.3894,0.8956,-0.1534,0.0995,-1.3295,-1.3750,-0.2993,0.2541,0.1688,
11.739160,-0.3894,0.8956,-0.1534,-0.8622,-0.5712,-1.7330,-0.2993,0.2541,0.1688,
11.741205,-0.3894,0.8956,-0.1534,-0.8622,-0.5712,-1.7330,0.0501,-0.3803,0.1886,
11.756667,-0.3894,0.8956,-0.1534,-0.8622,-0.5712,-1.7330,0.2280,-0.6120,0.2525,
11.776949,-0.4349,0.8824,-0.1578,-0.8622,-0.5712,-1.7330,0.2280,-0.6120,0.2525,
11.779447,-0.4349,0.8824,-0.1578,-1.3787,-0.7231,-1.7568,0.2280,-0.6120,0.2525,
11.781427,-0.4349,0.8824,-0.1578,-1.3787,-0.7231,-1.7568,0.2780,-0.5161,0.3249,
11.796686,-0.4349,0.8824,-0.1578,-1.3787,-0.7231,-1.7568,0.2626,-0.2541,0.3808,
11.816718,-0.4190,0.9726,-0.1576,-1.3787,-0.7231,-1.7568,0.2626,-0.2541,0.3808,
11.820827,-0.4190,0.9726,-0.1576,-1.3140,0.1310,-1.6359,0.2626,-0.2541,0.3808,
11.822597,-0.4190,0.9726,-0.1576,-1.3140,0.1310,-1.6359,0.2439,0.0016,0.3851,
11.836336,-0.4190,0.9726,-0.1576,-1.3140,0.1310,-1.6359,0.2290,0.0154,0.3281,
11.856082,-0.4815,1.1692,-0.1468,-1.3140,0.1310,-1.6359,0.2290,0.0154,0.3281,
11.858329,-0.4815,1.1692,-0.1468,-2.0611,2.0191,-1.4406,0.2290,0.0154,0.3281,
11.860091,-0.4815,1.1692,-0.1468,-2.0611,2.0191,-1.4406,0.1923,-0.1933,0.2578,
11.876692,-0.4815,1.1692,-0.1468,-2.0611,2.0191,-1.4406,0.1135,-0.1678,0.1971,
11.896923,-0.5580,1.1619,-0.2140,-2.0611,2.0191,-1.4406,0.1135,-0.1678,0.1971,
11.899295,-0.5580,1.1619,-0.2140,-2.8962,1.9236,-2.0602,0.1135,-0.1678,0.1971,
11.901194,-0.5580,1.1619,-0.2140,-2.8962,1.9236,-2.0602,0.0980,0.1699,0.1518,
11.915870,-0.5580,1.1619,-0.2140,-2.8962,1.9236,-2.0602,0.2285,0.1800,0.1411,
11.937570,-0.4847,1.4856,-0.0220,-2.8962,1.9236,-2.0602,0.2285,0.1800,0.1411,
11.939820,-0.4847,1.4856,-0.0220,-2.2338,5.0815,-0.0988,0.2285,0.1800,0.1411,
11.941662,-0.4847,1.4856,-0.0220,-2.2338,5.0815,-0.0988,0.4059,0.0117,0.0751,
11.955683,-0.4847,1.4856,-0.0220,-2.2338,5.0815,-0.0988,0.5960,-0.3680,0.0490,
11.976254,-0.2756,0.9721,0.0450,-2.2338,5.0815,-0.0988,0.5960,-0.3680,0.0490,
11.978366,-0.2756,0.9721,0.0450,-0.2062,0.0468,0.7291,0.5960,-0.3680,0.0490,
11.979993,-0.2756,0.9721,0.0450,-0.2062,0.0468,0.7291,0.7020,-0.7361,0.0117,
11.996591,-0.2756,0.9721,0.0450,-0.2062,0.0468,0.7291,0.6759,-0.9838,-0.1044,
12.015873,-0.1334,0.7796,0.0296,-0.2062,0.0468,0.7291,0.6759,-0.9838,-0.1044,
12.018527,-0.1334,0.7796,0.0296,1.2241,-1.8236,0.7419,0.6759,-0.9838,-0.1044,
12.020055,-0.1334,0.7796,0.0296,1.2241,-1.8236,0.7419,0.5284,-1.1553,-0.2125,
12.037496,-0.1334,0.7796,0.0296,1.2241,-1.8236,0.7419,0.2839,-1.1382,-0.2647,
12.056381,-0.0665,1.0737,0.1285,1.2241,-1.8236,0.7419,0.2839,-1.1382,-0.2647,
12.058958,-0.0665,1.0737,0.1285,1.9720,1.0846,1.7235,0.2839,-1.1382,-0.2647,
12.060573,-0.0665,1.0737,0.1285,1.9720,1.0846,1.7235,0.0905,-1.0802,-0.2514,
12.076216,-0.0665,1.0737,0.1285,1.9720,1.0846,1.7235,0.0644,-1.0796,-0.1864,
12.095819,-0.1102,1.0488,0.1473,1.9720,1.0846,1.7235,0.0644,-1.0796,-0.1864,
12.098231,-0.1102,1.0488,0.1473,1.6183,0.8567,1.7960,0.0644,-1.0796,-0.1864,
12.099735,-0.1102,1.0488,0.1473,1.6183,0.8567,1.7960,0.1417,-0.7302,0.0123,
12.115873,-0.1102,1.0488,0.1473,1.6183,0.8567,1.7960,0.1209,0.1081,0.2386,
12.136311,-0.0633,0.8216,0.0462,1.6183,0.8567,1.7960,0.1209,0.1081,0.2386,
12.137996,-0.0633,0.8216,0.0462,2.0059,-1.3905,0.7979,0.1209,0.1081,0.2386,
12.139334,-0.0633,0.8216,0.0462,2.0059,-1.3905,0.7979,0.0692,0.6631,0.4053,
12.157849,-0.0633,0.8216,0.0462,2.0059,-1.3905,0.7979,-0.0043,1.0008,0.4629,
12.176926,-0.0161,0.7156,0.0293,2.0059,-1.3905,0.7979,-0.0043,1.0008,0.4629,
12.179146,-0.0161,0.7156,0.0293,2.2906,-2.4731,0.7291,-0.0043,1.0008,0.4629,
12.180841,-0.0161,0.7156,0.0293,2.2906,-2.4731,0.7291,-0.0197,1.1707,0.3601,
12.196017,-0.0161,0.7156,0.0293,2.2906,-2.4731,0.7291,0.0778,1.3087,0.2850,
12.216301,-0.2055,0.7957,0.0300,2.2906,-2.4731,0.7291,0.0778,1.3087,0.2850,
12.219029,-0.2055,0.7957,0.0300,0.2879,-1.7178,0.8647,0.0778,1.3087,0.2850,
12.220666,-0.2055,0.7957,0.0300,0.2879,-1.7178,0.8647,0.6253,2.1641,0.0682,
12.236244,-0.2055,0.7957,0.0300,0.2879,-1.7178,0.8647,1.3891,3.2192,-0.1422,
12.256738,-0.3301,0.7969,-0.3232,0.2879,-1.7178,0.8647,1.3891,3.2192,-0.1422,
12.258755,-0.3301,0.7969,-0.3232,-1.0123,-1.6666,-1.9726,1.3891,3.2192,-0.1422,
12.260751,-0.3301,0.7969,-0.3232,-1.0123,-1.6666,-1.9726,1.3982,2.8597,0.0533,
12.276525,-0.3301,0.7969,-0.3232,-1.0123,-1.6666,-1.9726,0.8597,1.6346,0.1294,
12.296229,-0.0848,0.7315,-0.4999,-1.0123,-1.6666,-1.9726,0.8597,1.6346,0.1294,
12.298595,-0.0848,0.7315,-0.4999,1.2223,-2.2480,-3.0848,0.8597,1.6346,0.1294,
12.300560,-0.0848,0.7315,-0.4999,1.2223,-2.2480,-3.0848,0.2232,0.4815,0.0202,
12.316421,-0.0848,0.7315,-0.4999,1.2223,-2.2480,-3.0848,-0.2360,-0.1348,-0.2162,
12.335692,-0.0198,0.7400,-0.4862,1.2223,-2.2480,-3.0848,-0.2360,-0.1348,-0.2162,
12.338875,-0.0198,0.7400,-0.4862,1.8831,-2.1567,-2.9389,-0.2360,-0.1348,-0.2162,
12.341024,-0.0198,0.7400,-0.4862,1.8831,-2.1567,-2.9389,-0.5912,-0.4842,-0.3830,
12.355780,-0.0198,0.7400,-0.4862,1.8831,-2.1567,-2.9389,-0.8852,-0.5060,-0.3798,
12.376001,-0.1757,0.9479,-0.4354,1.8831,-2.1567,-2.9389,-0.8852,-0.5060,-0.3798,
12.378169,-0.1757,0.9479,-0.4354,0.5219,-0.1319,-2.7255,-0.8852,-0.5060,-0.3798,
12.379966,-0.1757,0.9479,-0.4354,0.5219,-0.1319,-2.7255,-0.9364,-0.0533,-0.3382,
12.396288,-0.1757,0.9479,-0.4354,0.5219,-0.1319,-2.7255,-0.4842,0.7238,-0.4032,
12.415585,-0.4842,1.1517,-0.2265,0.5219,-0.1319,-2.7255,-0.4842,0.7238,-0.4032,
12.418363,-0.4842,1.1517,-0.2265,-2.3762,1.8633,-0.8905,-0.4842,0.7238,-0.4032,
12.420338,-0.4842,1.1517,-0.2265,-2.3762,1.8633,-0.8905,0.1214,0.4325,-0.3606,
12.436022,-0.4842,1.1517,-0.2265,-2.3762,1.8633,-0.8905,0.3840,-0.3015,0.0740,
12.455063,-0.4354,1.2228,-0.4361,-2.3762,1.8633,-0.8905,0.3840,-0.3015,0.0740,
12.457095,-0.4354,1.2228,-0.4361,-1.8467,2.5878,-2.8437,0.3840,-0.3015,0.0740,
12.458995,-0.4354,1.2228,-0.4361,-1.8467,2.5878,-2.8437,1.0253,1.0450,-0.0458,
12.475666,-0.4354,1.2228,-0.4361,-1.8467,2.5878,-2.8437,1.2655,1.3779,-0.3638,
12.495154,-0.3994,1.1101,-0.5502,-1.8467,2.5878,-2.8437,1.2655,1.3779,-0.3638,
12.497304,-0.3994,1.1101,-0.5502,-1.5009,1.5816,-3.4170,1.2655,1.3779,-0.3638,
12.499017,-0.3994,1.1101,-0.5502,-1.5009,1.5816,-3.4170,1.1920,0.7057,-0.4469,
12.515957,-0.3994,1.1101,-0.5502,-1.5009,1.5816,-3.4170,0.6866,-0.6695,0.0996,
12.536973,-0.1659,1.1162,-0.2726,-1.5009,1.5816,-3.4170,0.6866,-0.6695,0.0996,
12.540960,-0.1659,1.1162,-0.2726,0.8530,1.7396,-0.3491,0.6866,-0.6695,0.0996,
12.543058,-0.1659,1.1162,-0.2726,0.8530,1.7396,-0.3491,-0.3510,-2.3484,0.5428,
12.555884,-0.1659,1.1162,-0.2726,0.8530,1.7396,-0.3491,-1.1324,-3.2240,1.0450,
12.575620,0.1512,1.2465,0.1353,0.8530,1.7396,-0.3491,-1.1324,-3.2240,1.0450,
12.577581,0.1512,1.2465,0.1353,3.8976,2.8777,3.1002,-1.1324,-3.2240,1.0450,
12.579117,0.1512,1.2465,0.1353,3.8976,2.8777,3.1002,-0.8320,-2.0048,1.2639,
12.596017,0.1512,1.2465,0.1353,3.8976,2.8777,3.1002,-0.0586,-0.2088,0.7180,
12.615340,0.0657,1.0469,0.2607,3.8976,2.8777,3.1002,-0.0586,-0.2088,0.7180,
12.618245,0.0657,1.0469,0.2607,2.7598,0.8024,4.0592,-0.0586,-0.2088,0.7180,
12.619943,0.0657,1.0469,0.2607,2.7598,0.8024,4.0592,0.1880,-0.8490,-0.0160,
12.635250,0.0657,1.0469,0.2607,2.7598,0.8024,4.0592,-0.2610,-2.2743,-0.2679,
12.655453,-0.3474,1.0742,0.2006,2.7598,0.8024,4.0592,-0.2610,-2.2743,-0.2679,
12.657596,-0.3474,1.0742,0.2006,-1.1449,1.0812,3.3205,-0.2610,-2.2743,-0.2679,
12.659246,-0.3474,1.0742,0.2006,-1.1449,1.0812,3.3205,-0.6024,-2.1279,-0.4293,
12.675984,-0.3474,1.0742,0.2006,-1.1449,1.0812,3.3205,-0.6296,-0.8101,-0.3766,
12.695602,-0.4202,0.9880,0.1324,-1.1449,1.0812,3.3205,-0.6296,-0.8101,-0.3766,
12.697772,-0.4202,0.9880,0.1324,-1.6360,0.2452,2.2743,-0.6296,-0.8101,-0.3766,
12.699474,-0.4202,0.9880,0.1324,-1.6360,0.2452,2.2743,-0.5380,0.3494,-0.2503,
12.716605,-0.4202,0.9880,0.1324,-1.6360,0.2452,2.2743,-0.4645,0.5838,-0.3324,
12.735991,-0.2577,0.7473,-0.0366,-1.6360,0.2452,2.2743,-0.4645,0.5838,-0.3324,
12.738340,-0.2577,0.7473,-0.0366,0.0536,-2.1033,0.4445,-0.4645,0.5838,-0.3324,
12.740003,-0.2577,0.7473,-0.0366,0.0536,-2.1033,0.4445,-0.4953,0.4085,-0.4671,
12.756804,-0.2577,0.7473,-0.0366,0.0536,-2.1033,0.4445,-0.6429,0.2743,-0.5529,
12.775514,-0.3005,0.6679,-0.2003,0.0536,-2.1033,0.4445,-0.6429,0.2743,-0.5529,
12.777627,-0.3005,0.6679,-0.2003,-0.1836,-2.8433,-1.3374,-0.6429,0.2743,-0.5529,
12.779563,-0.3005,0.6679,-0.2003,-0.1836,-2.8433,-1.3374,-0.8767,0.3334,-0.5300,
12.795641,-0.3005,0.6679,-0.2003,-0.1836,-2.8433,-1.3374,-1.1153,0.5779,-0.3372,
12.815254,-0.3269,0.6235,-0.2221,-0.1836,-2.8433,-1.3374,-1.1153,0.5779,-0.3372,
12.817728,-0.3269,0.6235,-0.2221,-0.2881,-3.2483,-1.8710,-1.1153,0.5779,-0.3372,
12.819651,-0.3269,0.6235,-0.2221,-0.2881,-3.2483,-1.8710,-1.2112,0.8714,-0.0708,
12.835070,-0.3269,0.6235,-0.2221,-0.2881,-3.2483,-1.8710,-1.0908,1.0258,0.1124,
12.855678,-0.2805,0.7124,-0.1371,-0.2881,-3.2483,-1.8710,-1.0908,1.0258,0.1124,
12.858217,-0.2805,0.7124,-0.1371,0.1540,-2.3857,-1.3578,-1.0908,1.0258,0.1124,
12.860046,-0.2805,0.7124,-0.1371,0.1540,-2.3857,-1.3578,-0.7601,0.8954,0.1736,
12.875642,-0.2805,0.7124,-0.1371,0.1540,-2.3857,-1.3578,-0.3345,0.4384,0.1459,
12.895340,-0.3459,0.8270,-0.1165,0.1540,-2.3857,-1.3578,-0.3345,0.4384,0.1459,
12.897805,-0.3459,0.8270,-0.1165,-0.5453,-1.2795,-1.2850,-0.3345,0.4384,0.1459,
12.899751,-0.3459,0.8270,-0.1165,-0.5453,-1.2795,-1.2850,0.0117,-0.2471,0.1321,
12.914796,-0.3459,0.8270,-0.1165,-0.5453,-1.2795,-1.2850,0.1337,-0.7430,0.1768,
12.935611,-0.3601,0.8553,-0.1634,-0.5453,-1.2795,-1.2850,0.1337,-0.7430,0.1768,
12.938087,-0.3601,0.8553,-0.1634,-0.7453,-1.0196,-1.7730,0.1337,-0.7430,0.1768,
12.939966,-0.3601,0.8553,-0.1634,-0.7453,-1.0196,-1.7730,0.0682,-0.8432,0.2461,
12.954592,-0.3601,0.8553,-0.1634,-0.7453,-1.0196,-1.7730,-0.0256,-0.5587,0.3004,
12.975449,-0.3638,0.9653,-0.1251,-0.7453,-1.0196,-1.7730,-0.0256,-0.5587,0.3004,
12.977752,-0.3638,0.9653,-0.1251,-0.8707,0.0325,-1.4335,-0.0256,-0.5587,0.3004,
12.979571,-0.3638,0.9653,-0.1251,-0.8707,0.0325,-1.4335,-0.0197,-0.1150,0.3095,
12.995137,-0.3638,0.9653,-0.1251,-0.8707,0.0325,-1.4335,0.0932,0.0852,0.3004,
13.015171,-0.4542,1.1561,-0.1073,-0.8707,0.0325,-1.4335,0.0932,0.0852,0.3004,
13.017906,-0.4542,1.1561,-0.1073,-1.8618,1.8724,-1.2340,0.0932,0.0852,0.3004,
13.019800,-0.4542,1.1561,-0.1073,-1.8618,1.8724,-1.2340,0.1822,-0.0511,0.2642,
13.035875,-0.4542,1.1561,-0.1073,-1.8618,1.8724,-1.2340,0.1481,-0.1843,0.2040,
13.054829,-0.5856,1.1888,-0.2353,-1.8618,1.8724,-1.2340,0.1481,-0.1843,0.2040,
13.057061,-0.5856,1.1888,-0.2353,-3.2391,2.1684,-2.4380,0.1481,-0.1843,0.2040,
13.058090,-0.5856,1.1888,-0.2353,-3.2391,2.1684,-2.4380,0.0399,-0.0261,0.1545,
13.073951,-0.5856,1.1888,-0.2353,-3.2391,2.1684,-2.4380,0.0506,0.3643,0.1449,
13.094523,-0.5140,1.3652,-0.1659,-3.2391,2.1684,-2.4380,0.0506,0.3643,0.1449,
13.095453,-0.5140,1.3652,-0.1659,-2.5936,3.8820,-1.7244,0.0506,0.3643,0.1449,
13.096112,-0.5140,1.3652,-0.1659,-2.5936,3.8820,-1.7244,0.2674,0.4756,0.1060,
13.114517,-0.5140,1.3652,-0.1659,-2.5936,3.8820,-1.7244,0.5262,0.1577,0.0277,
13.134877,-0.3667,1.1783,0.0469,-2.5936,3.8820,-1.7244,0.5262,0.1577,0.0277,
13.136992,-0.3667,1.1783,0.0469,-1.1747,2.0440,0.5423,0.5262,0.1577,0.0277,
13.138662,-0.3667,1.1783,0.0469,-1.1747,2.0440,0.5423,0.7137,-0.4389,-0.0117,
13.156079,-0.3667,1.1783,0.0469,-1.1747,2.0440,0.5423,0.7760,-1.0764,-0.1262,
13.174287,-0.1459,0.7981,0.0660,-1.1747,2.0440,0.5423,0.7760,-1.0764,-0.1262,
13.176335,-0.1459,0.7981,0.0660,1.0275,-1.6676,0.9362,0.7760,-1.0764,-0.1262,
13.177961,-0.1459,0.7981,0.0660,1.0275,-1.6676,0.9362,0.7217,-1.4578,-0.2551,
13.194033,-0.1459,0.7981,0.0660,1.0275,-1.6676,0.9362,0.5433,-1.6512,-0.3180,
13.214753,-0.0840,1.0486,0.0980,1.0275,-1.6676,0.9362,0.5433,-1.6512,-0.3180,
13.216863,-0.0840,1.0486,0.0980,1.7526,0.8206,1.3205,0.5433,-1.6512,-0.3180,
13.218395,-0.0840,1.0486,0.0980,1.7526,0.8206,1.3205,0.2477,-1.6096,-0.2764,
13.234932,-0.0840,1.0486,0.0980,1.7526,0.8206,1.3205,0.0629,-1.6117,-0.1806,
13.255297,0.0225,1.1812,0.2668,1.7526,0.8206,1.3205,0.0629,-1.6117,-0.1806,
13.258279,0.0225,1.1812,0.2668,2.9029,2.1467,2.8640,0.0629,-1.6117,-0.1806,
13.259733,0.0225,1.1812,0.2668,2.9029,2.1467,2.8640,0.1433,-1.4823,-0.1145,
13.275086,0.0225,1.1812,0.2668,2.9029,2.1467,2.8640,0.3574,-0.7755,0.0357,
13.295115,-0.0415,0.8883,0.0860,2.9029,2.1467,2.8640,0.3574,-0.7755,0.0357,
13.297144,-0.0415,0.8883,0.0860,2.2382,-0.7362,1.0206,0.3574,-0.7755,0.0357,
13.298824,-0.0415,0.8883,0.0860,2.2382,-0.7362,1.0206,0.4719,0.2615,0.2296,
13.314410,-0.0415,0.8883,0.0860,2.2382,-0.7362,1.0206,0.4762,1.0093,0.3734,
13.334636,-0.0354,0.7424,-0.0183,2.2382,-0.7362,1.0206,0.4762,1.0093,0.3734,
13.336911,-0.0354,0.7424,-0.0183,2.1759,-2.1911,0.2427,0.4762,1.0093,0.3734,
13.338576,-0.0354,0.7424,-0.0183,2.1759,-2.1911,0.2427,0.3920,1.3832,0.4357,
13.354602,-0.0354,0.7424,-0.0183,2.1759,-2.1911,0.2427,0.3143,1.6139,0.3755,
13.374166,-0.1258,0.7268,-0.0332,2.1759,-2.1911,0.2427,0.3143,1.6139,0.3755,
13.376223,-0.1258,0.7268,-0.0332,1.1023,-2.3759,0.3756,0.3143,1.6139,0.3755,
13.377805,-0.1258,0.7268,-0.0332,1.1023,-2.3759,0.3756,0.4655,2.0986,0.2184,
13.393982,-0.1258,0.7268,-0.0332,1.1023,-2.3759,0.3756,1.0413,3.0744,-0.0842,
13.414541,-0.3621,0.7630,-0.2204,1.1023,-2.3759,0.3756,1.0413,3.0744,-0.0842,
13.416696,-0.3621,0.7630,-0.2204,-1.3363,-1.9986,-0.9390,1.0413,3.0744,-0.0842,
13.418594,-0.3621,0.7630,-0.2204,-1.3363,-1.9986,-0.9390,1.3385,3.2043,-0.0751,
13.434547,-0.3621,0.7630,-0.2204,-1.3363,-1.9986,-0.9390,1.1073,2.1982,0.0261,
13.454428,-0.2336,0.6919,-0.4349,-1.3363,-1.9986,-0.9390,1.1073,2.1982,0.0261,
13.456717,-0.2336,0.6919,-0.4349,-0.2357,-2.6163,-2.3490,1.1073,2.1982,0.0261,
13.458555,-0.2336,0.6919,-0.4349,-0.2357,-2.6163,-2.3490,0.6141,0.9497,0.0341,
13.474899,-0.2336,0.6919,-0.4349,-0.2357,-2.6163,-2.3490,0.0735,0.0927,-0.0320,
13.494402,-0.0518,0.7100,-0.5101,-0.2357,-2.6163,-2.3490,0.0735,0.0927,-0.0320,
13.496655,-0.0518,0.7100,-0.5101,1.5037,-2.4117,-2.9154,0.0735,0.0927,-0.0320,
13.498690,-0.0518,0.7100,-0.5101,1.5037,-2.4117,-2.9154,-0.4655,-0.3739,-0.1656,
13.514235,-0.0518,0.7100,-0.5101,1.5037,-2.4117,-2.9154,-0.9752,-0.5300,-0.2455,
13.534339,-0.1204,0.8815,-0.4784,1.5037,-2.4117,-2.9154,-0.9752,-0.5300,-0.2455,
13.536758,-0.1204,0.8815,-0.4784,0.9422,-0.7689,-2.9075,-0.9752,-0.5300,-0.2455,
13.538584,-0.1204,0.8815,-0.4784,0.9422,-0.7689,-2.9075,-1.2666,-0.1369,-0.2695,
13.554016,-0.1204,0.8815,-0.4784,0.9422,-0.7689,-2.9075,-1.0898,0.7510,-0.3313,
13.573951,-0.3779,1.0517,-0.3144,0.9422,-0.7689,-2.9075,-1.0898,0.7510,-0.3313,
13.576114,-0.3779,1.0517,-0.3144,-1.4787,0.8666,-1.6330,-1.0898,0.7510,-0.3313,
13.578010,-0.3779,1.0517,-0.3144,-1.4787,0.8666,-1.6330,-0.5598,0.9555,-0.3025,
13.594078,-0.3779,1.0517,-0.3144,-1.4787,0.8666,-1.6330,-0.0341,0.0692,-0.0953,
13.614629,-0.4051,1.1881,-0.1590,-1.4787,0.8666,-1.6330,-0.0341,0.0692,-0.0953,
13.616853,-0.4051,1.1881,-0.1590,-1.6984,2.2036,-0.1764,-0.0341,0.0692,-0.0953,
13.618521,-0.4051,1.1881,-0.1590,-1.6984,2.2036,-0.1764,0.1779,-0.6834,0.2498,
13.633471,-0.4051,1.1881,-0.1590,-1.6984,2.2036,-0.1764,0.7697,0.8538,0.2093,
13.653650,-0.4603,1.3779,-0.4420,-1.6984,2.2036,-0.1764,0.7697,0.8538,0.2093,
13.655475,-0.4603,1.3779,-0.4420,-2.3323,4.0710,-2.7635,0.7697,0.8538,0.2093,
13.656877,-0.4603,1.3779,-0.4420,-2.3323,4.0710,-2.7635,1.7486,2.6983,-0.1832,
13.673576,-0.4603,1.3779,-0.4420,-2.3323,4.0710,-2.7635,1.9654,1.7849,0.0085,
13.693974,-0.2306,1.1714,-0.4273,-2.3323,4.0710,-2.7635,1.9654,1.7849,0.0085,
13.696207,-0.2306,1.1714,-0.4273,-0.2250,2.2055,-1.7361,1.9654,1.7849,0.0085,
13.698134,-0.2306,1.1714,-0.4273,-0.2250,2.2055,-1.7361,1.1063,-1.0243,0.4959,
13.714677,-0.2306,1.1714,-0.4273,-0.2250,2.2055,-1.7361,-0.3910,-3.7609,0.8767,
13.734820,0.0376,1.0102,-0.0787,-0.2250,2.2055,-1.7361,-0.3910,-3.7609,0.8767,
13.737429,0.0376,1.0102,-0.0787,2.3898,0.6067,1.6206,-0.3910,-3.7609,0.8767,
13.739125,0.0376,1.0102,-0.0787,2.3898,0.6067,1.6206,-1.4285,-4.4278,1.3497,
13.756979,0.0376,1.0102,-0.0787,2.3898,0.6067,1.6206,-1.1436,-1.8525,1.0844,
13.774552,0.3389,1.1201,0.1505,2.3898,0.6067,1.6206,-1.1436,-1.8525,1.0844,
13.776587,0.3389,1.1201,0.1505,5.1438,1.4862,3.1375,-1.1436,-1.8525,1.0844,
13.778135,0.3389,1.1201,0.1505,5.1438,1.4862,3.1375,0.4224,2.0181,0.0027,
13.793899,0.3389,1.1201,0.1505,5.1438,1.4862,3.1375,0.1310,0.1710,-0.5459,
13.813754,-0.3418,1.0588,-0.0293,5.1438,1.4862,3.1375,0.1310,0.1710,-0.5459,
13.815785,-0.3418,1.0588,-0.0293,-1.5016,0.9236,1.5562,0.1310,0.1710,-0.5459,
13.817766,-0.3418,1.0588,-0.0293,-1.5016,0.9236,1.5562,-0.8874,-2.3074,-0.6610,
13.833771,-0.3418,1.0588,-0.0293,-1.5016,0.9236,1.5562,-1.3582,-2.9598,-0.5987,
13.854462,-0.5570,0.9428,0.1077,-1.5016,0.9236,1.5562,-1.3582,-2.9598,-0.5987,
13.856729,-0.5570,0.9428,0.1077,-3.2045,-0.2308,2.2423,-1.3582,-2.9598,-0.5987,
13.858501,-0.5570,0.9428,0.1077,-3.2045,-0.2308,2.2423,-1.4839,-1.9169,-0.3995,
13.874656,-0.5570,0.9428,0.1077,-3.2045,-0.2308,2.2423,-1.1798,-0.4842,-0.1768,
13.894048,-0.1847,0.8397,0.2304,-3.2045,-0.2308,2.2423,-1.1798,-0.4842,-0.1768,
13.897603,-0.1847,0.8397,0.2304,0.6036,-1.2621,2.7731,-1.1798,-0.4842,-0.1768,
13.899528,-0.1847,0.8397,0.2304,0.6036,-1.2621,2.7731,-0.6360,0.2637,-0.3888,
13.913762,-0.1847,0.8397,0.2304,0.6036,-1.2621,2.7731,-0.3462,0.8703,-0.6562,
13.934221,-0.2333,0.7222,-0.0755,0.6036,-1.2621,2.7731,-0.3462,0.8703,-0.6562,
13.936290,-0.2333,0.7222,-0.0755,0.3155,-2.3700,-0.3533,-0.3462,0.8703,-0.6562,
13.938158,-0.2333,0.7222,-0.0755,0.3155,-2.3700,-0.3533,-0.4272,0.8868,-0.7803,
13.955635,-0.2333,0.7222,-0.0755,0.3155,-2.3700,-0.3533,-0.6759,0.6370,-0.7377,
13.973847,-0.3188,0.6633,-0.2165,0.3155,-2.3700,-0.3533,-0.6759,0.6370,-0.7377,
13.976161,-0.3188,0.6633,-0.2165,-0.2477,-2.8713,-1.8588,-0.6759,0.6370,-0.7377,
13.978204,-0.3188,0.6633,-0.2165,-0.2477,-2.8713,-1.8588,-0.9971,0.5124,-0.4549,
13.994048,-0.3188,0.6633,-0.2165,-0.2477,-2.8713,-1.8588,-1.2352,0.6088,-0.0767,
14.013833,-0.3020,0.6736,-0.1805,-0.2477,-2.8713,-1.8588,-1.2352,0.6088,-0.0767,
14.017659,-0.3020,0.6736,-0.1805,0.0149,-2.7435,-1.8579,-1.2352,0.6088,-0.0767,
14.019203,-0.3020,0.6736,-0.1805,0.0149,-2.7435,-1.8579,-1.2506,0.8320,0.1656,
14.033534,-0.3020,0.6736,-0.1805,0.0149,-2.7435,-1.8579,-0.9800,1.0557,0.2168,
14.053754,-0.3779,0.8174,-0.1187,0.0149,-2.7435,-1.8579,-0.9800,1.0557,0.2168,
14.055839,-0.3779,0.8174,-0.1187,-0.7910,-1.3448,-1.5578,-0.9800,1.0557,0.2168,
14.057825,-0.3779,0.8174,-0.1187,-0.7910,-1.3448,-1.5578,-0.5321,1.0045,0.1886,
14.073806,-0.3779,0.8174,-0.1187,-0.7910,-1.3448,-1.5578,-0.0421,0.5433,0.1907,
14.094491,-0.4060,0.8047,-0.1429,-0.7910,-1.3448,-1.5578,-0.0421,0.5433,0.1907,
14.096957,-0.4060,0.8047,-0.1429,-1.1244,-1.4864,-1.8128,-0.0421,0.5433,0.1907,
14.098966,-0.4060,0.8047,-0.1429,-1.1244,-1.4864,-1.8128,0.3025,-0.0735,0.2285,
14.113184,-0.4060,0.8047,-0.1429,-1.1244,-1.4864,-1.8128,0.4064,-0.4197,0.2780,
14.133800,-0.3843,0.8859,-0.1173,-1.1244,-1.4864,-1.8128,0.4064,-0.4197,0.2780,
14.136244,-0.3843,0.8859,-0.1173,-1.0022,-0.7230,-1.4466,0.4064,-0.4197,0.2780,
14.138192,-0.3843,0.8859,-0.1173,-1.0022,-0.7230,-1.4466,0.3579,-0.4618,0.2892,
14.154250,-0.3843,0.8859,-0.1173,-1.0022,-0.7230,-1.4466,0.2690,-0.4277,0.2642,
14.173962,-0.4197,1.1048,-0.0203,-1.0022,-0.7230,-1.4466,0.2690,-0.4277,0.2642,
14.176658,-0.4197,1.1048,-0.0203,-1.4253,1.3976,-0.3973,0.2690,-0.4277,0.2642,
14.178386,-0.4197,1.1048,-0.0203,-1.4253,1.3976,-0.3973,0.2413,-0.3478,0.2290,
14.193062,-0.4197,1.1048,-0.0203,-1.4253,1.3976,-0.3973,0.2557,-0.2674,0.1976,
14.213142,-0.4964,1.2650,-0.1476,-1.4253,1.3976,-0.3973,0.2557,-0.2674,0.1976,
14.215793,-0.4964,1.2650,-0.1476,-2.2596,2.9440,-1.5835,0.2557,-0.2674,0.1976,
14.217771,-0.4964,1.2650,-0.1476,-2.2596,2.9440,-1.5835,0.2264,-0.0378,0.1555,
14.232992,-0.4964,1.2650,-0.1476,-2.2596,2.9440,-1.5835,0.1843,0.4847,0.1364,
14.253230,-0.5424,1.3818,-0.2704,-2.2596,2.9440,-1.5835,0.1843,0.4847,0.1364,
14.255561,-0.5424,1.3818,-0.2704,-2.7643,4.0726,-2.6873,0.1843,0.4847,0.1364,
14.257359,-0.5424,1.3818,-0.2704,-2.7643,4.0726,-2.6873,0.2988,0.6770,0.1135,
14.274304,-0.5424,1.3818,-0.2704,-2.7643,4.0726,-2.6873,0.4815,0.0943,0.0799,
14.293042,-0.3921,1.1712,0.0107,-2.7643,4.0726,-2.6873,0.4815,0.0943,0.0799,
14.296813,-0.3921,1.1712,0.0107,-1.3288,2.0000,0.2552,0.4815,0.0943,0.0799,
14.298670,-0.3921,1.1712,0.0107,-1.3288,2.0000,0.2552,0.6024,-0.5673,0.0554,
14.313503,-0.3921,1.1712,0.0107,-1.3288,2.0000,0.2552,0.6567,-1.0152,-0.0357,
14.333264,-0.1676,0.7872,0.0491,-1.3288,2.0000,0.2552,0.6567,-1.0152,-0.0357,
14.335737,-0.1676,0.7872,0.0491,0.8810,-1.7573,0.7900,0.6567,-1.0152,-0.0357,
14.337346,-0.1676,0.7872,0.0491,0.8810,-1.7573,0.7900,0.6487,-1.2618,-0.1976,
14.353405,-0.1676,0.7872,0.0491,0.8810,-1.7573,0.7900,0.5646,-1.3023,-0.3057,
14.373172,-0.1385,1.0219,0.0838,0.8810,-1.7573,0.7900,0.5646,-1.3023,-0.3057,
14.375867,-0.1385,1.0219,0.0838,1.2726,0.5758,1.2159,0.5646,-1.3023,-0.3057,
14.377581,-0.1385,1.0219,0.0838,1.2726,0.5758,1.2159,0.4059,-1.2394,-0.3393,
14.393107,-0.1385,1.0219,0.0838,1.2726,0.5758,1.2159,0.2700,-1.2815,-0.3185,
14.413354,-0.0647,1.1705,0.2294,1.2726,0.5758,1.2159,0.2700,-1.2815,-0.3185,
14.415289,-0.0647,1.1705,0.2294,2.1394,2.0723,2.6339,0.2700,-1.2815,-0.3185,
14.416903,-0.0647,1.1705,0.2294,2.1394,2.0723,2.6339,0.2317,-1.5031,-0.1720,
14.432930,-0.0647,1.1705,0.2294,2.1394,2.0723,2.6339,0.2402,-1.2528,0.0911,
14.453067,-0.0283,0.9249,0.0772,2.1394,2.0723,2.6339,0.2402,-1.2528,0.0911,
14.455541,-0.0283,0.9249,0.0772,2.4793,-0.3424,1.0400,0.2402,-1.2528,0.0911,
14.457482,-0.0283,0.9249,0.0772,2.4793,-0.3424,1.0400,0.1822,-0.2770,0.3143,
14.472694,-0.0283,0.9249,0.0772,2.4793,-0.3424,1.0400,0.1406,0.6503,0.4155,
14.493021,0.0027,0.7246,0.0227,2.4793,-0.3424,1.0400,0.1406,0.6503,0.4155,
14.495107,0.0027,0.7246,0.0227,2.6433,-2.3428,0.5863,0.1406,0.6503,0.4155,
14.497116,0.0027,0.7246,0.0227,2.6433,-2.3428,0.5863,0.1060,1.2410,0.4000,
14.513081,0.0027,0.7246,0.0227,2.6433,-2.3428,0.5863,0.1214,1.4962,0.3238,
14.532636,-0.1165,0.7158,0.0191,2.6433,-2.3428,0.5863,0.1214,1.4962,0.3238,
14.534777,-0.1165,0.7158,0.0191,1.3133,-2.4636,0.7317,0.1214,1.4962,0.3238,
14.536592,-0.1165,0.7158,0.0191,1.3133,-2.4636,0.7317,0.2578,1.7449,0.2700,
14.553228,-0.1165,0.7158,0.0191,1.3133,-2.4636,0.7317,0.8788,2.7361,-0.0218,
14.573090,-0.4148,0.7925,-0.1705,1.3133,-2.4636,0.7317,0.8788,2.7361,-0.0218,
14.575145,-0.4148,0.7925,-0.1705,-1.7235,-1.7062,-0.6974,0.8788,2.7361,-0.0218,
14.577223,-0.4148,0.7925,-0.1705,-1.7235,-1.7062,-0.6974,1.4557,3.3865,-0.1997,
14.592562,-0.4148,0.7925,-0.1705,-1.7235,-1.7062,-0.6974,1.3470,2.7665,-0.0378,
14.612864,-0.2450,0.7244,-0.4752,-1.7235,-1.7062,-0.6974,1.3470,2.7665,-0.0378,
14.615533,-0.2450,0.7244,-0.4752,-0.1832,-2.2858,-2.8740,1.3470,2.7665,-0.0378,
14.617599,-0.2450,0.7244,-0.4752,-0.1832,-2.2858,-2.8740,0.7313,1.4818,0.0815,
14.632617,-0.2450,0.7244,-0.4752,-0.1832,-2.2858,-2.8740,0.1209,0.4479,-0.0298,
14.653156,0.0107,0.6604,-0.4542,-0.1832,-2.2858,-2.8740,0.1209,0.4479,-0.0298,
14.656418,0.0107,0.6604,-0.4542,2.2402,-2.8830,-2.4247,0.1209,0.4479,-0.0298,
14.658400,0.0107,0.6604,-0.4542,2.2402,-2.8830,-2.4247,-0.3153,-0.1204,-0.1928,
14.673056,0.0107,0.6604,-0.4542,2.2402,-2.8830,-2.4247,-0.6993,-0.5438,-0.3041,
14.692685,-0.0811,0.8780,-0.4969,2.2402,-2.8830,-2.4247,-0.6993,-0.5438,-0.3041,
14.694854,-0.0811,0.8780,-0.4969,1.4582,-0.7669,-3.0627,-0.6993,-0.5438,-0.3041,
14.696689,-0.0811,0.8780,-0.4969,1.4582,-0.7669,-3.0627,-1.0610,-0.6195,-0.2898,
14.712617,-0.0811,0.8780,-0.4969,1.4582,-0.7669,-3.0627,-1.0994,0.0975,-0.2860,
14.732536,-0.3103,1.0752,-0.3447,1.4582,-0.7669,-3.0627,-1.0994,0.0975,-0.2860,
14.735190,-0.3103,1.0752,-0.3447,-0.6771,1.1330,-1.9114,-1.0994,0.0975,-0.2860,
14.737238,-0.3103,1.0752,-0.3447,-0.6771,1.1330,-1.9114,-0.6381,0.9289,-0.3228,
14.753100,-0.3103,1.0752,-0.3447,-0.6771,1.1330,-1.9114,-0.0415,0.5396,-0.2157,
14.772819,-0.4815,1.1634,-0.2199,-0.6771,1.1330,-1.9114,-0.0415,0.5396,-0.2157,
14.775405,-0.4815,1.1634,-0.2199,-2.2959,2.0037,-0.7455,-0.0415,0.5396,-0.2157,
14.777665,-0.4815,1.1634,-0.2199,-2.2959,2.0037,-0.7455,0.2828,-0.4810,0.0698,
14.792043,-0.4815,1.1634,-0.2199,-2.2959,2.0037,-0.7455,0.6669,0.2173,0.0682,
14.811757,-0.5182,1.1502,-0.5338,-2.2959,2.0037,-0.7455,0.6669,0.2173,0.0682,
14.813961,-0.5182,1.1502,-0.5338,-2.6738,1.8958,-3.6569,0.6669,0.2173,0.0682,
14.815343,-0.5182,1.1502,-0.5338,-2.6738,1.8958,-3.6569,1.1963,1.7295,-0.3398,
14.831587,-0.5182,1.1502,-0.5338,-2.6738,1.8958,-3.6569,1.2570,1.1888,-0.3478,
14.852414,-0.3068,1.1541,-0.4434,-2.6738,1.8958,-3.6569,1.2570,1.1888,-0.3478,
14.854673,-0.3068,1.1541,-0.4434,-0.5826,2.0594,-2.1741,1.2570,1.1888,-0.3478,
14.856574,-0.3068,1.1541,-0.4434,-0.5826,2.0594,-2.1741,0.9758,-0.1901,0.0501,
14.872190,-0.3068,1.1541,-0.4434,-0.5826,2.0594,-2.1741,0.2887,-1.8333,0.3633,
14.892092,-0.1085,1.0896,-0.0586,-0.5826,2.0594,-2.1741,0.2887,-1.8333,0.3633,
14.894300,-0.1085,1.0896,-0.0586,1.3791,1.4646,1.7314,0.2887,-1.8333,0.3633,
14.895922,-0.1085,1.0896,-0.0586,1.3791,1.4646,1.7314,-0.8804,-3.7737,0.8490,
14.912690,-0.1085,1.0896,-0.0586,1.3791,1.4646,1.7314,-1.3630,-3.8355,1.3742,
14.932043,0.3696,1.1800,0.2367,1.3791,1.4646,1.7314,-1.3630,-3.8355,1.3742,
14.934142,0.3696,1.1800,0.2367,5.9452,2.1587,3.8420,-1.3630,-3.8355,1.3742,
14.935700,0.3696,1.1800,0.2367,5.9452,2.1587,3.8420,-0.3015,-0.1113,1.3268,
14.952055,0.3696,1.1800,0.2367,5.9452,2.1587,3.8420,0.6477,1.4626,0.3835,
14.972271,-0.0428,0.9704,0.1859,5.9452,2.1587,3.8420,0.6477,1.4626,0.3835,
14.974268,-0.0428,0.9704,0.1859,1.5176,0.0332,3.4389,0.6477,1.4626,0.3835,
14.975854,-0.0428,0.9704,0.1859,1.5176,0.0332,3.4389,0.2051,-0.8325,-0.0778,
14.991783,-0.0428,0.9704,0.1859,1.5176,0.0332,3.4389,-0.4554,-2.2046,-0.5278,
15.012502,-0.4864,1.0654,0.0901,1.5176,0.0332,3.4389,-0.4554,-2.2046,-0.5278,
15.014544,-0.4864,1.0654,0.0901,-2.6220,0.9803,2.3195,-0.4554,-2.2046,-0.5278,
15.016263,-0.4864,1.0654,0.0901,-2.6220,0.9803,2.3195,-0.8229,-1.8908,-0.6296,
15.032043,-0.4864,1.0654,0.0901,-2.6220,0.9803,2.3195,-0.8895,-0.6338,-0.4293,
15.052683,-0.3169,0.9064,0.0581,-2.6220,0.9803,2.3195,-0.8895,-0.6338,-0.4293,
15.054748,-0.3169,0.9064,0.0581,-0.6945,-0.5752,1.5243,-0.8895,-0.6338,-0.4293,
15.056541,-0.3169,0.9064,0.0581,-0.6945,-0.5752,1.5243,-0.7942,0.6019,-0.3169,
15.072159,-0.3169,0.9064,0.0581,-0.6945,-0.5752,1.5243,-0.7031,1.0546,-0.4495,
15.091852,-0.2314,0.7073,-0.1187,-0.6945,-0.5752,1.5243,-0.7031,1.0546,-0.4495,
15.094112,-0.2314,0.7073,-0.1187,0.2610,-2.5140,-0.4115,-0.7031,1.0546,-0.4495,
15.095911,-0.2314,0.7073,-0.1187,0.2610,-2.5140,-0.4115,-0.7782,0.9870,-0.5715,
15.111746,-0.2314,0.7073,-0.1187,0.2610,-2.5140,-0.4115,-0.9529,0.8016,-0.6424,
15.131799,-0.2609,0.6623,-0.2487,0.2610,-2.5140,-0.4115,-0.9529,0.8016,-0.6424,
15.133959,-0.2609,0.6623,-0.2487,0.1766,-2.9129,-1.9175,-0.9529,0.8016,-0.6424,
15.135762,-0.2609,0.6623,-0.2487,0.1766,-2.9129,-1.9175,-1.0711,0.7622,-0.5092,
15.152670,-0.2609,0.6623,-0.2487,0.1766,-2.9129,-1.9175,-1.0301,0.8725,-0.1838,
15.170999,-0.2949,0.6931,-0.2563,0.1766,-2.9129,-1.9175,-1.0301,0.8725,-0.1838,
15.172003,-0.2949,0.6931,-0.2563,-0.0380,-2.5880,-2.2940,-1.0301,0.8725,-0.1838,
15.172772,-0.2949,0.6931,-0.2563,-0.0380,-2.5880,-2.2940,-0.8336,0.8645,0.1023,
15.190773,-0.2949,0.6931,-0.2563,-0.0380,-2.5880,-2.2940,-0.5369,0.4735,0.1683,
15.210901,-0.3589,0.8104,-0.1043,-0.0380,-2.5880,-2.2940,-0.5369,0.4735,0.1683,
15.212727,-0.3589,0.8104,-0.1043,-0.7196,-1.4575,-0.9861,-0.5369,0.4735,0.1683,
15.213837,-0.3589,0.8104,-0.1043,-0.7196,-1.4575,-0.9861,-0.2237,-0.0485,0.1241,
15.231364,-0.3589,0.8104,-0.1043,-0.7196,-1.4575,-0.9861,-0.0213,-0.4485,0.1438,
15.252518,-0.4202,0.8497,-0.1085,-0.7196,-1.4575,-0.9861,-0.0213,-0.4485,0.1438,
15.255514,-0.4202,0.8497,-0.1085,-1.3710,-1.0869,-1.1002,-0.0213,-0.4485,0.1438,
15.257610,-0.4202,0.8497,-0.1085,-1.3710,-1.0869,-1.1002,0.0245,-0.6296,0.1886,
15.271891,-0.4202,0.8497,-0.1085,-1.3710,-1.0869,-1.1002,-0.0154,-0.5513,0.2578,
15.292331,-0.3865,0.8856,-0.1351,-1.3710,-1.0869,-1.1002,-0.0154,-0.5513,0.2578,
15.294818,-0.3865,0.8856,-0.1351,-1.1124,-0.7553,-1.4075,-0.0154,-0.5513,0.2578,
15.296812,-0.3865,0.8856,-0.1351,-1.1124,-0.7553,-1.4075,-0.0320,-0.2461,0.2844,
15.311615,-0.3865,0.8856,-0.1351,-1.1124,-0.7553,-1.4075,0.0266,0.0953,0.2674,
15.331747,-0.3738,1.0830,-0.1656,-1.1124,-0.7553,-1.4075,0.0266,0.0953,0.2674,
15.334218,-0.3738,1.0830,-0.1656,-1.0612,1.1584,-1.6706,0.0266,0.0953,0.2674,
15.336016,-0.3738,1.0830,-0.1656,-1.0612,1.1584,-1.6706,0.1145,0.0554,0.2333,
15.352521,-0.3738,1.0830,-0.1656,-1.0612,1.1584,-1.6706,0.1555,-0.1864,0.2115,
15.371777,-0.4808,1.2592,-0.1994,-1.0612,1.1584,-1.6706,0.1555,-0.1864,0.2115,
15.374099,-0.4808,1.2592,-0.1994,-2.1940,2.8618,-1.9566,0.1555,-0.1864,0.2115,
15.375907,-0.4808,1.2592,-0.1994,-2.1940,2.8618,-1.9566,0.1103,-0.2642,0.1747,
