
time,gFx,gFy,gFz,ax,ay,az,wx,wy,wz,
0.020619,0.0528,0.2551,0.8509,0.0000,0.0000,0.0000,0.0000,0.0000,0.0000,
0.022959,0.0528,0.2551,0.8509,0.0000,0.0000,0.0000,0.0660,-0.0527,-0.1182,
0.039295,0.0528,0.2551,0.8509,0.0000,0.0000,0.0000,0.0660,-0.0527,-0.1182,
0.060692,0.0357,0.2670,0.8929,0.0000,0.0000,0.0000,0.0660,-0.0527,-0.1182,
0.063215,0.0357,0.2670,0.8929,-0.0255,-0.1907,-0.6379,0.0660,-0.0527,-0.1182,
0.065338,0.0357,0.2670,0.8929,-0.0255,-0.1907,-0.6379,0.0660,-0.0527,-0.1182,
0.079766,0.0357,0.2670,0.8929,-0.0255,-0.1907,-0.6379,0.0660,-0.0527,-0.1182,
0.100494,0.0450,0.2617,1.0002,-0.0255,-0.1907,-0.6379,0.0660,-0.0527,-0.1182,
0.102495,0.0450,0.2617,1.0002,0.0423,-0.0946,0.3709,0.0660,-0.0527,-0.1182,
0.103973,0.0450,0.2617,1.0002,0.0423,-0.0946,0.3709,-0.1124,-0.2083,-0.2189,
0.119911,0.0450,0.2617,1.0002,0.0423,-0.0946,0.3709,0.0357,-0.2120,-0.2482,
0.140281,0.1148,0.2301,1.0405,0.0423,-0.0946,0.3709,0.0357,-0.2120,-0.2482,
0.142521,0.1148,0.2301,1.0405,0.4312,-0.1555,0.7166,0.0357,-0.2120,-0.2482,
0.144673,0.1148,0.2301,1.0405,0.4312,-0.1555,0.7166,0.2258,-0.1641,-0.3659,
0.159319,0.1148,0.2301,1.0405,0.4312,-0.1555,0.7166,0.3984,-0.0623,-0.4469,
0.180281,0.0244,0.2653,1.0393,0.4312,-0.1555,0.7166,0.3984,-0.0623,-0.4469,
0.183721,0.0244,0.2653,1.0393,-0.2464,0.1823,0.6934,0.3984,-0.0623,-0.4469,
0.185844,0.0244,0.2653,1.0393,-0.2464,0.1823,0.6934,0.5678,-0.0160,-0.4469,
0.199517,0.0244,0.2653,1.0393,-0.2464,0.1823,0.6934,0.8213,0.1694,-0.4208,
0.219696,0.1336,0.3049,0.9477,-0.2464,0.1823,0.6934,0.8213,0.1694,-0.4208,
0.222426,0.1336,0.3049,0.9477,0.4781,0.3315,-0.1162,0.8213,0.1694,-0.4208,
0.224586,0.1336,0.3049,0.9477,0.4781,0.3315,-0.1162,1.0535,0.4240,-0.4447,
0.240123,0.1336,0.3049,0.9477,0.4781,0.3315,-0.1162,1.3209,0.7473,-0.4714,
0.259711,0.0652,0.3726,0.8810,0.4781,0.3315,-0.1162,1.3209,0.7473,-0.4714,
0.261897,0.0652,0.3726,0.8810,-0.1259,0.5116,-0.6255,1.3209,0.7473,-0.4714,
0.263934,0.0652,0.3726,0.8810,-0.1259,0.5116,-0.6255,1.4956,0.8895,-0.5001,
0.279310,0.0652,0.3726,0.8810,-0.1259,0.5116,-0.6255,1.4573,0.7766,-0.5390,
0.299411,0.0029,0.4515,0.7376,-0.1259,0.5116,-0.6255,1.4573,0.7766,-0.5390,
0.302169,0.0029,0.4515,0.7376,-0.4498,0.4752,-1.7354,1.4573,0.7766,-0.5390,
0.303594,0.0029,0.4515,0.7376,-0.4498,0.4752,-1.7354,1.1814,0.4075,-0.5843,
0.319500,0.0029,0.4515,0.7376,-0.4498,0.4752,-1.7354,0.7963,0.0059,-0.6184,
0.340644,-0.0977,0.4981,0.7784,-0.4498,0.4752,-1.7354,0.7963,0.0059,-0.6184,
0.345118,-0.0977,0.4981,0.7784,-1.2583,0.5705,-1.1751,0.7963,0.0059,-0.6184,
0.347402,-0.0977,0.4981,0.7784,-1.2583,0.5705,-1.1751,0.5832,-0.2397,-0.5774,
0.359317,-0.0977,0.4981,0.7784,-1.2583,0.5705,-1.1751,0.5662,-0.1305,-0.4868,
0.380135,-0.1417,0.5130,0.9333,-1.2583,0.5705,-1.1751,0.5662,-0.1305,-0.4868,
0.383335,-0.1417,0.5130,0.9333,-1.6267,0.5056,0.4474,0.5662,-0.1305,-0.4868,
0.385324,-0.1417,0.5130,0.9333,-1.6267,0.5056,0.4474,0.7686,0.0298,-0.3696,
0.399403,-0.1417,0.5130,0.9333,-1.6267,0.5056,0.4474,1.0876,0.2290,-0.2466,
0.419093,-0.0503,0.5077,0.8280,-1.6267,0.5056,0.4474,1.0876,0.2290,-0.2466,
0.421447,-0.0503,0.5077,0.8280,-0.6056,0.1312,-0.4121,1.0876,0.2290,-0.2466,
0.423158,-0.0503,0.5077,0.8280,-0.6056,0.1312,-0.4121,1.2645,0.3696,-0.2493,
0.439114,-0.0503,0.5077,0.8280,-0.6056,0.1312,-0.4121,1.3231,0.4655,-0.3260,
0.459565,-0.1351,0.5463,0.8739,-0.6056,0.1312,-0.4121,1.3231,0.4655,-0.3260,
0.461669,-0.1351,0.5463,0.8739,-1.2068,0.0863,0.2928,1.3231,0.4655,-0.3260,
0.463522,-0.1351,0.5463,0.8739,-1.2068,0.0863,0.2928,1.3859,0.5981,-0.2961,
0.479307,-0.1351,0.5463,0.8739,-1.2068,0.0863,0.2928,1.5095,0.4362,-0.1912,
0.498841,-0.0706,0.6083,0.7222,-1.2068,0.0863,0.2928,1.5095,0.4362,-0.1912,
0.501195,-0.0706,0.6083,0.7222,-0.3384,0.2330,-0.8744,1.5095,0.4362,-0.1912,
0.503176,-0.0706,0.6083,0.7222,-0.3384,0.2330,-0.8744,0.9028,0.2967,-0.1507,
0.519199,-0.0706,0.6083,0.7222,-0.3384,0.2330,-0.8744,0.9806,0.4389,-0.1907,
0.539183,-0.1146,0.5824,0.8187,-0.3384,0.2330,-0.8744,0.9806,0.4389,-0.1907,
0.541399,-0.1146,0.5824,0.8187,-0.5980,-0.2972,0.2877,0.9806,0.4389,-0.1907,
0.543281,-0.1146,0.5824,0.8187,-0.5980,-0.2972,0.2877,1.1185,0.3686,-0.3446,
0.559188,-0.1146,0.5824,0.8187,-0.5980,-0.2972,0.2877,1.0956,0.2674,-0.3787,
0.579336,-0.1630,0.5968,0.7412,-0.5980,-0.2972,0.2877,1.0956,0.2674,-0.3787,
0.581920,-0.1630,0.5968,0.7412,-0.8693,-0.4666,-0.2029,1.0956,0.2674,-0.3787,
0.583906,-0.1630,0.5968,0.7412,-0.8693,-0.4666,-0.2029,1.1292,0.3121,-0.3649,
0.599620,-0.1630,0.5968,0.7412,-0.8693,-0.4666,-0.2029,1.3236,0.7760,-0.3249,
0.619229,-0.2690,0.6271,0.8069,-0.8693,-0.4666,-0.2029,1.3236,0.7760,-0.3249,
0.621417,-0.2690,0.6271,0.8069,-1.6306,-0.4873,0.7554,1.3236,0.7760,-0.3249,
0.623356,-0.2690,0.6271,0.8069,-1.6306,-0.4873,0.7554,1.6906,1.1553,-0.2764,
0.639097,-0.2690,0.6271,0.8069,-1.6306,-0.4873,0.7554,1.7193,0.9630,-0.1779,
0.658469,-0.2123,0.7158,0.4109,-1.6306,-0.4873,0.7554,1.7193,0.9630,-0.1779,
0.660558,-0.2123,0.7158,0.4109,-0.7139,-0.0750,-2.6087,1.7193,0.9630,-0.1779,
0.662485,-0.2123,0.7158,0.4109,-0.7139,-0.0750,-2.6087,0.8756,0.5422,-0.2642,
0.678201,-0.2123,0.7158,0.4109,-0.7139,-0.0750,-2.6087,0.7910,0.5561,-0.3329,
0.698389,-0.3474,0.7104,0.7715,-0.7139,-0.0750,-2.6087,0.7910,0.5561,-0.3329,
0.700954,-0.3474,0.7104,0.7715,-1.7703,-0.3020,1.1789,0.7910,0.5561,-0.3329,
0.703040,-0.3474,0.7104,0.7715,-1.7703,-0.3020,1.1789,1.4615,0.9657,-0.2573,
0.718097,-0.3474,0.7104,0.7715,-1.7703,-0.3020,1.1789,1.9500,1.4088,-0.1225,
0.739026,-0.3809,0.7906,0.5504,-1.7703,-0.3020,1.1789,1.9500,1.4088,-0.1225,
0.741239,-0.3809,0.7906,0.5504,-1.7151,0.1029,-0.4074,1.9500,1.4088,-0.1225,
0.743237,-0.3809,0.7906,0.5504,-1.7151,0.1029,-0.4074,2.0831,1.5201,-0.0186,
0.758429,-0.3809,0.7906,0.5504,-1.7151,0.1029,-0.4074,1.9292,0.9854,-0.0618,
0.778295,-0.3423,0.8172,0.2543,-1.7151,0.1029,-0.4074,1.9292,0.9854,-0.0618,
0.780934,-0.3423,0.8172,0.2543,-1.0283,-0.0639,-2.5667,1.9292,0.9854,-0.0618,
0.782938,-0.3423,0.8172,0.2543,-1.0283,-0.0639,-2.5667,1.4621,0.5603,-0.1822,
0.797769,-0.3423,0.8172,0.2543,-1.0283,-0.0639,-2.5667,1.0392,0.5880,-0.2594,
0.818343,-0.3408,0.8304,0.5128,-1.0283,-0.0639,-2.5667,1.0392,0.5880,-0.2594,
0.822432,-0.3408,0.8304,0.5128,-0.8035,-0.1408,0.4211,1.0392,0.5880,-0.2594,
0.824713,-0.3408,0.8304,0.5128,-0.8035,-0.1408,0.4211,1.1771,0.8751,-0.3702,
0.838212,-0.3408,0.8304,0.5128,-0.8035,-0.1408,0.4211,1.7060,1.0200,-0.1870,
0.857856,-0.3990,0.8614,0.1652,-0.8035,-0.1408,0.4211,1.7060,1.0200,-0.1870,
0.860035,-0.3990,0.8614,0.1652,-1.0941,-0.0534,-2.3903,1.7060,1.0200,-0.1870,
0.861455,-0.3990,0.8614,0.1652,-1.0941,-0.0534,-2.3903,1.7156,0.5731,-0.0490,
0.878216,-0.3990,0.8614,0.1652,-1.0941,-0.0534,-2.3903,1.1350,0.4309,-0.1917,
0.899543,-0.3469,0.9257,0.1439,-1.0941,-0.0534,-2.3903,1.1350,0.4309,-0.1917,
0.901937,-0.3469,0.9257,0.1439,-0.4488,0.3746,-2.0284,1.1350,0.4309,-0.1917,
0.903909,-0.3469,0.9257,0.1439,-0.4488,0.3746,-2.0284,0.6972,0.4309,-0.3206,
0.918619,-0.3469,0.9257,0.1439,-0.4488,0.3746,-2.0284,0.7436,0.6349,-0.2823,
0.938473,-0.5201,0.8578,0.3029,-0.4488,0.3746,-2.0284,0.7436,0.6349,-0.2823,
0.940717,-0.5201,0.8578,0.3029,-1.9296,-0.3390,-0.1394,0.7436,0.6349,-0.2823,
0.942924,-0.5201,0.8578,0.3029,-1.9296,-0.3390,-0.1394,0.9492,0.5593,-0.0895,
0.957736,-0.5201,0.8578,0.3029,-1.9296,-0.3390,-0.1394,1.0141,0.2131,-0.0559,
0.979307,-0.5152,0.9064,0.0369,-1.9296,-0.3390,-0.1394,1.0141,0.2131,-0.0559,
0.981798,-0.5152,0.9064,0.0369,-1.7640,0.0395,-2.3176,1.0141,0.2131,-0.0559,
0.983478,-0.5152,0.9064,0.0369,-1.7640,0.0395,-2.3176,0.7638,-0.0341,-0.0937,
0.998392,-0.5152,0.9064,0.0369,-1.7640,0.0395,-2.3176,0.4906,-0.0714,0.0538,
1.018111,-0.3103,0.8861,0.0955,-1.7640,0.0395,-2.3176,0.4906,-0.0714,0.0538,
1.022018,-0.3103,0.8861,0.0955,0.2693,-0.2215,-1.4951,0.4906,-0.0714,0.0538,
1.024495,-0.3103,0.8861,0.0955,0.2693,-0.2215,-1.4951,0.4155,-0.0708,-0.0804,
1.040762,-0.3103,0.8861,0.0955,0.2693,-0.2215,-1.4951,0.3872,0.0170,-0.2903,
1.057650,-0.4468,0.8898,0.2355,0.2693,-0.2215,-1.4951,0.3872,0.0170,-0.2903,
1.059322,-0.4468,0.8898,0.2355,-0.9763,-0.1925,0.0353,0.3872,0.0170,-0.2903,
1.060791,-0.4468,0.8898,0.2355,-0.9763,-0.1925,0.0353,0.4815,-0.2051,-0.3334,
1.078270,-0.4468,0.8898,0.2355,-0.9763,-0.1925,0.0353,0.6093,-0.3569,-0.3180,
1.098261,-0.3608,0.8502,0.2001,-0.9763,-0.1925,0.0353,0.6093,-0.3569,-0.3180,
1.100497,-0.3608,0.8502,0.2001,-0.0281,-0.5792,-0.1505,0.6093,-0.3569,-0.3180,
1.102474,-0.3608,0.8502,0.2001,-0.0281,-0.5792,-0.1505,0.7366,-0.4016,-0.3585,
1.117653,-0.3608,0.8502,0.2001,-0.0281,-0.5792,-0.1505,0.7808,-0.2221,-0.3776,
1.137581,-0.4495,0.8692,0.0965,-0.0281,-0.5792,-0.1505,0.7808,-0.2221,-0.3776,
1.139823,-0.4495,0.8692,0.0965,-0.7734,-0.3959,-0.9283,0.7808,-0.2221,-0.3776,
1.141781,-0.4495,0.8692,0.0965,-0.7734,-0.3959,-0.9283,0.6109,-0.0069,-0.3143,
1.158004,-0.4495,0.8692,0.0965,-0.7734,-0.3959,-0.9283,0.4053,-0.1262,-0.1539,
1.177940,-0.5560,1.0095,0.1024,-0.7734,-0.3959,-0.9283,0.4053,-0.1262,-0.1539,
1.180138,-0.5560,1.0095,0.1024,-1.7243,0.9806,-0.6904,0.4053,-0.1262,-0.1539,
1.181961,-0.5560,1.0095,0.1024,-1.7243,0.9806,-0.6904,0.1917,-0.3127,-0.1076,
1.198246,-0.5560,1.0095,0.1024,-1.7243,0.9806,-0.6904,0.0266,-0.5790,0.0474,
1.219598,-0.4422,1.0222,0.1823,-1.7243,0.9806,-0.6904,0.0266,-0.5790,0.0474,
1.221684,-0.4422,1.0222,0.1823,-0.6250,1.1031,0.0673,0.0266,-0.5790,0.0474,
1.223529,-0.4422,1.0222,0.1823,-0.6250,1.1031,0.0673,-0.0362,-0.6695,0.0613,
1.237731,-0.4422,1.0222,0.1823,-0.6250,1.1031,0.0673,-0.0874,-0.4964,-0.0570,
1.257926,-0.2792,1.2254,0.2509,-0.6250,1.1031,0.0673,-0.0874,-0.4964,-0.0570,
1.261138,-0.2792,1.2254,0.2509,0.9300,3.0992,0.6324,-0.0874,-0.4964,-0.0570,
1.263201,-0.2792,1.2254,0.2509,0.9300,3.0992,0.6324,-0.0676,0.4895,-0.4485,
1.277574,-0.2792,1.2254,0.2509,0.9300,3.0992,0.6324,0.3388,1.1201,-0.4756,
1.297756,-0.3784,1.1287,0.1270,0.9300,3.0992,0.6324,0.3388,1.1201,-0.4756,
1.300139,-0.3784,1.1287,0.1270,0.1780,2.2114,-0.4117,0.3388,1.1201,-0.4756,
1.302054,-0.3784,1.1287,0.1270,0.1780,2.2114,-0.4117,0.5454,-0.2407,0.2466,
1.317771,-0.3784,1.1287,0.1270,0.1780,2.2114,-0.4117,0.8831,-0.3696,0.3009,
1.338010,-0.3560,0.9902,0.1964,0.1780,2.2114,-0.4117,0.8831,-0.3696,0.3009,
1.340101,-0.3560,0.9902,0.1964,0.2822,0.7677,0.4752,0.8831,-0.3696,0.3009,
1.341673,-0.3560,0.9902,0.1964,0.2822,0.7677,0.4752,1.2256,-0.3233,0.2605,
1.356970,-0.3560,0.9902,0.1964,0.2822,0.7677,0.4752,1.4418,-0.9529,0.7808,
1.377159,-0.2949,0.7200,0.1510,0.2822,0.7677,0.4752,1.4418,-0.9529,0.7808,
1.379779,-0.2949,0.7200,0.1510,0.6563,-2.0229,0.3959,1.4418,-0.9529,0.7808,
1.382203,-0.2949,0.7200,0.1510,0.6563,-2.0229,0.3959,1.4855,-0.7862,0.8900,
1.397157,-0.2949,0.7200,0.1510,0.6563,-2.0229,0.3959,1.3108,-0.8570,0.8719,
1.417942,-0.3924,0.6320,0.1747,0.6563,-2.0229,0.3959,1.3108,-0.8570,0.8719,
1.420120,-0.3924,0.6320,0.1747,-0.6499,-3.0525,1.0291,1.3108,-0.8570,0.8719,
1.422005,-0.3924,0.6320,0.1747,-0.6499,-3.0525,1.0291,1.1004,-1.2820,1.0200,
1.438792,-0.3924,0.6320,0.1747,-0.6499,-3.0525,1.0291,0.8085,-1.2512,0.9699,
1.457225,-0.4573,0.5113,-0.0127,-0.6499,-3.0525,1.0291,0.8085,-1.2512,0.9699,
1.459431,-0.4573,0.5113,-0.0127,-1.6857,-4.3762,-0.6037,0.8085,-1.2512,0.9699,
1.461489,-0.4573,0.5113,-0.0127,-1.6857,-4.3762,-0.6037,0.2189,-0.9209,0.7377,
1.477417,-0.4573,0.5113,-0.0127,-1.6857,-4.3762,-0.6037,-0.4794,-0.9518,0.5475,
1.498590,-0.5736,0.7258,0.1410,-1.6857,-4.3762,-0.6037,-0.4794,-0.9518,0.5475,
1.500986,-0.5736,0.7258,0.1410,-3.0865,-2.3393,0.7537,-0.4794,-0.9518,0.5475,
1.502896,-0.5736,0.7258,0.1410,-3.0865,-2.3393,0.7537,-0.8096,-1.1308,0.3851,
1.517574,-0.5736,0.7258,0.1410,-3.0865,-2.3393,0.7537,-1.0333,-0.9646,0.0485,
1.537603,-0.5878,0.6755,-0.0528,-3.0865,-2.3393,0.7537,-1.0333,-0.9646,0.0485,
1.539863,-0.5878,0.6755,-0.0528,-3.3421,-2.8224,-1.5956,-1.0333,-0.9646,0.0485,
1.541884,-0.5878,0.6755,-0.0528,-3.3421,-2.8224,-1.5956,-1.5665,-1.1579,-0.4282,
1.556463,-0.5878,0.6755,-0.0528,-3.3421,-2.8224,-1.5956,-1.5548,-1.0051,-0.9848,
1.577357,-0.6157,0.9374,0.1290,-3.3421,-2.8224,-1.5956,-1.5548,-1.0051,-0.9848,
1.580558,-0.6157,0.9374,0.1290,-3.3437,-0.0800,-0.4871,-1.5548,-1.0051,-0.9848,
1.582875,-0.6157,0.9374,0.1290,-3.3437,-0.0800,-0.4871,-1.1100,-0.7707,-1.3454,
1.596403,-0.6157,0.9374,0.1290,-3.3437,-0.0800,-0.4871,-0.8027,-0.9454,-1.2767,
1.617303,-0.6147,0.8284,-0.1270,-3.3437,-0.0800,-0.4871,-0.8027,-0.9454,-1.2767,
1.619561,-0.6147,0.8284,-0.1270,-2.8496,-0.9087,-3.3898,-0.8027,-0.9454,-1.2767,
1.621520,-0.6147,0.8284,-0.1270,-2.8496,-0.9087,-3.3898,-0.8139,-1.0775,-1.3140,
1.637311,-0.6147,0.8284,-0.1270,-2.8496,-0.9087,-3.3898,-0.6743,-0.8293,-1.5665,
1.656901,-0.5558,0.9806,0.0068,-2.8496,-0.9087,-3.3898,-0.6743,-0.8293,-1.5665,
1.659066,-0.5558,0.9806,0.0068,-1.8215,0.8483,-2.4338,-0.6743,-0.8293,-1.5665,
1.661048,-0.5558,0.9806,0.0068,-1.8215,0.8483,-2.4338,-0.1891,-0.9172,-1.5984,
1.676930,-0.5558,0.9806,0.0068,-1.8215,0.8483,-2.4338,0.4565,-0.7702,-1.7380,
1.697793,-0.4852,0.9653,-0.0965,-1.8215,0.8483,-2.4338,0.4565,-0.7702,-1.7380,
1.701229,-0.4852,0.9653,-0.0965,-0.6293,0.9367,-3.4977,0.4565,-0.7702,-1.7380,
1.703072,-0.4852,0.9653,-0.0965,-0.6293,0.9367,-3.4977,0.9342,-0.4772,-1.7524,
1.716767,-0.4852,0.9653,-0.0965,-0.6293,0.9367,-3.4977,1.2810,-0.6408,-1.4855,
1.737437,-0.3638,0.9078,-0.0850,-0.6293,0.9367,-3.4977,1.2810,-0.6408,-1.4855,
1.739692,-0.3638,0.9078,-0.0850,1.0514,0.5313,-3.0416,1.2810,-0.6408,-1.4855,
1.741473,-0.3638,0.9078,-0.0850,1.0514,0.5313,-3.0416,1.5622,-0.6892,-1.1968,
1.756444,-0.3638,0.9078,-0.0850,1.0514,0.5313,-3.0416,1.6362,-0.4288,-1.1595,
1.777166,-0.3950,0.7051,0.0379,1.0514,0.5313,-3.0416,1.6362,-0.4288,-1.1595,
1.780216,-0.3950,0.7051,0.0379,1.0873,-1.3658,-1.3890,1.6362,-0.4288,-1.1595,
1.781997,-0.3950,0.7051,0.0379,1.0873,-1.3658,-1.3890,1.7097,-0.2850,-1.1185,
1.797127,-0.3950,0.7051,0.0379,1.0873,-1.3658,-1.3890,1.7444,-0.2706,-1.1377,
1.817415,-0.4539,0.9149,0.1055,1.0873,-1.3658,-1.3890,1.7444,-0.2706,-1.1377,
1.821248,-0.4539,0.9149,0.1055,0.8413,0.8001,-0.1916,1.7444,-0.2706,-1.1377,
1.823265,-0.4539,0.9149,0.1055,0.8413,0.8001,-0.1916,2.0283,0.3111,-1.2442,
1.836435,-0.4539,0.9149,0.1055,0.8413,0.8001,-0.1916,1.9196,0.7254,-1.1792,
1.857225,-0.7581,0.6029,-0.1766,0.8413,0.8001,-0.1916,1.9196,0.7254,-1.1792,
1.860262,-0.7581,0.6029,-0.1766,-1.7269,-2.0565,-2.1858,1.9196,0.7254,-1.1792,
1.862217,-0.7581,0.6029,-0.1766,-1.7269,-2.0565,-2.1858,1.4466,0.2471,-0.6732,
1.876005,-0.7581,0.6029,-0.1766,-1.7269,-2.0565,-2.1858,0.9609,-0.1140,-0.2999,
1.896375,-0.5939,0.7901,0.2726,-1.7269,-2.0565,-2.1858,0.9609,-0.1140,-0.2999,
1.899161,-0.5939,0.7901,0.2726,0.0392,-0.1203,2.5905,0.9609,-0.1140,-0.2999,
1.901208,-0.5939,0.7901,0.2726,0.0392,-0.1203,2.5905,0.8272,-0.6104,-0.3388,
1.916194,-0.5939,0.7901,0.2726,0.0392,-0.1203,2.5905,1.3859,-0.8906,0.3153,
1.936685,-0.5565,0.6073,0.1280,0.0392,-0.1203,2.5905,1.3859,-0.8906,0.3153,
1.939121,-0.5565,0.6073,0.1280,0.4104,-1.9075,1.3389,1.3859,-0.8906,0.3153,
1.940801,-0.5565,0.6073,0.1280,0.4104,-1.9075,1.3389,1.6890,-0.8016,0.8762,
1.956871,-0.5565,0.6073,0.1280,0.4104,-1.9075,1.3389,1.7944,-0.5704,1.4663,
1.975788,-0.3606,0.7784,-0.1708,0.4104,-1.9075,1.3389,1.7944,-0.5704,1.4663,
1.979271,-0.3606,0.7784,-0.1708,1.9639,-0.4784,-1.1913,1.7944,-0.5704,1.4663,
1.981279,-0.3606,0.7784,-0.1708,1.9639,-0.4784,-1.1913,1.8381,-1.0131,1.6895,
1.995569,-0.3606,0.7784,-0.1708,1.9639,-0.4784,-1.1913,2.3494,-1.3928,1.8152,
2.016183,-0.6975,0.4561,-0.1046,1.9639,-0.4784,-1.1913,2.3494,-1.3928,1.8152,
2.018452,-0.6975,0.4561,-0.1046,-1.8820,-3.9432,-0.1012,2.3494,-1.3928,1.8152,
2.020483,-0.6975,0.4561,-0.1046,-1.8820,-3.9432,-0.1012,3.1931,-0.4495,2.8847,
2.036153,-0.6975,0.4561,-0.1046,-1.8820,-3.9432,-0.1012,3.1409,-0.0495,3.8286,
2.055872,0.1478,0.1397,-0.9523,-1.8820,-3.9432,-0.1012,3.1409,-0.0495,3.8286,
2.058145,0.1478,0.1397,-0.9523,5.2574,-7.4506,-7.3660,3.1409,-0.0495,3.8286,
2.060127,0.1478,0.1397,-0.9523,5.2574,-7.4506,-7.3660,1.2927,-2.1779,3.3103,
2.075199,0.1478,0.1397,-0.9523,5.2574,-7.4506,-7.3660,-0.0570,-1.9159,2.7755,
2.096126,0.2541,1.1947,-0.5729,5.2574,-7.4506,-7.3660,-0.0570,-1.9159,2.7755,
2.098553,0.2541,1.1947,-0.5729,5.3685,2.5303,-3.7010,-0.0570,-1.9159,2.7755,
2.100384,0.2541,1.1947,-0.5729,5.3685,2.5303,-3.7010,-0.6029,-1.1180,1.6224,
2.116051,0.2541,1.1947,-0.5729,5.3685,2.5303,-3.7010,-0.6578,-0.5321,0.1411,
2.136357,0.7202,1.8357,-0.3115,5.3685,2.5303,-3.7010,-0.6578,-0.5321,0.1411,
2.139959,0.7202,1.8357,-0.3115,9.6700,8.6725,-1.4615,-0.6578,-0.5321,0.1411,
2.141619,0.7202,1.8357,-0.3115,9.6700,8.6725,-1.4615,-0.6131,0.0352,-1.4781,
2.155479,0.7202,1.8357,-0.3115,9.6700,8.6725,-1.4615,-0.7372,0.3217,-2.4501,
2.175609,-1.7407,2.1633,-0.0884,9.6700,8.6725,-1.4615,-0.7372,0.3217,-2.4501,
2.177626,-1.7407,2.1633,-0.0884,-13.7337,12.0763,0.4974,-0.7372,0.3217,-2.4501,
2.179613,-1.7407,2.1633,-0.0884,-13.7337,12.0763,0.4974,-1.0908,-1.1175,0.8890,
2.196432,-1.7407,2.1633,-0.0884,-13.7337,12.0763,0.4974,-1.2687,-0.2200,0.8272,
2.216039,-0.4163,0.3384,-0.0645,-13.7337,12.0763,0.4974,-1.2687,-0.2200,0.8272,
2.219667,-0.4163,0.3384,-0.0645,-1.0384,-5.9689,0.2120,-1.2687,-0.2200,0.8272,
2.221523,-0.4163,0.3384,-0.0645,-1.0384,-5.9689,0.2120,-0.7595,0.7025,-0.0538,
2.235766,-0.4163,0.3384,-0.0645,-1.0384,-5.9689,0.2120,-0.0533,0.3611,0.0618,
2.256783,-0.4722,0.7466,-0.3545,-1.0384,-5.9689,0.2120,-0.0533,0.3611,0.0618,
2.258637,-0.4722,0.7466,-0.3545,-1.5956,-1.9777,-2.7066,-0.0533,0.3611,0.0618,
2.260651,-0.4722,0.7466,-0.3545,-1.5956,-1.9777,-2.7066,0.1230,0.1220,-0.0160,
2.275928,-0.4722,0.7466,-0.3545,-1.5956,-1.9777,-2.7066,-0.0442,0.2610,-0.1529,
2.295656,-0.4561,0.7495,-0.3970,-1.5956,-1.9777,-2.7066,-0.0442,0.2610,-0.1529,
2.297917,-0.4561,0.7495,-0.3970,-1.3732,-1.9197,-3.0313,-0.0442,0.2610,-0.1529,
2.300008,-0.4561,0.7495,-0.3970,-1.3732,-1.9197,-3.0313,-0.2168,0.4330,-0.2546,
2.315935,-0.4561,0.7495,-0.3970,-1.3732,-1.9197,-3.0313,-0.2178,0.6663,-0.3617,
2.335989,-0.5697,0.8785,-0.3853,-1.3732,-1.9197,-3.0313,-0.2178,0.6663,-0.3617,
2.338301,-0.5697,0.8785,-0.3853,-2.3722,-0.6151,-2.9012,-0.2178,0.6663,-0.3617,
2.340450,-0.5697,0.8785,-0.3853,-2.3722,-0.6151,-2.9012,-0.2898,0.6578,-0.4927,
2.355813,-0.5697,0.8785,-0.3853,-2.3722,-0.6151,-2.9012,-0.3217,0.6690,-0.6370,
2.375828,-0.5827,0.8697,-0.3884,-2.3722,-0.6151,-2.9012,-0.3217,0.6690,-0.6370,
2.378355,-0.5827,0.8697,-0.3884,-2.3073,-0.6337,-2.9468,-0.3217,0.6690,-0.6370,
2.379918,-0.5827,0.8697,-0.3884,-2.3073,-0.6337,-2.9468,-0.2621,0.8666,-0.7681,
2.395375,-0.5827,0.8697,-0.3884,-2.3073,-0.6337,-2.9468,-0.2226,1.0466,-0.8085,
2.415742,-0.4942,0.9965,-0.1913,-2.3073,-0.6337,-2.9468,-0.2226,1.0466,-0.8085,
2.418057,-0.4942,0.9965,-0.1913,-1.1871,0.7118,-0.9670,-0.2226,1.0466,-0.8085,
2.419935,-0.4942,0.9965,-0.1913,-1.1871,0.7118,-0.9670,0.1369,1.3822,-0.5587,
2.435819,-0.4942,0.9965,-0.1913,-1.1871,0.7118,-0.9670,0.5694,1.5452,-0.3249,
2.455143,-0.3433,1.2872,-0.2348,-1.1871,0.7118,-0.9670,0.5694,1.5452,-0.3249,
2.456952,-0.3433,1.2872,-0.2348,0.3896,3.6421,-1.0487,0.5694,1.5452,-0.3249,
2.458538,-0.3433,1.2872,-0.2348,0.3896,3.6421,-1.0487,0.2040,0.3952,0.1049,
2.475004,-0.3433,1.2872,-0.2348,0.3896,3.6421,-1.0487,0.2429,0.4783,0.6748,
2.496057,-0.1339,1.1705,0.0357,0.3896,3.6421,-1.0487,0.2429,0.4783,0.6748,
2.499811,-0.1339,1.1705,0.0357,2.2783,2.4524,1.7462,0.2429,0.4783,0.6748,
2.501219,-0.1339,1.1705,0.0357,2.2783,2.4524,1.7462,0.7622,1.2879,0.5475,
2.515421,-0.1339,1.1705,0.0357,2.2783,2.4524,1.7462,1.4232,1.6501,-0.3318,
2.535593,-0.3274,0.8558,-0.1573,2.2783,2.4524,1.7462,1.4232,1.6501,-0.3318,
2.537570,-0.3274,0.8558,-0.1573,0.2372,-0.5775,0.4430,1.4232,1.6501,-0.3318,
2.539397,-0.3274,0.8558,-0.1573,0.2372,-0.5775,0.4430,0.5699,-0.3739,-0.5145,
2.554833,-0.3274,0.8558,-0.1573,0.2372,-0.5775,0.4430,-0.6898,-2.5769,-0.3057,
2.574712,-0.4903,1.2868,0.0650,0.2372,-0.5775,0.4430,-0.6898,-2.5769,-0.3057,
2.577548,-0.4903,1.2868,0.0650,-1.1004,3.7008,2.3881,-0.6898,-2.5769,-0.3057,
2.579340,-0.4903,1.2868,0.0650,-1.1004,3.7008,2.3881,-1.3641,-3.6986,-0.1353,
2.594645,-0.4903,1.2868,0.0650,-1.1004,3.7008,2.3881,-0.6424,-1.5398,0.1076,
2.614805,-0.4808,1.1768,0.1625,-1.1004,3.7008,2.3881,-0.6424,-1.5398,0.1076,
2.617046,-0.4808,1.1768,0.1625,-0.8579,2.5705,2.5890,-0.6424,-1.5398,0.1076,
2.618800,-0.4808,1.1768,0.1625,-0.8579,2.5705,2.5890,-0.4128,-0.7665,-0.0202,
2.635321,-0.4808,1.1768,0.1625,-0.8579,2.5705,2.5890,-0.4053,-0.7958,-0.1529,
2.655048,-0.5472,0.8380,0.0870,-0.8579,2.5705,2.5890,-0.4053,-0.7958,-0.1529,
2.657119,-0.5472,0.8380,0.0870,-1.4512,-0.7509,1.5817,-0.4053,-0.7958,-0.1529,
2.658997,-0.5472,0.8380,0.0870,-1.4512,-0.7509,1.5817,-0.3313,-0.6626,-0.2365,
2.675303,-0.5472,0.8380,0.0870,-1.4512,-0.7509,1.5817,-0.3718,-0.5822,-0.1678,
2.695248,-0.5099,0.6765,-0.0281,-1.4512,-0.7509,1.5817,-0.3718,-0.5822,-0.1678,
2.697385,-0.5099,0.6765,-0.0281,-0.9629,-2.2963,0.2017,-0.3718,-0.5822,-0.1678,
2.699448,-0.5099,0.6765,-0.0281,-0.9629,-2.2963,0.2017,-0.4847,-0.5934,-0.1023,
2.715056,-0.5099,0.6765,-0.0281,-0.9629,-2.2963,0.2017,-0.4527,-0.4767,-0.1065,
2.734698,-0.4845,0.6139,-0.0533,-0.9629,-2.2963,0.2017,-0.4527,-0.4767,-0.1065,
2.737368,-0.4845,0.6139,-0.0533,-0.6675,-2.8981,-0.2987,-0.4527,-0.4767,-0.1065,
2.739282,-0.4845,0.6139,-0.0533,-0.6675,-2.8981,-0.2987,-0.4724,-0.3366,-0.1188,
2.756223,-0.4845,0.6139,-0.0533,-0.6675,-2.8981,-0.2987,-0.4501,-0.1438,-0.1220,
2.774401,-0.4307,0.6025,0.0139,-0.6675,-2.8981,-0.2987,-0.4501,-0.1438,-0.1220,
2.776729,-0.4307,0.6025,0.0139,-0.0967,-2.9931,0.1564,-0.4501,-0.1438,-0.1220,
2.778586,-0.4307,0.6025,0.0139,-0.0967,-2.9931,0.1564,-0.3111,-0.0724,-0.1220,
2.794149,-0.4307,0.6025,0.0139,-0.0967,-2.9931,0.1564,-0.1214,-0.0810,-0.1129,
2.814056,-0.3931,0.6811,0.0271,-0.0967,-2.9931,0.1564,-0.1214,-0.0810,-0.1129,
2.815142,-0.3931,0.6811,0.0271,0.3136,-2.2025,0.1963,-0.1214,-0.0810,-0.1129,
2.815909,-0.3931,0.6811,0.0271,0.3136,-2.2025,0.1963,0.0368,-0.0581,-0.0682,
2.834392,-0.3931,0.6811,0.0271,0.3136,-2.2025,0.1963,0.1662,0.0229,-0.0091,
2.854663,-0.3999,0.8021,-0.0222,0.3136,-2.2025,0.1963,0.1662,0.0229,-0.0091,
2.856290,-0.3999,0.8021,-0.0222,0.2602,-1.0112,-0.2543,0.1662,0.0229,-0.0091,
2.857786,-0.3999,0.8021,-0.0222,0.2602,-1.0112,-0.2543,0.2392,0.1406,0.0671,
2.875177,-0.3999,0.8021,-0.0222,0.2602,-1.0112,-0.2543,0.2141,0.2407,0.1619,
2.894519,-0.4351,0.8438,-0.1529,0.2602,-1.0112,-0.2543,0.2141,0.2407,0.1619,
2.896577,-0.4351,0.8438,-0.1529,-0.1254,-0.6206,-1.4232,0.2141,0.2407,0.1619,
2.898548,-0.4351,0.8438,-0.1529,-0.1254,-0.6206,-1.4232,0.0788,0.3862,0.2418,
2.913963,-0.4351,0.8438,-0.1529,-0.1254,-0.6206,-1.4232,-0.0847,0.4874,0.3350,
2.933906,-0.5729,0.9367,-0.1871,-0.1254,-0.6206,-1.4232,-0.0847,0.4874,0.3350,
2.935323,-0.5729,0.9367,-0.1871,-1.5504,0.2563,-1.6525,-0.0847,0.4874,0.3350,
2.936587,-0.5729,0.9367,-0.1871,-1.5504,0.2563,-1.6525,-0.2162,0.4645,0.5561,
2.954409,-0.5729,0.9367,-0.1871,-1.5504,0.2563,-1.6525,-0.2956,0.2929,0.7537,
2.973850,-0.5739,1.1856,-0.1534,-1.5504,0.2563,-1.6525,-0.2956,0.2929,0.7537,
2.976357,-0.5739,1.1856,-0.1534,-1.7974,2.5910,-1.3538,-0.2956,0.2929,0.7537,
2.978236,-0.5739,1.1856,-0.1534,-1.7974,2.5910,-1.3538,-0.2365,0.0692,0.7601,
2.993646,-0.5739,1.1856,-0.1534,-1.7974,2.5910,-1.3538,-0.1220,-0.0117,0.7398,
3.014384,-0.6648,1.1783,-0.2768,-1.7974,2.5910,-1.3538,-0.1220,-0.0117,0.7398,
3.016743,-0.6648,1.1783,-0.2768,-2.9602,2.4078,-2.6234,-0.1220,-0.0117,0.7398,
3.018565,-0.6648,1.1783,-0.2768,-2.9602,2.4078,-2.6234,-0.0527,0.1401,0.7111,
3.035363,-0.6648,1.1783,-0.2768,-2.9602,2.4078,-2.6234,0.0165,0.3771,0.5358,
3.053727,-0.7378,1.1932,-0.2033,-2.9602,2.4078,-2.6234,0.0165,0.3771,0.5358,
3.055431,-0.7378,1.1932,-0.2033,-3.9056,2.4682,-1.8742,0.0165,0.3771,0.5358,
3.056917,-0.7378,1.1932,-0.2033,-3.9056,2.4682,-1.8742,0.1800,0.3052,0.4309,
3.074445,-0.7378,1.1932,-0.2033,-3.9056,2.4682,-1.8742,0.3201,0.1571,0.2429,
3.094564,-0.5165,1.0385,0.0298,-3.9056,2.4682,-1.8742,0.3201,0.1571,0.2429,
3.097236,-0.5165,1.0385,0.0298,-1.8623,0.9107,0.5323,0.3201,0.1571,0.2429,
3.099109,-0.5165,1.0385,0.0298,-1.8623,0.9107,0.5323,0.4687,0.1108,-0.1795,
3.114450,-0.5165,1.0385,0.0298,-1.8623,0.9107,0.5323,0.4485,-0.3585,-0.3723,
3.134516,-0.3481,1.0415,0.1439,-1.8623,0.9107,0.5323,0.4485,-0.3585,-0.3723,
3.136497,-0.3481,1.0415,0.1439,-0.1089,0.9811,1.8034,0.4485,-0.3585,-0.3723,
3.138218,-0.3481,1.0415,0.1439,-0.1089,0.9811,1.8034,0.1848,-1.4024,-0.4522,
3.154551,-0.3481,1.0415,0.1439,-0.1089,0.9811,1.8034,-0.1390,-2.4560,-0.5417,
3.174167,-0.1307,1.1157,0.3584,-0.1089,0.9811,1.8034,-0.1390,-2.4560,-0.5417,
3.176744,-0.1307,1.1157,0.3584,2.2260,1.7772,3.6511,-0.1390,-2.4560,-0.5417,
3.178573,-0.1307,1.1157,0.3584,2.2260,1.7772,3.6511,-0.3047,-2.3814,-0.6519,
3.193798,-0.1307,1.1157,0.3584,2.2260,1.7772,3.6511,-0.2961,-1.4589,-0.7159,
3.214187,-0.1324,1.0556,0.4236,2.2260,1.7772,3.6511,-0.2961,-1.4589,-0.7159,
3.216144,-0.1324,1.0556,0.4236,2.4542,1.2882,3.9042,-0.2961,-1.4589,-0.7159,
3.217797,-0.1324,1.0556,0.4236,2.4542,1.2882,3.9042,-0.0490,-0.2754,-0.5417,
3.234079,-0.1324,1.0556,0.4236,2.4542,1.2882,3.9042,0.2056,0.5912,-0.3137,
3.254697,-0.0491,0.8885,0.1913,2.4542,1.2882,3.9042,0.2056,0.5912,-0.3137,
3.256572,-0.0491,0.8885,0.1913,3.3825,-0.3026,1.6389,0.2056,0.5912,-0.3137,
3.258328,-0.0491,0.8885,0.1913,3.3825,-0.3026,1.6389,0.3521,0.7574,-0.1587,
3.273267,-0.0491,0.8885,0.1913,3.3825,-0.3026,1.6389,0.5704,1.0844,-0.0517,
3.293676,-0.2025,0.6929,0.1112,3.3825,-0.3026,1.6389,0.5704,1.0844,-0.0517,
3.295644,-0.2025,0.6929,0.1112,1.9189,-2.2060,1.1613,0.5704,1.0844,-0.0517,
3.297347,-0.2025,0.6929,0.1112,1.9189,-2.2060,1.1613,1.1425,1.9164,-0.1507,
3.313734,-0.2025,0.6929,0.1112,1.9189,-2.2060,1.1613,1.9558,2.9801,-0.2913,
3.333250,-0.5306,0.5868,-0.1292,1.9189,-2.2060,1.1613,1.9558,2.9801,-0.2913,
3.335581,-0.5306,0.5868,-0.1292,-1.2697,-3.1767,-0.2571,1.9558,2.9801,-0.2913,
3.337551,-0.5306,0.5868,-0.1292,-1.2697,-3.1767,-0.2571,2.5859,3.7311,-0.8607,
3.354085,-0.5306,0.5868,-0.1292,-1.2697,-3.1767,-0.2571,2.4522,3.7748,-0.0730,
3.372977,0.0342,0.4324,-0.5661,-1.2697,-3.1767,-0.2571,2.4522,3.7748,-0.0730,
3.376149,0.0342,0.4324,-0.5661,4.1676,-4.4409,-3.0645,2.4522,3.7748,-0.0730,
3.377848,0.0342,0.4324,-0.5661,4.1676,-4.4409,-3.0645,0.8618,1.4285,0.7222,
3.393372,0.0342,0.4324,-0.5661,4.1676,-4.4409,-3.0645,-0.3121,-0.3489,0.2392,
3.412673,-0.3242,0.6853,-0.3147,4.1676,-4.4409,-3.0645,-0.3121,-0.3489,0.2392,
3.414720,-0.3242,0.6853,-0.3147,0.4329,-2.0059,-0.4245,-0.3121,-0.3489,0.2392,
3.416595,-0.3242,0.6853,-0.3147,0.4329,-2.0059,-0.4245,-0.4671,-0.1092,-0.1017,
3.433631,-0.3242,0.6853,-0.3147,0.4329,-2.0059,-0.4245,-0.6344,-0.0543,-0.0660,
3.454215,-0.3782,0.6469,-0.1695,0.4329,-2.0059,-0.4245,-0.6344,-0.0543,-0.0660,
3.456934,-0.3782,0.6469,-0.1695,-0.0585,-2.4258,0.7936,-0.6344,-0.0543,-0.0660,
3.458946,-0.3782,0.6469,-0.1695,-0.0585,-2.4258,0.7936,-0.6727,-0.0064,-0.0991,
3.473218,-0.3782,0.6469,-0.1695,-0.0585,-2.4258,0.7936,-0.5593,0.1699,-0.0202,
3.493327,-0.3687,0.7757,-0.3990,-0.0585,-2.4258,0.7936,-0.5593,0.1699,-0.0202,
3.495681,-0.3687,0.7757,-0.3990,0.0483,-1.2131,-1.6587,-0.5593,0.1699,-0.0202,
3.497483,-0.3687,0.7757,-0.3990,0.0483,-1.2131,-1.6587,-0.4250,0.7984,-0.0202,
3.512913,-0.3687,0.7757,-0.3990,0.0483,-1.2131,-1.6587,-0.2759,1.9857,-0.1694,
3.532944,-0.5819,0.9203,-0.6655,0.0483,-1.2131,-1.6587,-0.2759,1.9857,-0.1694,
3.535283,-0.5819,0.9203,-0.6655,-2.1089,0.2160,-4.1218,-0.2759,1.9857,-0.1694,
3.537134,-0.5819,0.9203,-0.6655,-2.1089,0.2160,-4.1218,-0.2546,2.4762,-0.3276,
3.553250,-0.5819,0.9203,-0.6655,-2.1089,0.2160,-4.1218,-0.4405,1.3113,-0.3633,
3.572640,-0.7427,1.0864,-0.5206,-2.1089,0.2160,-4.1218,-0.4405,1.3113,-0.3633,
3.575390,-0.7427,1.0864,-0.5206,-3.7514,1.8580,-2.5555,-0.4405,1.3113,-0.3633,
3.577651,-0.7427,1.0864,-0.5206,-3.7514,1.8580,-2.5555,-0.0479,1.1409,-0.4091,
3.592985,-0.7427,1.0864,-0.5206,-3.7514,1.8580,-2.5555,0.1518,0.6562,-0.3941,
3.613092,-0.7107,1.0899,-0.5910,-3.7514,1.8580,-2.5555,0.1518,0.6562,-0.3941,
3.617465,-0.7107,1.0899,-0.5910,-3.3909,1.9540,-3.0999,0.1518,0.6562,-0.3941,
3.619449,-0.7107,1.0899,-0.5910,-3.3909,1.9540,-3.0999,0.2487,0.4671,-0.6312,
3.632603,-0.7107,1.0899,-0.5910,-3.3909,1.9540,-3.0999,0.2445,0.1087,-0.3691,
3.653627,-0.3875,1.3210,-0.2292,-3.3909,1.9540,-3.0999,0.2445,0.1087,-0.3691,
3.657022,-0.3875,1.3210,-0.2292,-0.0816,4.3188,0.5730,0.2445,0.1087,-0.3691,
3.658885,-0.3875,1.3210,-0.2292,-0.0816,4.3188,0.5730,-0.0107,-1.5047,0.0921,
3.674129,-0.3875,1.3210,-0.2292,-0.0816,4.3188,0.5730,-0.1822,-2.4261,0.0288,
3.693327,-0.2785,1.1541,-0.1258,-0.0816,4.3188,0.5730,-0.1822,-2.4261,0.0288,
3.695623,-0.2785,1.1541,-0.1258,1.1740,2.6644,1.2538,-0.1822,-2.4261,0.0288,
3.697237,-0.2785,1.1541,-0.1258,1.1740,2.6644,1.2538,-0.2929,-1.8088,-0.1513,
3.712965,-0.2785,1.1541,-0.1258,1.1740,2.6644,1.2538,-0.3808,-0.4645,-0.2152,
3.733071,-0.4339,1.0864,0.1454,1.1740,2.6644,1.2538,-0.3808,-0.4645,-0.2152,
3.736075,-0.4339,1.0864,0.1454,-0.1785,1.9995,3.6147,-0.3808,-0.4645,-0.2152,
3.738030,-0.4339,1.0864,0.1454,-0.1785,1.9995,3.6147,-0.3467,0.1523,-0.2306,
3.754013,-0.4339,1.0864,0.1454,-0.1785,1.9995,3.6147,-0.4559,-1.5105,-0.1220,
3.773272,-0.2585,1.1211,0.2321,-0.1785,1.9995,3.6147,-0.4559,-1.5105,-0.1220,
3.775621,-0.2585,1.1211,0.2321,1.6564,2.3349,4.2134,-0.4559,-1.5105,-0.1220,
3.777216,-0.2585,1.1211,0.2321,1.6564,2.3349,4.2134,-0.6450,-2.9183,-0.0740,
3.792810,-0.2585,1.1211,0.2321,1.6564,2.3349,4.2134,-0.8607,-2.3990,-0.0373,
3.813200,-0.3899,0.8287,0.0867,1.6564,2.3349,4.2134,-0.8607,-2.3990,-0.0373,
3.815371,-0.3899,0.8287,0.0867,0.5439,-0.5786,2.0461,-0.8607,-2.3990,-0.0373,
3.817123,-0.3899,0.8287,0.0867,0.5439,-0.5786,2.0461,-0.8288,-0.4149,-0.0410,
3.832677,-0.3899,0.8287,0.0867,0.5439,-0.5786,2.0461,-0.5593,1.3508,0.0421,
3.853064,-0.4556,0.6760,0.0621,0.5439,-0.5786,2.0461,-0.5593,1.3508,0.0421,
3.855308,-0.4556,0.6760,0.0621,-0.1207,-2.1097,1.6104,-0.5593,1.3508,0.0421,
3.857258,-0.4556,0.6760,0.0621,-0.1207,-2.1097,1.6104,-0.2977,2.0544,0.0501,
3.874162,-0.4556,0.6760,0.0621,-0.1207,-2.1097,1.6104,-0.1997,2.0815,0.0186,
3.892501,-0.3652,0.5619,-0.1043,-0.1207,-2.1097,1.6104,-0.1997,2.0815,0.0186,
3.894852,-0.3652,0.5619,-0.1043,0.6597,-3.2448,0.2474,-0.1997,2.0815,0.0186,
3.896648,-0.3652,0.5619,-0.1043,0.6597,-3.2448,0.2474,-0.2839,1.7944,-0.0858,
3.912399,-0.3652,0.5619,-0.1043,0.6597,-3.2448,0.2474,-0.4996,1.1798,-0.1007,
3.932714,-0.3369,0.5233,-0.1346,0.6597,-3.2448,0.2474,-0.4996,1.1798,-0.1007,
3.935044,-0.3369,0.5233,-0.1346,0.8903,-3.6287,0.0637,-0.4996,1.1798,-0.1007,
3.936788,-0.3369,0.5233,-0.1346,0.8903,-3.6287,0.0637,-0.6397,0.5246,-0.1193,
3.951917,-0.3369,0.5233,-0.1346,0.8903,-3.6287,0.0637,-0.5854,0.0714,-0.0815,
3.971671,-0.3406,0.6227,-0.1226,0.8903,-3.6287,0.0637,-0.5854,0.0714,-0.0815,
3.973269,-0.3406,0.6227,-0.1226,0.8736,-2.6694,0.0167,-0.5854,0.0714,-0.0815,
3.974375,-0.3406,0.6227,-0.1226,0.8736,-2.6694,0.0167,-0.3659,-0.1262,-0.0053,
3.991562,-0.3406,0.6227,-0.1226,0.8736,-2.6694,0.0167,-0.1156,-0.0916,0.0559,
4.011832,-0.3591,0.7266,-0.1869,0.8736,-2.6694,0.0167,-0.1156,-0.0916,0.0559,
4.013693,-0.3591,0.7266,-0.1869,0.6878,-1.6674,-0.7157,-0.1156,-0.0916,0.0559,
4.014835,-0.3591,0.7266,-0.1869,0.6878,-1.6674,-0.7157,0.0490,0.0107,0.1161,
4.032001,-0.3591,0.7266,-0.1869,0.6878,-1.6674,-0.7157,-0.0091,0.0277,0.1758,
4.051950,-0.4588,0.8008,-0.2526,0.6878,-1.6674,-0.7157,-0.0091,0.0277,0.1758,
4.054235,-0.4588,0.8008,-0.2526,-0.3411,-0.9630,-1.3495,-0.0091,0.0277,0.1758,
4.056226,-0.4588,0.8008,-0.2526,-0.3411,-0.9630,-1.3495,-0.2706,0.0767,0.2439,
4.073019,-0.4588,0.8008,-0.2526,-0.3411,-0.9630,-1.3495,-0.4842,0.2951,0.2913,
4.092115,-0.5893,0.9579,-0.2062,-0.3411,-0.9630,-1.3495,-0.4842,0.2951,0.2913,
4.094488,-0.5893,0.9579,-0.2062,-1.6972,0.5311,-0.9695,-0.4842,0.2951,0.2913,
4.096393,-0.5893,0.9579,-0.2062,-1.6972,0.5311,-0.9695,-0.5811,0.6290,0.3324,
4.111246,-0.5893,0.9579,-0.2062,-1.6972,0.5311,-0.9695,-0.5609,0.9353,0.3249,
4.131931,-0.6574,1.1089,-0.1910,-1.6972,0.5311,-0.9695,-0.5609,0.9353,0.3249,
4.134175,-0.6574,1.1089,-0.1910,-2.5130,1.9353,-0.8990,-0.5609,0.9353,0.3249,
4.136010,-0.6574,1.1089,-0.1910,-2.5130,1.9353,-0.8990,-0.5023,0.9854,0.2573,
4.152112,-0.6574,1.1089,-0.1910,-2.5130,1.9353,-0.8990,-0.4197,0.5960,0.2083,
4.171613,-0.6936,1.1529,-0.2868,-2.5130,1.9353,-0.8990,-0.4197,0.5960,0.2083,
4.174926,-0.6936,1.1529,-0.2868,-2.9808,2.3127,-1.8800,-0.4197,0.5960,0.2083,
4.177349,-0.6936,1.1529,-0.2868,-2.9808,2.3127,-1.8800,-0.3872,0.1736,0.1779,
4.191139,-0.6936,1.1529,-0.2868,-2.9808,2.3127,-1.8800,-0.4171,-0.1374,0.1561,
4.211202,-0.7249,1.2447,-0.3291,-2.9808,2.3127,-1.8800,-0.4171,-0.1374,0.1561,
4.213813,-0.7249,1.2447,-0.3291,-3.3482,3.1738,-2.4360,-0.4171,-0.1374,0.1561,
4.215870,-0.7249,1.2447,-0.3291,-3.3482,3.1738,-2.4360,-0.3585,-0.4202,0.2099,
4.232018,-0.7249,1.2447,-0.3291,-3.3482,3.1738,-2.4360,-0.0724,-0.3286,0.2471,
4.251759,-0.5255,1.0742,-0.0552,-3.3482,3.1738,-2.4360,-0.0724,-0.3286,0.2471,
4.254155,-0.5255,1.0742,-0.0552,-1.4664,1.4624,0.1145,-0.0724,-0.3286,0.2471,
4.256048,-0.5255,1.0742,-0.0552,-1.4664,1.4624,0.1145,0.3947,0.2541,-0.0868,
4.272633,-0.5255,1.0742,-0.0552,-1.4664,1.4624,0.1145,0.6850,0.5603,-0.2961,
4.291667,-0.3457,0.9526,0.0606,-1.4664,1.4624,0.1145,0.6850,0.5603,-0.2961,
4.293896,-0.3457,0.9526,0.0606,0.3520,0.3153,1.5045,0.6850,0.5603,-0.2961,
4.295591,-0.3457,0.9526,0.0606,0.3520,0.3153,1.5045,0.7329,0.0202,-0.3963,
4.311712,-0.3457,0.9526,0.0606,0.3520,0.3153,1.5045,0.6136,-1.1350,-0.3739,
4.331822,-0.2345,1.1372,0.1666,0.3520,0.3153,1.5045,0.6136,-1.1350,-0.3739,
4.334386,-0.2345,1.1372,0.1666,1.6029,2.2112,2.6990,0.6136,-1.1350,-0.3739,
4.336419,-0.2345,1.1372,0.1666,1.6029,2.2112,2.6990,0.4474,-2.2951,-0.3643,
4.351101,-0.2345,1.1372,0.1666,1.6029,2.2112,2.6990,0.3494,-2.4213,-0.3925,
4.371695,-0.2450,1.0806,0.2336,1.6029,2.2112,2.6990,0.3494,-2.4213,-0.3925,
4.373793,-0.2450,1.0806,0.2336,1.7242,1.7317,3.1187,0.3494,-2.4213,-0.3925,
4.375493,-0.2450,1.0806,0.2336,1.7242,1.7317,3.1187,0.2945,-1.2970,-0.4096,
4.391612,-0.2450,1.0806,0.2336,1.7242,1.7317,3.1187,0.2775,-0.1870,-0.2056,
4.411972,-0.1295,0.8736,0.1910,1.7242,1.7317,3.1187,0.2775,-0.1870,-0.2056,
4.414044,-0.1295,0.8736,0.1910,2.9494,-0.2588,2.6307,0.2775,-0.1870,-0.2056,
4.415925,-0.1295,0.8736,0.1910,2.9494,-0.2588,2.6307,0.2269,0.2466,0.0554,
4.431775,-0.1295,0.8736,0.1910,2.9494,-0.2588,2.6307,0.1475,0.3068,0.1859,
4.452166,-0.1461,0.6926,0.0237,2.9494,-0.2588,2.6307,0.1475,0.3068,0.1859,
4.454406,-0.1461,0.6926,0.0237,2.7350,-2.0471,1.1030,0.1475,0.3068,0.1859,
4.456285,-0.1461,0.6926,0.0237,2.7350,-2.0471,1.1030,0.1156,0.5284,0.2738,
4.472201,-0.1461,0.6926,0.0237,2.7350,-2.0471,1.1030,0.1454,0.9657,0.3441,
4.491682,-0.3220,0.5497,0.0281,2.7350,-2.0471,1.1030,0.1454,0.9657,0.3441,
4.493901,-0.3220,0.5497,0.0281,0.8734,-3.4933,1.3143,0.1454,0.9657,0.3441,
4.495812,-0.3220,0.5497,0.0281,0.8734,-3.4933,1.3143,0.6248,2.2866,0.0964,
4.510867,-0.3220,0.5497,0.0281,0.8734,-3.4933,1.3143,2.0022,4.3095,-0.5582,
4.531268,-0.1766,0.5172,-0.2480,0.8734,-3.4933,1.3143,2.0022,4.3095,-0.5582,
4.533421,-0.1766,0.5172,-0.2480,2.1808,-3.6937,-0.4074,2.0022,4.3095,-0.5582,
4.535256,-0.1766,0.5172,-0.2480,2.1808,-3.6937,-0.4074,1.8157,3.0360,0.5449,
4.551267,-0.1766,0.5172,-0.2480,2.1808,-3.6937,-0.4074,0.8735,1.2298,0.4506,
4.571673,-0.2421,0.5973,-0.5575,2.1808,-3.6937,-0.4074,0.8735,1.2298,0.4506,
4.574381,-0.2421,0.5973,-0.5575,1.1605,-2.8520,-2.6538,0.8735,1.2298,0.4506,
4.576325,-0.2421,0.5973,-0.5575,1.1605,-2.8520,-2.6538,0.1459,0.4549,-0.0948,
4.590689,-0.2421,0.5973,-0.5575,1.1605,-2.8520,-2.6538,-0.2637,0.2684,-0.2131,
4.610994,-0.2741,0.7019,-0.5040,1.1605,-2.8520,-2.6538,-0.2637,0.2684,-0.2131,
4.613303,-0.2741,0.7019,-0.5040,0.8593,-1.8124,-2.0989,-0.2637,0.2684,-0.2131,
4.615279,-0.2741,0.7019,-0.5040,0.8593,-1.8124,-2.0989,-0.4831,-0.2605,-0.1891,
4.630861,-0.2741,0.7019,-0.5040,0.8593,-1.8124,-2.0989,-0.3425,-0.4671,-0.2067,
4.650211,-0.4637,0.8746,-0.5099,0.8593,-1.8124,-2.0989,-0.3425,-0.4671,-0.2067,
4.652659,-0.4637,0.8746,-0.5099,-0.8901,-0.1292,-2.3283,-0.3425,-0.4671,-0.2067,
4.654263,-0.4637,0.8746,-0.5099,-0.8901,-0.1292,-2.3283,-0.0511,-0.2402,-0.1949,
4.672430,-0.4637,0.8746,-0.5099,-0.8901,-0.1292,-2.3283,0.1150,0.0048,-0.1625,
4.690511,-0.6323,0.9638,-0.4503,-0.8901,-0.1292,-2.3283,0.1150,0.0048,-0.1625,
4.693062,-0.6323,0.9638,-0.4503,-2.4565,0.7870,-1.7253,0.1150,0.0048,-0.1625,
4.695011,-0.6323,0.9638,-0.4503,-2.4565,0.7870,-1.7253,-0.0181,-0.3164,-0.1577,
4.710438,-0.6323,0.9638,-0.4503,-2.4565,0.7870,-1.7253,0.0511,-0.1715,-0.1907,
4.730481,-0.5101,1.0850,-0.5319,-2.4565,0.7870,-1.7253,0.0511,-0.1715,-0.1907,
4.732793,-0.5101,1.0850,-0.5319,-1.1733,2.0026,-2.5560,0.0511,-0.1715,-0.1907,
4.734562,-0.5101,1.0850,-0.5319,-1.1733,2.0026,-2.5560,0.4437,0.7590,-0.2647,
4.750284,-0.5101,1.0850,-0.5319,-1.1733,2.0026,-2.5560,0.5241,0.8842,-0.4969,
4.771139,-0.6941,1.1756,-0.6655,-1.1733,2.0026,-2.5560,0.5241,0.8842,-0.4969,
4.773294,-0.6941,1.1756,-0.6655,-2.9377,3.0033,-3.5741,0.5241,0.8842,-0.4969,
4.775259,-0.6941,1.1756,-0.6655,-2.9377,3.0033,-3.5741,0.5571,0.4900,-0.3878,
4.789769,-0.6941,1.1756,-0.6655,-2.9377,3.0033,-3.5741,0.3553,-1.3438,0.0080,
4.809720,-0.2404,1.2589,-0.0555,-2.9377,3.0033,-3.5741,0.3553,-1.3438,0.0080,
4.811268,-0.2404,1.2589,-0.0555,1.6252,3.9043,2.4907,0.3553,-1.3438,0.0080,
4.812264,-0.2404,1.2589,-0.0555,1.6252,3.9043,2.4907,-0.1427,-3.2325,0.2578,
4.829700,-0.2404,1.2589,-0.0555,1.6252,3.9043,2.4907,-0.2216,-3.0557,0.4075,
4.850703,-0.1617,1.0701,0.0293,1.6252,3.9043,2.4907,-0.2216,-3.0557,0.4075,
4.852848,-0.1617,1.0701,0.0293,2.6289,1.9791,2.7442,-0.2216,-3.0557,0.4075,
4.854494,-0.1617,1.0701,0.0293,2.6289,1.9791,2.7442,-0.0437,-1.1478,0.2855,
4.870046,-0.1617,1.0701,0.0293,2.6289,1.9791,2.7442,0.0197,-0.4815,0.2157,
4.890457,-0.5604,1.1353,0.1429,2.6289,1.9791,2.7442,0.0197,-0.4815,0.2157,
4.892618,-0.5604,1.1353,0.1429,-1.2862,2.5750,3.7163,0.0197,-0.4815,0.2157,
4.894367,-0.5604,1.1353,0.1429,-1.2862,2.5750,3.7163,-0.1124,-1.2442,0.2764,
4.909706,-0.5604,1.1353,0.1429,-1.2862,2.5750,3.7163,-0.3696,-1.5249,0.1390,
4.929906,-0.5775,0.8827,0.0261,-1.2862,2.5750,3.7163,-0.3696,-1.5249,0.1390,
4.932575,-0.5775,0.8827,0.0261,-1.4051,0.0439,2.2559,-0.3696,-1.5249,0.1390,
4.934246,-0.5775,0.8827,0.0261,-1.4051,0.0439,2.2559,-0.5960,-1.0072,0.0490,
4.950026,-0.5775,0.8827,0.0261,-1.4051,0.0439,2.2559,-0.6903,-0.2003,0.0591,
4.969967,-0.4371,0.6953,0.0283,-1.4051,0.0439,2.2559,-0.6903,-0.2003,0.0591,
4.972166,-0.4371,0.6953,0.0283,0.0125,-1.8535,1.8881,-0.6903,-0.2003,0.0591,
4.973960,-0.4371,0.6953,0.0283,0.0125,-1.8535,1.8881,-0.6328,0.5188,0.0160,
4.990219,-0.4371,0.6953,0.0283,0.0125,-1.8535,1.8881,-0.5028,1.0456,-0.0176,
5.010438,-0.3606,0.5790,-0.0899,0.0125,-1.8535,1.8881,-0.5028,1.0456,-0.0176,
5.013525,-0.3606,0.5790,-0.0899,0.7136,-3.0285,0.6657,-0.5028,1.0456,-0.0176,
5.015254,-0.3606,0.5790,-0.0899,0.7136,-3.0285,0.6657,-0.3665,1.4243,-0.0746,
5.029871,-0.3606,0.5790,-0.0899,0.7136,-3.0285,0.6657,-0.4053,1.2916,-0.1438,
5.050260,-0.3247,0.5411,-0.2157,0.7136,-3.0285,0.6657,-0.4053,1.2916,-0.1438,
5.052691,-0.3247,0.5411,-0.2157,1.0168,-3.4058,-0.4726,-0.4053,1.2916,-0.1438,
5.054621,-0.3247,0.5411,-0.2157,1.0168,-3.4058,-0.4726,-0.6621,0.7228,-0.1257,
5.072908,-0.3247,0.5411,-0.2157,1.0168,-3.4058,-0.4726,-0.9049,0.1523,-0.1033,
5.090292,-0.3413,0.6193,-0.1586,1.0168,-3.4058,-0.4726,-0.9049,0.1523,-0.1033,
5.092557,-0.3413,0.6193,-0.1586,0.8660,-2.6692,-0.1121,-0.9049,0.1523,-0.1033,
5.094383,-0.3413,0.6193,-0.1586,0.8660,-2.6692,-0.1121,-0.9364,-0.0778,-0.0735,
5.109799,-0.3413,0.6193,-0.1586,0.8660,-2.6692,-0.1121,-0.7659,-0.0154,-0.0160,
5.129922,-0.3848,0.7742,-0.1769,0.8660,-2.6692,-0.1121,-0.7659,-0.0154,-0.0160,
5.133024,-0.3848,0.7742,-0.1769,0.4580,-1.1875,-0.5970,-0.7659,-0.0154,-0.0160,
5.135014,-0.3848,0.7742,-0.1769,0.4580,-1.1875,-0.5970,-0.5380,0.0719,0.0410,
5.149780,-0.3848,0.7742,-0.1769,0.4580,-1.1875,-0.5970,-0.3521,0.0985,0.1012,
5.170347,-0.4647,0.7959,-0.2883,0.4580,-1.1875,-0.5970,-0.3521,0.0985,0.1012,
5.172773,-0.4647,0.7959,-0.2883,-0.3535,-1.0053,-1.8305,-0.3521,0.0985,0.1012,
5.175881,-0.4647,0.7959,-0.2883,-0.3535,-1.0053,-1.8305,-0.2653,0.1150,0.1843,
5.189144,-0.4647,0.7959,-0.2883,-0.3535,-1.0053,-1.8305,-0.2610,0.1161,0.2173,
5.210032,-0.4920,0.8558,-0.3034,-0.3535,-1.0053,-1.8305,-0.2610,0.1161,0.2173,
5.212327,-0.4920,0.8558,-0.3034,-0.6870,-0.4546,-2.0246,-0.2610,0.1161,0.2173,
5.213880,-0.4920,0.8558,-0.3034,-0.6870,-0.4546,-2.0246,-0.2541,0.0197,0.1960,
5.229706,-0.4920,0.8558,-0.3034,-0.6870,-0.4546,-2.0246,-0.1949,-0.1587,0.1486,
5.249343,-0.6325,0.9677,-0.2350,-0.6870,-0.4546,-2.0246,-0.1949,-0.1587,0.1486,
5.251788,-0.6325,0.9677,-0.2350,-2.1002,0.6190,-1.4111,-0.1949,-0.1587,0.1486,
5.253407,-0.6325,0.9677,-0.2350,-2.1002,0.6190,-1.4111,-0.0895,-0.1119,0.1182,
5.269691,-0.6325,0.9677,-0.2350,-2.1002,0.6190,-1.4111,0.0921,0.1246,0.0948,
5.289970,-0.7070,1.0740,-0.2111,-2.1002,0.6190,-1.4111,0.0921,0.1246,0.0948,
5.292234,-0.7070,1.0740,-0.2111,-2.8684,1.6432,-1.1750,0.0921,0.1246,0.0948,
5.294027,-0.7070,1.0740,-0.2111,-2.8684,1.6432,-1.1750,0.1933,0.3723,0.1124,
5.309548,-0.7070,1.0740,-0.2111,-2.8684,1.6432,-1.1750,0.1380,0.3047,0.0724,
5.329149,-0.6916,1.3593,-0.1827,-2.8684,1.6432,-1.1750,0.1380,0.3047,0.0724,
5.331717,-0.6916,1.3593,-0.1827,-2.7631,4.4310,-0.7841,0.1380,0.3047,0.0724,
5.333501,-0.6916,1.3593,-0.1827,-2.7631,4.4310,-0.7841,0.1939,0.0927,0.1103,
5.349380,-0.6916,1.3593,-0.1827,-2.7631,4.4310,-0.7841,0.4975,0.0522,0.0005,
5.369412,-0.4297,1.0554,0.0518,-2.7631,4.4310,-0.7841,0.4975,0.0522,0.0005,
5.371618,-0.4297,1.0554,0.0518,-0.2192,1.4586,1.6486,0.4975,0.0522,0.0005,
5.373408,-0.4297,1.0554,0.0518,-0.2192,1.4586,1.6486,0.8634,-0.1039,-0.0937,
5.389409,-0.4297,1.0554,0.0518,-0.2192,1.4586,1.6486,1.0711,-0.6173,-0.1284,
5.409216,-0.2780,0.9609,0.0545,-0.2192,1.4586,1.6486,1.0711,-0.6173,-0.1284,
5.411824,-0.2780,0.9609,0.0545,1.3260,0.5998,1.9587,1.0711,-0.6173,-0.1284,
5.413252,-0.2780,0.9609,0.0545,1.3260,0.5998,1.9587,1.0232,-1.4994,-0.1092,
5.429596,-0.2780,0.9609,0.0545,1.3260,0.5998,1.9587,0.7974,-2.2994,-0.1198,
5.449369,-0.2426,1.2601,0.0555,1.3260,0.5998,1.9587,0.7974,-2.2994,-0.1198,
5.452057,-0.2426,1.2601,0.0555,1.8236,3.6044,1.9745,0.7974,-2.2994,-0.1198,
5.453826,-0.2426,1.2601,0.0555,1.8236,3.6044,1.9745,0.4155,-2.5497,-0.2237,
5.469345,-0.2426,1.2601,0.0555,1.8236,3.6044,1.9745,0.0341,-1.9372,-0.3025,
5.490023,-0.2880,1.1018,0.1400,1.8236,3.6044,1.9745,0.0341,-1.9372,-0.3025,
5.492174,-0.2880,1.1018,0.1400,1.5856,2.1103,2.4961,0.0341,-1.9372,-0.3025,
5.493804,-0.2880,1.1018,0.1400,1.5856,2.1103,2.4961,-0.0447,-0.6487,-0.1433,
5.509168,-0.2880,1.1018,0.1400,1.5856,2.1103,2.4961,0.0463,0.2770,0.0559,
5.528838,-0.2822,0.8392,0.0222,1.5856,2.1103,2.4961,0.0463,0.2770,0.0559,
5.531184,-0.2822,0.8392,0.0222,1.6347,-0.4759,1.2769,0.0463,0.2770,0.0559,
5.532915,-0.2822,0.8392,0.0222,1.6347,-0.4759,1.2769,0.1646,1.0179,0.1465,
5.548738,-0.2822,0.8392,0.0222,1.6347,-0.4759,1.2769,0.5539,1.9862,0.1609,
5.569843,-0.3731,0.6127,0.0139,1.6347,-0.4759,1.2769,0.5539,1.9862,0.1609,
5.573022,-0.3731,0.6127,0.0139,0.6160,-2.7038,1.5802,0.5539,1.9862,0.1609,
5.574546,-0.3731,0.6127,0.0139,0.6160,-2.7038,1.5802,1.4093,3.1521,0.0186,
5.589640,-0.3731,0.6127,0.0139,0.6160,-2.7038,1.5802,2.1881,3.7348,-0.2658,
5.609662,-0.2612,0.4456,-0.4969,0.6160,-2.7038,1.5802,2.1881,3.7348,-0.2658,
5.611894,-0.2612,0.4456,-0.4969,1.4768,-4.1731,-2.2343,2.1881,3.7348,-0.2658,
5.613757,-0.2612,0.4456,-0.4969,1.4768,-4.1731,-2.2343,1.1729,1.6831,0.5806,
5.629292,-0.2612,0.4456,-0.4969,1.4768,-4.1731,-2.2343,0.0927,0.0107,0.3228,
5.649614,-0.2477,0.6127,-0.2919,1.4768,-4.1731,-2.2343,0.0927,0.0107,0.3228,
5.652006,-0.2477,0.6127,-0.2919,1.3600,-2.5346,0.1231,0.0927,0.0107,0.3228,
5.653773,-0.2477,0.6127,-0.2919,1.3600,-2.5346,0.1231,-0.0650,-0.3036,0.0442,
5.671551,-0.2477,0.6127,-0.2919,1.3600,-2.5346,0.1231,-0.1742,-0.4469,0.0889,
5.689475,-0.1918,0.6357,-0.2551,1.3600,-2.5346,0.1231,-0.1742,-0.4469,0.0889,
5.691777,-0.1918,0.6357,-0.2551,1.9295,-2.3336,0.3869,-0.1742,-0.4469,0.0889,
5.693562,-0.1918,0.6357,-0.2551,1.9295,-2.3336,0.3869,-0.2333,-0.3840,-0.0080,
5.708939,-0.1918,0.6357,-0.2551,1.9295,-2.3336,0.3869,-0.3174,-0.3750,-0.0692,
5.729493,-0.3269,0.7339,-0.3836,1.9295,-2.3336,0.3869,-0.3174,-0.3750,-0.0692,
5.733651,-0.3269,0.7339,-0.3836,0.6614,-1.3961,-1.0250,-0.3174,-0.3750,-0.0692,
5.735477,-0.3269,0.7339,-0.3836,0.6614,-1.3961,-1.0250,-0.3670,-0.2514,-0.0916,
5.748955,-0.3269,0.7339,-0.3836,0.6614,-1.3961,-1.0250,-0.2173,0.2482,-0.0916,
5.769253,-0.5028,0.7815,-0.5531,0.6614,-1.3961,-1.0250,-0.2173,0.2482,-0.0916,
5.771886,-0.5028,0.7815,-0.5531,-1.0295,-0.9429,-2.7779,-0.2173,0.2482,-0.0916,
5.773861,-0.5028,0.7815,-0.5531,-1.0295,-0.9429,-2.7779,0.1262,0.6008,-0.1252,
5.791206,-0.5028,0.7815,-0.5531,-1.0295,-0.9429,-2.7779,0.0650,0.0170,-0.0868,
5.808544,-0.5998,1.0156,-0.4273,-1.0295,-0.9429,-2.7779,0.0650,0.0170,-0.0868,
5.811045,-0.5998,1.0156,-0.4273,-1.9678,1.3880,-1.4435,0.0650,0.0170,-0.0868,
5.812916,-0.5998,1.0156,-0.4273,-1.9678,1.3880,-1.4435,-0.0692,-0.2035,-0.1928,
5.828467,-0.5998,1.0156,-0.4273,-1.9678,1.3880,-1.4435,0.4714,1.1153,-0.3185,
5.848909,-0.6034,0.9122,-0.6459,-1.9678,1.3880,-1.4435,0.4714,1.1153,-0.3185,
5.851261,-0.6034,0.9122,-0.6459,-1.9677,0.4381,-3.4460,0.4714,1.1153,-0.3185,
5.853048,-0.6034,0.9122,-0.6459,-1.9677,0.4381,-3.4460,0.5337,0.9513,-0.4304,
5.869224,-0.6034,0.9122,-0.6459,-1.9677,0.4381,-3.4460,0.4799,0.1864,-0.4362,
5.888528,-0.6025,1.2638,-0.4898,-1.9677,0.4381,-3.4460,0.4799,0.1864,-0.4362,
5.890720,-0.6025,1.2638,-0.4898,-1.8800,4.0135,-1.6553,0.4799,0.1864,-0.4362,
5.892539,-0.6025,1.2638,-0.4898,-1.8800,4.0135,-1.6553,0.4959,-0.4266,-0.1268,
5.907746,-0.6025,1.2638,-0.4898,-1.8800,4.0135,-1.6553,-0.1497,-1.5377,0.1672,
5.927928,-0.1446,1.1842,-0.0655,-1.8800,4.0135,-1.6553,-0.1497,-1.5377,0.1672,
5.930374,-0.1446,1.1842,-0.0655,2.7227,3.2516,2.4006,-0.1497,-1.5377,0.1672,
5.932345,-0.1446,1.1842,-0.0655,2.7227,3.2516,2.4006,-0.0426,-0.6748,0.1491,
5.948590,-0.1446,1.1842,-0.0655,2.7227,3.2516,2.4006,0.0469,-0.7393,0.1380,
5.968797,-0.3393,1.0972,0.0738,2.7227,3.2516,2.4006,0.0469,-0.7393,0.1380,
5.971791,-0.3393,1.0972,0.0738,0.8507,2.3756,3.6486,0.0469,-0.7393,0.1380,
5.973778,-0.3393,1.0972,0.0738,0.8507,2.3756,3.6486,0.2306,-0.6658,0.2908,
5.988950,-0.3393,1.0972,0.0738,0.8507,2.3756,3.6486,-0.1838,-2.0347,0.3095,
6.009037,-0.4625,1.2572,-0.0037,0.8507,2.3756,3.6486,-0.1838,-2.0347,0.3095,
6.011449,-0.4625,1.2572,-0.0037,-0.3037,3.8968,2.6715,-0.1838,-2.0347,0.3095,
6.013262,-0.4625,1.2572,-0.0037,-0.3037,3.8968,2.6715,-0.7095,-2.2882,0.2296,
6.027992,-0.4625,1.2572,-0.0037,-0.3037,3.8968,2.6715,-0.8400,-1.2549,0.0948,
6.048273,-0.5692,0.9403,0.0616,-0.3037,3.8968,2.6715,-0.8400,-1.2549,0.0948,
6.051478,-0.5692,0.9403,0.0616,-1.2315,0.6896,2.7448,-0.8400,-1.2549,0.0948,
6.053223,-0.5692,0.9403,0.0616,-1.2315,0.6896,2.7448,-0.7446,-0.1033,0.0895,
6.069362,-0.5692,0.9403,0.0616,-1.2315,0.6896,2.7448,-0.4352,0.8842,0.1103,
6.088584,-0.4500,0.7119,-0.0684,-1.2315,0.6896,2.7448,-0.4352,0.8842,0.1103,
6.090702,-0.4500,0.7119,-0.0684,-0.1223,-1.6220,1.2910,-0.4352,0.8842,0.1103,
6.092656,-0.4500,0.7119,-0.0684,-0.1223,-1.6220,1.2910,-0.2647,1.2746,0.0634,
6.108225,-0.4500,0.7119,-0.0684,-0.1223,-1.6220,1.2910,-0.4160,1.3193,0.0373,
6.127937,-0.3225,0.6032,-0.3181,-0.1223,-1.6220,1.2910,-0.4160,1.3193,0.0373,
6.130261,-0.3225,0.6032,-0.3181,1.0055,-2.7235,-1.0541,-0.4160,1.3193,0.0373,
6.132025,-0.3225,0.6032,-0.3181,1.0055,-2.7235,-1.0541,-0.6461,1.1910,0.0016,
6.148188,-0.3225,0.6032,-0.3181,1.0055,-2.7235,-1.0541,-0.9268,0.4485,-0.0469,
6.168358,-0.3489,0.5450,-0.2470,1.0055,-2.7235,-1.0541,-0.9268,0.4485,-0.0469,
6.172128,-0.3489,0.5450,-0.2470,0.6881,-3.3529,-0.4942,-0.9268,0.4485,-0.0469,
6.174053,-0.3489,0.5450,-0.2470,0.6881,-3.3529,-0.4942,-1.0440,-0.2738,-0.0352,
6.188361,-0.3489,0.5450,-0.2470,0.6881,-3.3529,-0.4942,-0.8922,-0.4149,-0.0133,
6.208863,-0.3858,0.6083,-0.1441,0.6881,-3.3529,-0.4942,-0.8922,-0.4149,-0.0133,
6.211212,-0.3858,0.6083,-0.1441,0.3585,-2.7958,0.1199,-0.8922,-0.4149,-0.0133,
6.212937,-0.3858,0.6083,-0.1441,0.3585,-2.7958,0.1199,-0.6312,-0.2248,0.0261,
6.227922,-0.3858,0.6083,-0.1441,0.3585,-2.7958,0.1199,-0.3728,-0.0320,0.0708,
6.247917,-0.4082,0.7290,-0.1827,0.3585,-2.7958,0.1199,-0.3728,-0.0320,0.0708,
6.249982,-0.4082,0.7290,-0.1827,0.1287,-1.6497,-0.4554,-0.3728,-0.0320,0.0708,
6.251937,-0.4082,0.7290,-0.1827,0.1287,-1.6497,-0.4554,-0.2083,0.0240,0.1284,
6.267471,-0.4082,0.7290,-0.1827,0.1287,-1.6497,-0.4554,-0.1843,0.0586,0.1816,
6.287285,-0.4437,0.7190,-0.2998,0.1287,-1.6497,-0.4554,-0.1843,0.0586,0.1816,
6.289247,-0.4437,0.7190,-0.2998,-0.2751,-1.7835,-1.6645,-0.1843,0.0586,0.1816,
6.291266,-0.4437,0.7190,-0.2998,-0.2751,-1.7835,-1.6645,-0.2482,0.1678,0.2093,
6.308493,-0.4437,0.7190,-0.2998,-0.2751,-1.7835,-1.6645,-0.2924,0.2466,0.2051,
6.328343,-0.4693,0.7578,-0.2529,-0.2751,-1.7835,-1.6645,-0.2924,0.2466,0.2051,
6.332790,-0.4693,0.7578,-0.2529,-0.6100,-1.4496,-1.2670,-0.2924,0.2466,0.2051,
6.335314,-0.4693,0.7578,-0.2529,-0.6100,-1.4496,-1.2670,-0.2551,0.1651,0.2013,
6.348993,-0.4693,0.7578,-0.2529,-0.6100,-1.4496,-1.2670,-0.1401,-0.1933,0.1758,
6.367551,-0.5228,1.0097,-0.1876,-0.6100,-1.4496,-1.2670,-0.1401,-0.1933,0.1758,
6.370893,-0.5228,1.0097,-0.1876,-1.1709,0.9980,-0.6618,-0.1401,-0.1933,0.1758,
6.372931,-0.5228,1.0097,-0.1876,-1.1709,0.9980,-0.6618,-0.0724,-0.4826,0.1465,
6.388504,-0.5228,1.0097,-0.1876,-1.1709,0.9980,-0.6618,-0.0735,-0.5140,0.1332,
6.407032,-0.6760,1.1663,-0.2692,-1.1709,0.9980,-0.6618,-0.0735,-0.5140,0.1332,
6.409349,-0.6760,1.1663,-0.2692,-2.6994,2.5074,-1.5658,-0.0735,-0.5140,0.1332,
6.411164,-0.6760,1.1663,-0.2692,-2.6994,2.5074,-1.5658,-0.1071,-0.0629,0.1806,
6.427316,-0.6760,1.1663,-0.2692,-2.6994,2.5074,-1.5658,-0.1369,0.4234,0.2498,
6.447307,-0.7376,1.1846,-0.4063,-2.6994,2.5074,-1.5658,-0.1369,0.4234,0.2498,
6.450028,-0.7376,1.1846,-0.4063,-3.3871,2.6484,-2.9246,-0.1369,0.4234,0.2498,
6.451536,-0.7376,1.1846,-0.4063,-3.3871,2.6484,-2.9246,-0.1736,0.5135,0.2796,
6.467188,-0.7376,1.1846,-0.4063,-3.3871,2.6484,-2.9246,-0.1550,0.3228,0.2024,
6.487630,-0.6398,1.1683,-0.2045,-3.3871,2.6484,-2.9246,-0.1550,0.3228,0.2024,
6.489900,-0.6398,1.1683,-0.2045,-2.5335,2.4447,-0.9427,-0.1550,0.3228,0.2024,
6.491764,-0.6398,1.1683,-0.2045,-2.5335,2.4447,-0.9427,0.0256,0.2365,0.0581,
6.507247,-0.6398,1.1683,-0.2045,-2.5335,2.4447,-0.9427,0.2722,0.2088,0.0426,
6.527492,-0.3662,0.8018,0.0435,-2.5335,2.4447,-0.9427,0.2722,0.2088,0.0426,
6.530956,-0.3662,0.8018,0.0435,0.1202,-1.1475,1.5740,0.2722,0.2088,0.0426,
6.532941,-0.3662,0.8018,0.0435,0.1202,-1.1475,1.5740,0.4597,-0.1225,0.0021,
6.547197,-0.3662,0.8018,0.0435,0.1202,-1.1475,1.5740,0.5129,-0.7862,-0.0123,
6.567568,-0.2690,0.9701,0.1080,0.1202,-1.1475,1.5740,0.5129,-0.7862,-0.0123,
6.569666,-0.2690,0.9701,0.1080,1.0990,0.5249,2.2971,0.5129,-0.7862,-0.0123,
6.571385,-0.2690,0.9701,0.1080,1.0990,0.5249,2.2971,0.4314,-1.8035,-0.1007,
6.589565,-0.2690,0.9701,0.1080,1.0990,0.5249,2.2971,0.1949,-2.4789,-0.2573,
6.607220,-0.1400,1.2342,0.1490,1.0990,0.5249,2.2971,0.1949,-2.4789,-0.2573,
6.609369,-0.1400,1.2342,0.1490,2.5253,3.1550,2.4855,0.1949,-2.4789,-0.2573,
6.611108,-0.1400,1.2342,0.1490,2.5253,3.1550,2.4855,-0.0858,-2.3660,-0.4240,
6.627258,-0.1400,1.2342,0.1490,2.5253,3.1550,2.4855,-0.1816,-1.2863,-0.3579,
6.646979,-0.2318,1.0762,0.1075,2.5253,3.1550,2.4855,-0.1816,-1.2863,-0.3579,
6.649729,-0.2318,1.0762,0.1075,1.8271,1.6641,1.7400,-0.1816,-1.2863,-0.3579,
6.651394,-0.2318,1.0762,0.1075,1.8271,1.6641,1.7400,-0.0927,0.0133,-0.0948,
6.667035,-0.2318,1.0762,0.1075,1.8271,1.6641,1.7400,0.1119,0.9460,0.1822,
6.687228,-0.3078,0.8575,0.0792,1.8271,1.6641,1.7400,0.1119,0.9460,0.1822,
6.689387,-0.3078,0.8575,0.0792,1.0168,-0.5056,1.5015,0.1119,0.9460,0.1822,
6.691203,-0.3078,0.8575,0.0792,1.0168,-0.5056,1.5015,0.8171,2.3942,0.1039,
6.707075,-0.3078,0.8575,0.0792,1.0168,-0.5056,1.5015,1.7886,3.5207,-0.0170,
6.726995,-0.3880,0.6555,-0.2812,1.0168,-0.5056,1.5015,1.7886,3.5207,-0.0170,
6.728799,-0.3880,0.6555,-0.2812,0.0768,-2.4304,-1.1034,1.7886,3.5207,-0.0170,
6.730280,-0.3880,0.6555,-0.2812,0.0768,-2.4304,-1.1034,2.3031,3.7556,-0.1672,
6.747005,-0.3880,0.6555,-0.2812,0.0768,-2.4304,-1.1034,1.3769,2.0970,0.4309,
6.766491,0.0051,0.4525,-0.5025,0.0768,-2.4304,-1.1034,1.3769,2.0970,0.4309,
6.768889,0.0051,0.4525,-0.5025,3.6274,-4.2772,-2.1883,1.3769,2.0970,0.4309,
6.770818,0.0051,0.4525,-0.5025,3.6274,-4.2772,-2.1883,0.1625,0.2045,0.4378,
6.786137,0.0051,0.4525,-0.5025,3.6274,-4.2772,-2.1883,-0.0549,-0.3270,0.0943,
6.807055,-0.2690,0.6733,-0.2538,3.6274,-4.2772,-2.1883,-0.0549,-0.3270,0.0943,
6.809445,-0.2690,0.6733,-0.2538,0.8552,-2.1444,0.2594,-0.0549,-0.3270,0.0943,
6.811312,-0.2690,0.6733,-0.2538,0.8552,-2.1444,0.2594,-0.1060,-0.7425,0.1294,
6.826917,-0.2690,0.6733,-0.2538,0.8552,-2.1444,0.2594,-0.2040,-0.8309,0.1411,
6.847037,-0.2336,0.6586,-0.2255,0.8552,-2.1444,0.2594,-0.2040,-0.8309,0.1411,
6.849928,-0.2336,0.6586,-0.2255,1.2389,-2.3234,0.3726,-0.2040,-0.8309,0.1411,
6.851653,-0.2336,0.6586,-0.2255,1.2389,-2.3234,0.3726,-0.3430,-0.6487,-0.0096,
6.866889,-0.2336,0.6586,-0.2255,1.2389,-2.3234,0.3726,-0.4304,-0.4778,-0.0447,
6.886099,-0.3450,0.7261,-0.3450,1.2389,-2.3234,0.3726,-0.4304,-0.4778,-0.0447,
6.888549,-0.3450,0.7261,-0.3450,0.2125,-1.6969,-1.0140,-0.4304,-0.4778,-0.0447,
6.890564,-0.3450,0.7261,-0.3450,0.2125,-1.6969,-1.0140,-0.3957,-0.2493,-0.0703,
6.906873,-0.3450,0.7261,-0.3450,0.2125,-1.6969,-1.0140,-0.1651,0.2029,-0.1497,
6.927038,-0.5944,0.8353,-0.5768,0.2125,-1.6969,-1.0140,-0.1651,0.2029,-0.1497,
6.930349,-0.5944,0.8353,-0.5768,-2.1756,-0.6191,-3.3449,-0.1651,0.2029,-0.1497,
6.932214,-0.5944,0.8353,-0.5768,-2.1756,-0.6191,-3.3449,0.1140,0.4517,-0.1390,
6.947010,-0.5944,0.8353,-0.5768,-2.1756,-0.6191,-3.3449,-0.0085,0.0431,-0.0639,
6.966393,-0.6706,1.0354,-0.5160,-2.1756,-0.6191,-3.3449,-0.0085,0.0431,-0.0639,
6.969930,-0.6706,1.0354,-0.5160,-2.9100,1.3615,-2.6941,-0.0085,0.0431,-0.0639,
6.972141,-0.6706,1.0354,-0.5160,-2.9100,1.3615,-2.6941,0.0889,0.4341,-0.1859,
6.986670,-0.6706,1.0354,-0.5160,-2.9100,1.3615,-2.6941,0.2759,0.9529,-0.3164,
7.006162,-0.6699,1.0129,-0.5590,-2.9100,1.3615,-2.6941,0.2759,0.9529,-0.3164,
7.008900,-0.6699,1.0129,-0.5590,-2.8826,1.1959,-2.9500,0.2759,0.9529,-0.3164,
7.010816,-0.6699,1.0129,-0.5590,-2.8826,1.1959,-2.9500,0.1523,0.3329,-0.4815,
7.025947,-0.6699,1.0129,-0.5590,-2.8826,1.1959,-2.9500,0.3217,0.0415,-0.3127,
7.046214,-0.4500,1.3681,-0.2555,-2.8826,1.1959,-2.9500,0.3217,0.0415,-0.3127,
7.048495,-0.4500,1.3681,-0.2555,-0.6091,4.7609,0.1336,0.3217,0.0415,-0.3127,
7.050098,-0.4500,1.3681,-0.2555,-0.6091,4.7609,0.1336,-0.1049,-1.5958,0.0804,
7.065809,-0.4500,1.3681,-0.2555,-0.6091,4.7609,0.1336,-0.5918,-2.7494,-0.0107,
7.086631,-0.1932,1.1236,-0.0481,-0.6091,4.7609,0.1336,-0.5918,-2.7494,-0.0107,
7.089889,-0.1932,1.1236,-0.0481,2.1051,2.3260,1.7082,-0.5918,-2.7494,-0.0107,
7.091808,-0.1932,1.1236,-0.0481,2.1051,2.3260,1.7082,-0.7515,-1.9995,-0.0666,
7.106074,-0.1932,1.1236,-0.0481,2.1051,2.3260,1.7082,-0.1939,0.1023,0.1145,
7.126315,-0.3139,1.1954,0.2196,2.1051,2.3260,1.7082,-0.1939,0.1023,0.1145,
7.129798,-0.3139,1.1954,0.2196,0.9913,2.9882,4.0150,-0.1939,0.1023,0.1145,
7.131433,-0.3139,1.1954,0.2196,0.9913,2.9882,4.0150,0.6099,0.8655,0.0527,
7.146218,-0.3139,1.1954,0.2196,0.9913,2.9882,4.0150,0.3925,-0.8005,0.0091,
7.166529,-0.4014,1.0224,-0.0259,0.9913,2.9882,4.0150,0.3925,-0.8005,0.0091,
7.168866,-0.4014,1.0224,-0.0259,0.1223,1.3279,1.7884,0.3925,-0.8005,0.0091,
7.170468,-0.4014,1.0224,-0.0259,0.1223,1.3279,1.7884,-0.2248,-1.3369,-0.0405,
7.186563,-0.4014,1.0224,-0.0259,0.1223,1.3279,1.7884,-0.6882,-0.6120,0.0053,
7.206139,-0.4879,0.8563,-0.0371,0.1223,1.3279,1.7884,-0.6882,-0.6120,0.0053,
7.208242,-0.4879,0.8563,-0.0371,-0.6464,-0.3341,1.3490,-0.6882,-0.6120,0.0053,
7.210157,-0.4879,0.8563,-0.0371,-0.6464,-0.3341,1.3490,-0.9140,0.3052,0.0389,
7.226228,-0.4879,0.8563,-0.0371,-0.6464,-0.3341,1.3490,-0.9129,0.9673,0.0048,
7.245603,-0.3936,0.6633,-0.0342,-0.6464,-0.3341,1.3490,-0.9129,0.9673,0.0048,
7.248006,-0.3936,0.6633,-0.0342,0.2339,-2.2890,1.1424,-0.9129,0.9673,0.0048,
7.249786,-0.3936,0.6633,-0.0342,0.2339,-2.2890,1.1424,-0.8256,1.2416,-0.0575,
7.266301,-0.3936,0.6633,-0.0342,0.2339,-2.2890,1.1424,-0.8021,1.3406,-0.0932,
7.286080,-0.3010,0.5846,-0.1620,0.2339,-2.2890,1.1424,-0.8021,1.3406,-0.0932,
7.288978,-0.3010,0.5846,-0.1620,1.0938,-3.0944,-0.1864,-0.8021,1.3406,-0.0932,
7.290872,-0.3010,0.5846,-0.1620,1.0938,-3.0944,-0.1864,-0.8293,1.3545,-0.1214,
7.305742,-0.3010,0.5846,-0.1620,1.0938,-3.0944,-0.1864,-0.9422,1.0461,-0.1289,
7.326576,-0.3130,0.5497,-0.2123,1.0938,-3.0944,-0.1864,-0.9422,1.0461,-0.1289,
7.328934,-0.3130,0.5497,-0.2123,0.9557,-3.4644,-0.7990,-0.9422,1.0461,-0.1289,
7.330872,-0.3130,0.5497,-0.2123,0.9557,-3.4644,-0.7990,-1.0418,0.7143,-0.1465,
7.345758,-0.3130,0.5497,-0.2123,0.9557,-3.4644,-0.7990,-0.9912,0.5273,-0.1209,
7.365655,-0.3379,0.6149,-0.1732,0.9557,-3.4644,-0.7990,-0.9912,0.5273,-0.1209,
7.368090,-0.3379,0.6149,-0.1732,0.7299,-2.8505,-0.6758,-0.9912,0.5273,-0.1209,
7.369984,-0.3379,0.6149,-0.1732,0.7299,-2.8505,-0.6758,-0.8000,0.3633,-0.0794,
7.385814,-0.3379,0.6149,-0.1732,0.7299,-2.8505,-0.6758,-0.5193,0.1965,-0.0091,
7.406201,-0.3608,0.7058,-0.1845,0.7299,-2.8505,-0.6758,-0.5193,0.1965,-0.0091,
7.408773,-0.3608,0.7058,-0.1845,0.5101,-1.9772,-0.9748,-0.5193,0.1965,-0.0091,
7.410405,-0.3608,0.7058,-0.1845,0.5101,-1.9772,-0.9748,-0.2109,0.1332,0.0746,
7.425117,-0.3608,0.7058,-0.1845,0.5101,-1.9772,-0.9748,-0.0154,0.2184,0.1411,
7.445233,-0.4463,0.7446,-0.2766,0.5101,-1.9772,-0.9748,-0.0154,0.2184,0.1411,
7.446274,-0.4463,0.7446,-0.2766,-0.3719,-1.6175,-1.8893,-0.0154,0.2184,0.1411,
7.447089,-0.4463,0.7446,-0.2766,-0.3719,-1.6175,-1.8893,0.0144,0.2684,0.1848,
7.465922,-0.4463,0.7446,-0.2766,-0.3719,-1.6175,-1.8893,-0.0362,0.2679,0.1864,
7.485652,-0.5411,0.9362,-0.2641,-0.3719,-1.6175,-1.8893,-0.0362,0.2679,0.1864,
7.488187,-0.5411,0.9362,-0.2641,-1.3589,0.2405,-1.6961,-0.0362,0.2679,0.1864,
7.489985,-0.5411,0.9362,-0.2641,-1.3589,0.2405,-1.6961,-0.0927,0.2264,0.1742,
7.505479,-0.5411,0.9362,-0.2641,-1.3589,0.2405,-1.6961,-0.1534,0.1534,0.1374,
7.525097,-0.6437,1.1438,-0.2128,-1.3589,0.2405,-1.6961,-0.1534,0.1534,0.1374,
7.527954,-0.6437,1.1438,-0.2128,-2.4269,2.2469,-1.2076,-0.1534,0.1534,0.1374,
7.529816,-0.6437,1.1438,-0.2128,-2.4269,2.2469,-1.2076,-0.1502,0.0053,0.0879,
7.545775,-0.6437,1.1438,-0.2128,-2.4269,2.2469,-1.2076,-0.0804,0.1433,0.1294,
7.565616,-0.5768,1.0671,-0.3083,-2.4269,2.2469,-1.2076,-0.0804,0.1433,0.1294,
7.568072,-0.5768,1.0671,-0.3083,-1.8123,1.4744,-2.1736,-0.0804,0.1433,0.1294,
7.569905,-0.5768,1.0671,-0.3083,-1.8123,1.4744,-2.1736,-0.0804,0.3095,0.1481,
7.584971,-0.5768,1.0671,-0.3083,-1.8123,1.4744,-2.1736,-0.1385,0.1875,0.2189,
7.605207,-0.5697,1.3002,-0.2304,-1.8123,1.4744,-2.1736,-0.1385,0.1875,0.2189,
7.607629,-0.5697,1.3002,-0.2304,-1.8173,3.7269,-1.4114,-0.1385,0.1875,0.2189,
7.609458,-0.5697,1.3002,-0.2304,-1.8173,3.7269,-1.4114,0.0250,0.0575,0.2301,
7.624642,-0.5697,1.3002,-0.2304,-1.8173,3.7269,-1.4114,0.4229,-0.0048,0.1108,
7.645767,-0.3572,0.9868,0.0156,-1.8173,3.7269,-1.4114,0.4229,-0.0048,0.1108,
7.649147,-0.3572,0.9868,0.0156,0.2033,0.6376,1.0843,0.4229,-0.0048,0.1108,
7.650660,-0.3572,0.9868,0.0156,0.2033,0.6376,1.0843,0.7196,-0.1688,0.0639,
7.665209,-0.3572,0.9868,0.0156,0.2033,0.6376,1.0843,0.8037,-0.8219,-0.0298,
7.684856,-0.3555,1.1419,0.0960,0.2033,0.6376,1.0843,0.8037,-0.8219,-0.0298,
7.687708,-0.3555,1.1419,0.0960,0.2351,2.1872,2.0730,0.8037,-0.8219,-0.0298,
7.689492,-0.3555,1.1419,0.0960,0.2351,2.1872,2.0730,0.6669,-2.0299,-0.1156,
7.705358,-0.3555,1.1419,0.0960,0.2351,2.1872,2.0730,0.3372,-3.2640,-0.2264,
7.725129,-0.1801,1.3278,0.0752,0.2351,2.1872,2.0730,0.3372,-3.2640,-0.2264,
7.727320,-0.1801,1.3278,0.0752,2.1261,4.0567,1.6475,0.3372,-3.2640,-0.2264,
7.729009,-0.1801,1.3278,0.0752,2.1261,4.0567,1.6475,-0.1087,-3.2017,-0.4192,
7.745728,-0.1801,1.3278,0.0752,2.1261,4.0567,1.6475,-0.3121,-1.9239,-0.4378,
7.765171,-0.2489,1.0432,0.1356,2.1261,4.0567,1.6475,-0.3121,-1.9239,-0.4378,
7.767530,-0.2489,1.0432,0.1356,1.6735,1.3311,1.7554,-0.3121,-1.9239,-0.4378,
7.769191,-0.2489,1.0432,0.1356,1.6735,1.3311,1.7554,-0.0602,-0.3052,-0.2099,
7.785311,-0.2489,1.0432,0.1356,1.6735,1.3311,1.7554,0.2482,0.5720,0.0698,
7.805578,-0.2184,0.7964,0.0347,1.6735,1.3311,1.7554,0.2482,0.5720,0.0698,
7.807888,-0.2184,0.7964,0.0347,1.9455,-1.0984,0.7913,0.2482,0.5720,0.0698,
7.809666,-0.2184,0.7964,0.0347,1.9455,-1.0984,0.7913,0.6072,1.3257,0.2173,
7.824916,-0.2184,0.7964,0.0347,1.9455,-1.0984,0.7913,1.2069,2.3074,0.1742,
7.844848,-0.2822,0.5961,-0.0535,1.9455,-1.0984,0.7913,1.2069,2.3074,0.1742,
7.848196,-0.2822,0.5961,-0.0535,1.1962,-3.0655,0.5417,1.2069,2.3074,0.1742,
7.849988,-0.2822,0.5961,-0.0535,1.1962,-3.0655,0.5417,1.8088,2.9412,0.0879,
7.865056,-0.2822,0.5961,-0.0535,1.1962,-3.0655,0.5417,1.7710,2.4160,0.3973,
7.884921,-0.0366,0.4581,-0.3672,1.1962,-3.0655,0.5417,1.7710,2.4160,0.3973,
7.887260,-0.0366,0.4581,-0.3672,3.3479,-4.3408,-1.4865,1.7710,2.4160,0.3973,
7.889129,-0.0366,0.4581,-0.3672,3.3479,-4.3408,-1.4865,0.5854,0.1992,0.5859,
7.904563,-0.0366,0.4581,-0.3672,3.3479,-4.3408,-1.4865,-0.1475,-0.7798,0.1523,
7.925348,-0.2988,0.5873,-0.2458,3.3479,-4.3408,-1.4865,-0.1475,-0.7798,0.1523,
7.928832,-0.2988,0.5873,-0.2458,0.6741,-3.1090,-0.2610,-0.1475,-0.7798,0.1523,
7.930485,-0.2988,0.5873,-0.2458,0.6741,-3.1090,-0.2610,-0.1550,-0.4352,0.0565,
7.944912,-0.2988,0.5873,-0.2458,0.6741,-3.1090,-0.2610,-0.1790,-0.1087,0.0197,
7.965458,-0.2660,0.5446,-0.1947,0.6741,-3.1090,-0.2610,-0.1790,-0.1087,0.0197,
7.967913,-0.2660,0.5446,-0.1947,1.0043,-3.5474,0.1411,-0.1790,-0.1087,0.0197,
7.969585,-0.2660,0.5446,-0.1947,1.0043,-3.5474,0.1411,-0.2392,0.0000,-0.0804,
7.988167,-0.2660,0.5446,-0.1947,1.0043,-3.5474,0.1411,-0.3846,-0.0314,-0.0836,
8.005090,-0.3628,0.7038,-0.3457,1.0043,-3.5474,0.1411,-0.3846,-0.0314,-0.0836,
8.007487,-0.3628,0.7038,-0.3457,0.0866,-1.9993,-1.4516,-0.3846,-0.0314,-0.0836,
8.009400,-0.3628,0.7038,-0.3457,0.0866,-1.9993,-1.4516,-0.4181,0.1827,-0.1630,
8.025122,-0.3628,0.7038,-0.3457,0.0866,-1.9993,-1.4516,-0.1694,0.6338,-0.2184,
8.044850,-0.6489,0.9227,-0.5705,0.0866,-1.9993,-1.4516,-0.1694,0.6338,-0.2184,
8.047275,-0.6489,0.9227,-0.5705,-2.6558,0.1732,-3.6449,-0.1694,0.6338,-0.2184,
8.049193,-0.6489,0.9227,-0.5705,-2.6558,0.1732,-3.6449,-0.0218,0.6008,-0.2242,
8.064732,-0.6489,0.9227,-0.5705,-2.6558,0.1732,-3.6449,-0.3419,0.0272,-0.2716,
8.084349,-0.4825,1.1519,-0.4764,-2.6558,0.1732,-3.6449,-0.3419,0.0272,-0.2716,
8.086893,-0.4825,1.1519,-0.4764,-0.9623,2.4417,-2.7409,-0.3419,0.0272,-0.2716,
8.088723,-0.4825,1.1519,-0.4764,-0.9623,2.4417,-2.7409,-0.3569,0.7153,-0.2434,
8.105232,-0.4825,1.1519,-0.4764,-0.9623,2.4417,-2.7409,0.2029,1.7891,-0.4149,
8.124806,-0.6393,1.2030,-0.6027,-0.9623,2.4417,-2.7409,0.2029,1.7891,-0.4149,
8.127303,-0.6393,1.2030,-0.6027,-2.4824,2.9861,-3.8170,0.2029,1.7891,-0.4149,
8.129137,-0.6393,1.2030,-0.6027,-2.4824,2.9861,-3.8170,0.7116,1.1702,-0.4895,
8.143721,-0.6393,1.2030,-0.6027,-2.4824,2.9861,-3.8170,0.6605,-0.1992,-0.0011,
8.163878,-0.3076,1.2462,-0.2060,-2.4824,2.9861,-3.8170,0.6605,-0.1992,-0.0011,
8.166891,-0.3076,1.2462,-0.2060,0.8129,3.5094,0.3844,0.6605,-0.1992,-0.0011,
8.168671,-0.3076,1.2462,-0.2060,0.8129,3.5094,0.3844,0.0298,-1.8078,0.2610,
8.187940,-0.3076,1.2462,-0.2060,0.8129,3.5094,0.3844,-0.4703,-2.9194,0.3467,
8.205249,-0.1087,1.2960,0.1368,0.8129,3.5094,0.3844,-0.4703,-2.9194,0.3467,
8.207302,-0.1087,1.2960,0.1368,2.8633,3.9324,3.3010,-0.4703,-2.9194,0.3467,
8.208917,-0.1087,1.2960,0.1368,2.8633,3.9324,3.3010,-0.1166,-2.1273,0.3872,
8.223845,-0.1087,1.2960,0.1368,2.8633,3.9324,3.3010,1.0557,0.6163,0.3292,
8.244443,-0.4788,1.2005,0.1410,2.8633,3.9324,3.3010,1.0557,0.6163,0.3292,
8.248220,-0.4788,1.2005,0.1410,-0.8336,2.9757,3.3875,1.0557,0.6163,0.3292,
8.249994,-0.4788,1.2005,0.1410,-0.8336,2.9757,3.3875,1.0983,0.1353,0.1449,
8.263938,-0.4788,1.2005,0.1410,-0.8336,2.9757,3.3875,-0.0101,-1.6320,0.2722,
8.283958,-0.6328,1.0493,-0.0965,-0.8336,2.9757,3.3875,-0.0101,-1.6320,0.2722,
8.286569,-0.6328,1.0493,-0.0965,-2.3508,1.5075,1.1363,-0.0101,-1.6320,0.2722,
8.288375,-0.6328,1.0493,-0.0965,-2.3508,1.5075,1.1363,-0.8155,-1.2229,0.1529,
8.304260,-0.6328,1.0493,-0.0965,-2.3508,1.5075,1.1363,-1.0876,-0.2658,0.0399,
8.324344,-0.5304,0.8214,0.0308,-2.3508,1.5075,1.1363,-1.0876,-0.2658,0.0399,
8.326617,-0.5304,0.8214,0.0308,-1.3243,-0.8109,1.9339,-1.0876,-0.2658,0.0399,
8.328577,-0.5304,0.8214,0.0308,-1.3243,-0.8109,1.9339,-1.0093,0.3537,-0.0858,
8.343661,-0.5304,0.8214,0.0308,-1.3243,-0.8109,1.9339,-0.8890,0.8160,-0.1641,
8.363791,-0.3413,0.6682,-0.1258,-1.3243,-0.8109,1.9339,-0.8890,0.8160,-0.1641,
8.366502,-0.3413,0.6682,-0.1258,0.5528,-2.3461,0.1351,-0.8890,0.8160,-0.1641,
8.368297,-0.3413,0.6682,-0.1258,0.5528,-2.3461,0.1351,-0.8874,1.1484,-0.2381,
8.389328,-0.3413,0.6682,-0.1258,0.5528,-2.3461,0.1351,-0.9502,1.1297,-0.3174,
8.403373,-0.2712,0.5428,-0.1507,0.5528,-2.3461,0.1351,-0.9502,1.1297,-0.3174,
8.406324,-0.2712,0.5428,-0.1507,1.2796,-3.5785,-0.2576,-0.9502,1.1297,-0.3174,
8.408108,-0.2712,0.5428,-0.1507,1.2796,-3.5785,-0.2576,-1.0045,0.6887,-0.3936,
8.423537,-0.2712,0.5428,-0.1507,1.2796,-3.5785,-0.2576,-0.9955,0.1763,-0.3734,
8.443117,-0.2822,0.5235,-0.0897,1.2796,-3.5785,-0.2576,-0.9955,0.1763,-0.3734,
8.445345,-0.2822,0.5235,-0.0897,1.2886,-3.7499,0.0545,-0.9955,0.1763,-0.3734,
8.447023,-0.2822,0.5235,-0.0897,1.2886,-3.7499,0.0545,-0.8554,-0.1156,-0.2429,
8.463833,-0.2822,0.5235,-0.0897,1.2886,-3.7499,0.0545,-0.6152,-0.1481,-0.0868,
8.483378,-0.2924,0.6296,-0.1051,1.2886,-3.7499,0.0545,-0.6152,-0.1481,-0.0868,
8.485391,-0.2924,0.6296,-0.1051,1.2505,-2.7072,-0.3784,-0.6152,-0.1481,-0.0868,
8.487185,-0.2924,0.6296,-0.1051,1.2505,-2.7072,-0.3784,-0.3489,0.0240,0.0581,
8.503984,-0.2924,0.6296,-0.1051,1.2505,-2.7072,-0.3784,-0.1108,0.3095,0.1214,
8.522922,-0.3887,0.7268,-0.2077,1.2505,-2.7072,-0.3784,-0.1108,0.3095,0.1214,
8.525210,-0.3887,0.7268,-0.2077,0.2714,-1.7746,-1.4382,-0.1108,0.3095,0.1214,
8.527056,-0.3887,0.7268,-0.2077,0.2714,-1.7746,-1.4382,-0.0453,0.5539,0.1822,
8.543040,-0.3887,0.7268,-0.2077,0.2714,-1.7746,-1.4382,-0.1454,0.6599,0.1875,
8.563254,-0.4434,0.8348,-0.2475,0.2714,-1.7746,-1.4382,-0.1454,0.6599,0.1875,
8.566120,-0.4434,0.8348,-0.2475,-0.3460,-0.7486,-1.7646,-0.1454,0.6599,0.1875,
8.568407,-0.4434,0.8348,-0.2475,-0.3460,-0.7486,-1.7646,-0.3105,0.4767,0.2162,
8.586882,-0.4434,0.8348,-0.2475,-0.3460,-0.7486,-1.7646,-0.4144,0.3526,0.2184,
8.602993,-0.5275,1.0043,-0.2228,-0.3460,-0.7486,-1.7646,-0.4144,0.3526,0.2184,
8.605500,-0.5275,1.0043,-0.2228,-1.2375,0.8818,-1.5373,-0.4144,0.3526,0.2184,
8.607467,-0.5275,1.0043,-0.2228,-1.2375,0.8818,-1.5373,-0.4277,0.1742,0.2061,
8.623031,-0.5275,1.0043,-0.2228,-1.2375,0.8818,-1.5373,-0.3888,0.0703,0.1886,
8.643051,-0.6577,1.1758,-0.2673,-1.2375,0.8818,-1.5373,-0.3888,0.0703,0.1886,
8.646490,-0.6577,1.1758,-0.2673,-2.5873,2.5223,-2.1004,-0.3888,0.0703,0.1886,
8.648739,-0.6577,1.1758,-0.2673,-2.5873,2.5223,-2.1004,-0.2764,0.0996,0.1864,
8.662526,-0.6577,1.1758,-0.2673,-2.5873,2.5223,-2.1004,-0.1928,0.2312,0.1651,
8.683309,-0.6696,1.0928,-0.3757,-2.5873,2.5223,-2.1004,-0.1928,0.2312,0.1651,
8.685117,-0.6696,1.0928,-0.3757,-2.7710,1.6769,-3.2226,-0.1928,0.2312,0.1651,
8.686172,-0.6696,1.0928,-0.3757,-2.7710,1.6769,-3.2226,-0.1198,0.1678,0.1449,
8.702889,-0.6696,1.0928,-0.3757,-2.7710,1.6769,-3.2226,0.1694,-0.0304,0.2178,
8.723356,-0.6120,1.2943,-0.1292,-2.7710,1.6769,-3.2226,0.1694,-0.0304,0.2178,
8.725721,-0.6120,1.2943,-0.1292,-2.2727,3.6254,-0.7875,0.1694,-0.0304,0.2178,
8.727712,-0.6120,1.2943,-0.1292,-2.2727,3.6254,-0.7875,0.6567,0.2983,0.2093,
8.743769,-0.6120,1.2943,-0.1292,-2.2727,3.6254,-0.7875,1.0488,0.6045,0.0197,
8.763128,-0.3775,1.0163,0.0645,-2.2727,3.6254,-0.7875,1.0488,0.6045,0.0197,
8.766109,-0.3775,1.0163,0.0645,-0.0278,0.9065,1.4856,1.0488,0.6045,0.0197,
8.768039,-0.3775,1.0163,0.0645,-0.0278,0.9065,1.4856,1.2538,0.1039,-0.1609,
8.786589,-0.3775,1.0163,0.0645,-0.0278,0.9065,1.4856,1.2421,-1.1601,-0.2690,
8.801996,-0.3112,1.1260,0.1097,-0.0278,0.9065,1.4856,1.2421,-1.1601,-0.2690,
8.804102,-0.3112,1.1260,0.1097,0.7230,2.0663,2.2987,1.2421,-1.1601,-0.2690,
8.805257,-0.3112,1.1260,0.1097,0.7230,2.0663,2.2987,0.9774,-2.8389,-0.2716,
8.823136,-0.3112,1.1260,0.1097,0.7230,2.0663,2.2987,0.4613,-3.9452,-0.3835,
8.843204,-0.2289,1.2286,0.1412,0.7230,2.0663,2.2987,0.4613,-3.9452,-0.3835,
8.845414,-0.2289,1.2286,0.1412,1.7986,3.1563,2.3347,0.4613,-3.9452,-0.3835,
8.847191,-0.2289,1.2286,0.1412,1.7986,3.1563,2.3347,-0.2072,-3.2965,-0.4879,
8.863319,-0.2289,1.2286,0.1412,1.7986,3.1563,2.3347,-0.4021,-1.3161,-0.2610,
8.882922,-0.2204,0.9733,0.2861,1.7986,3.1563,2.3347,-0.4021,-1.3161,-0.2610,
8.885126,-0.2204,0.9733,0.2861,2.0818,0.7086,3.2657,-0.4021,-1.3161,-0.2610,
8.886914,-0.2204,0.9733,0.2861,2.0818,0.7086,3.2657,-0.2913,0.3313,0.0389,
8.902076,-0.2204,0.9733,0.2861,2.0818,0.7086,3.2657,-0.0969,1.0349,0.3009,
8.923066,-0.1173,0.7595,0.1116,2.0818,0.7086,3.2657,-0.0969,1.0349,0.3009,
8.925185,-0.1173,0.7595,0.1116,2.9720,-1.4432,1.5549,-0.0969,1.0349,0.3009,
8.927040,-0.1173,0.7595,0.1116,2.9720,-1.4432,1.5549,-0.0676,1.2842,0.3734,
8.942138,-0.1173,0.7595,0.1116,2.9720,-1.4432,1.5549,-0.0410,1.3715,0.3904,
8.962996,-0.1713,0.5956,-0.0039,2.9720,-1.4432,1.5549,-0.0410,1.3715,0.3904,
8.965300,-0.1713,0.5956,-0.0039,2.2774,-3.1124,0.6172,-0.0410,1.3715,0.3904,
8.967093,-0.1713,0.5956,-0.0039,2.2774,-3.1124,0.6172,0.0650,1.5819,0.3883,
8.981959,-0.1713,0.5956,-0.0039,2.2774,-3.1124,0.6172,0.9694,3.5116,0.1103,
9.002721,-0.1996,0.5184,-0.0630,2.2774,-3.1124,0.6172,0.9694,3.5116,0.1103,
9.005396,-0.1996,0.5184,-0.0630,1.8169,-3.8872,0.6134,0.9694,3.5116,0.1103,
9.007169,-0.1996,0.5184,-0.0630,1.8169,-3.8872,0.6134,1.3832,3.0291,0.3872,
9.023386,-0.1996,0.5184,-0.0630,1.8169,-3.8872,0.6134,1.3374,2.1289,0.1443,
9.042239,-0.4029,0.5463,-0.4307,1.8169,-3.8872,0.6134,1.3374,2.1289,0.1443,
9.044884,-0.4029,0.5463,-0.4307,-0.4393,-3.5620,-2.1293,1.3374,2.1289,0.1443,
9.047088,-0.4029,0.5463,-0.4307,-0.4393,-3.5620,-2.1293,1.0988,1.4663,-0.1534,
9.061600,-0.4029,0.5463,-0.4307,-0.4393,-3.5620,-2.1293,0.4858,0.5657,-0.0852,
9.082658,-0.1845,0.5482,-0.4581,-0.4393,-3.5620,-2.1293,0.4858,0.5657,-0.0852,
9.086216,-0.1845,0.5482,-0.4581,1.6501,-3.4533,-1.9757,0.4858,0.5657,-0.0852,
9.087956,-0.1845,0.5482,-0.4581,1.6501,-3.4533,-1.9757,-0.0522,-0.1784,-0.0778,
9.102382,-0.1845,0.5482,-0.4581,1.6501,-3.4533,-1.9757,-0.3537,-0.7835,-0.0112,
9.121834,-0.2018,0.8717,-0.5187,1.6501,-3.4533,-1.9757,-0.3537,-0.7835,-0.0112,
9.124704,-0.2018,0.8717,-0.5187,1.5427,-0.2970,-2.7079,-0.3537,-0.7835,-0.0112,
9.126407,-0.2018,0.8717,-0.5187,1.5427,-0.2970,-2.7079,-0.5401,-0.9523,0.0202,
9.142267,-0.2018,0.8717,-0.5187,1.5427,-0.2970,-2.7079,-0.5023,-0.3766,-0.0117,
9.162170,-0.5380,0.9406,-0.4661,1.5427,-0.2970,-2.7079,-0.5023,-0.3766,-0.0117,
9.164440,-0.5380,0.9406,-0.4661,-1.6900,0.3498,-2.4001,-0.5023,-0.3766,-0.0117,
9.166285,-0.5380,0.9406,-0.4661,-1.6900,0.3498,-2.4001,-0.1475,0.2312,-0.0405,
9.182043,-0.5380,0.9406,-0.4661,-1.6900,0.3498,-2.4001,-0.0895,-0.3100,0.0772,
9.202088,-0.5680,1.1316,-0.4292,-1.6900,0.3498,-2.4001,-0.0895,-0.3100,0.0772,
9.204655,-0.5680,1.1316,-0.4292,-1.9878,2.2092,-2.0862,-0.0895,-0.3100,0.0772,
9.206573,-0.5680,1.1316,-0.4292,-1.9878,2.2092,-2.0862,-0.4155,-0.6205,0.0836,
9.221903,-0.5680,1.1316,-0.4292,-1.9878,2.2092,-2.0862,-0.0330,0.9859,-0.0597,
9.241618,-0.6958,0.9032,-0.6357,-1.9878,2.2092,-2.0862,-0.0330,0.9859,-0.0597,
9.244817,-0.6958,0.9032,-0.6357,-3.2587,-0.0495,-4.1629,-0.0330,0.9859,-0.0597,
9.246285,-0.6958,0.9032,-0.6357,-3.2587,-0.0495,-4.1629,0.6935,1.7699,-0.5784,
9.261709,-0.6958,0.9032,-0.6357,-3.2587,-0.0495,-4.1629,0.8112,0.4698,-0.6956,
9.281052,-0.5553,1.1541,-0.4275,-3.2587,-0.0495,-4.1629,0.8112,0.4698,-0.6956,
9.283933,-0.5553,1.1541,-0.4275,-1.7578,2.5702,-1.6981,0.8112,0.4698,-0.6956,
9.285920,-0.5553,1.1541,-0.4275,-1.7578,2.5702,-1.6981,0.3292,-1.3806,0.0842,
9.303495,-0.5553,1.1541,-0.4275,-1.7578,2.5702,-1.6981,-0.4389,-3.0110,0.2131,
9.322508,-0.1292,1.3925,0.1449,-1.7578,2.5702,-1.6981,-0.4389,-3.0110,0.2131,
9.327427,-0.1292,1.3925,0.1449,2.5717,4.8807,3.5624,-0.4389,-3.0110,0.2131,
9.329498,-0.1292,1.3925,0.1449,2.5717,4.8807,3.5624,-0.6163,-3.9037,-0.0373,
9.341315,-0.1292,1.3925,0.1449,2.5717,4.8807,3.5624,-0.6189,-3.7284,0.0586,
9.361731,-0.0142,1.3092,0.2111,2.5717,4.8807,3.5624,-0.6189,-3.7284,0.0586,
9.364011,-0.0142,1.3092,0.2111,3.9599,4.0198,3.3882,-0.6189,-3.7284,0.0586,
9.365617,-0.0142,1.3092,0.2111,3.9599,4.0198,3.3882,-0.2376,-1.2954,0.1774,
9.381377,-0.0142,1.3092,0.2111,3.9599,4.0198,3.3882,0.1965,0.1561,-0.0059,
9.401779,-0.4275,1.1372,0.2514,3.9599,4.0198,3.3882,0.1965,0.1561,-0.0059,
9.403986,-0.4275,1.1372,0.2514,-0.0928,2.3190,3.6829,0.1965,0.1561,-0.0059,
9.405729,-0.4275,1.1372,0.2514,-0.0928,2.3190,3.6829,0.1150,-0.2306,0.0442,
9.422296,-0.4275,1.1372,0.2514,-0.0928,2.3190,3.6829,-0.0394,-0.4607,-0.0320,
9.440922,-0.4139,0.9467,0.1204,-0.0928,2.3190,3.6829,-0.0394,-0.4607,-0.0320,
9.444010,-0.4139,0.9467,0.1204,0.0558,0.4524,2.3563,-0.0394,-0.4607,-0.0320,
9.445845,-0.4139,0.9467,0.1204,0.0558,0.4524,2.3563,-0.1715,-0.5843,0.0485,
9.461441,-0.4139,0.9467,0.1204,0.0558,0.4524,2.3563,-0.3750,0.2072,0.1135,
9.481807,-0.3797,0.6726,-0.0682,0.0558,0.4524,2.3563,-0.3750,0.2072,0.1135,
9.484145,-0.3797,0.6726,-0.0682,0.3584,-2.2699,0.3378,-0.3750,0.2072,0.1135,
9.485810,-0.3797,0.6726,-0.0682,0.3584,-2.2699,0.3378,-0.5806,1.4179,0.1273,
9.502345,-0.3797,0.6726,-0.0682,0.3584,-2.2699,0.3378,-0.6930,1.9926,0.0218,
9.521019,-0.3110,0.5516,-0.1007,0.3584,-2.2699,0.3378,-0.6930,1.9926,0.0218,
9.523783,-0.3110,0.5516,-0.1007,0.9349,-3.4932,0.0676,-0.6930,1.9926,0.0218,
9.525229,-0.3110,0.5516,-0.1007,0.9349,-3.4932,0.0676,-0.7100,1.9436,-0.1092,
9.541055,-0.3110,0.5516,-0.1007,0.9349,-3.4932,0.0676,-0.8059,1.4472,-0.1326,
9.561083,-0.3012,0.4610,-0.1906,0.9349,-3.4932,0.0676,-0.8059,1.4472,-0.1326,
9.563384,-0.3012,0.4610,-0.1906,1.0014,-4.3946,-0.8145,-0.8059,1.4472,-0.1326,
9.565226,-0.3012,0.4610,-0.1906,1.0014,-4.3946,-0.8145,-0.9694,0.8815,-0.0927,
9.581064,-0.3012,0.4610,-0.1906,1.0014,-4.3946,-0.8145,-1.0445,0.5071,-0.0980,
9.600821,-0.3430,0.5255,-0.1351,1.0014,-4.3946,-0.8145,-1.0445,0.5071,-0.0980,
9.603430,-0.3430,0.5255,-0.1351,0.5995,-3.7851,-0.5201,-1.0445,0.5071,-0.0980,
9.604943,-0.3430,0.5255,-0.1351,0.5995,-3.7851,-0.5201,-0.9476,0.3888,-0.1055,
9.621313,-0.3430,0.5255,-0.1351,0.5995,-3.7851,-0.5201,-0.7095,0.3808,-0.0842,
9.641339,-0.4090,0.6469,-0.1234,0.5995,-3.7851,-0.5201,-0.7095,0.3808,-0.0842,
9.644035,-0.4090,0.6469,-0.1234,-0.0235,-2.6028,-0.6398,-0.7095,0.3808,-0.0842,
9.646025,-0.4090,0.6469,-0.1234,-0.0235,-2.6028,-0.6398,-0.4091,0.3680,0.0032,
9.661135,-0.4090,0.6469,-0.1234,-0.0235,-2.6028,-0.6398,-0.1635,0.3728,0.1049,
9.681096,-0.4437,0.8270,-0.2191,-0.0235,-2.6028,-0.6398,-0.1635,0.3728,0.1049,
9.684175,-0.4437,0.8270,-0.2191,-0.3907,-0.8530,-1.6218,-0.1635,0.3728,0.1049,
9.686159,-0.4437,0.8270,-0.2191,-0.3907,-0.8530,-1.6218,-0.0820,0.4059,0.1529,
9.701198,-0.4437,0.8270,-0.2191,-0.3907,-0.8530,-1.6218,-0.1641,0.3936,0.1571,
9.720092,-0.5294,1.0574,-0.2587,-0.3907,-0.8530,-1.6218,-0.1641,0.3936,0.1571,
9.722249,-0.5294,1.0574,-0.2587,-1.2712,1.3915,-1.9382,-0.1641,0.3936,0.1571,
9.724920,-0.5294,1.0574,-0.2587,-1.2712,1.3915,-1.9382,-0.2935,0.2951,0.1182,
9.740522,-0.5294,1.0574,-0.2587,-1.2712,1.3915,-1.9382,-0.4005,0.2759,0.0847,
9.760369,-0.6367,1.2609,-0.2922,-1.2712,1.3915,-1.9382,-0.4005,0.2759,0.0847,
9.763477,-0.6367,1.2609,-0.2922,-2.3651,3.3624,-2.3463,-0.4005,0.2759,0.0847,
9.765452,-0.6367,1.2609,-0.2922,-2.3651,3.3624,-2.3463,-0.4213,0.2791,0.0437,
9.780911,-0.6367,1.2609,-0.2922,-2.3651,3.3624,-2.3463,-0.4155,0.3292,0.0581,
9.800647,-0.6235,1.1294,-0.3760,-2.3651,3.3624,-2.3463,-0.4155,0.3292,0.0581,
9.803863,-0.6235,1.1294,-0.3760,-2.2597,2.0587,-3.2709,-0.4155,0.3292,0.0581,
9.805890,-0.6235,1.1294,-0.3760,-2.2597,2.0587,-3.2709,-0.3862,0.2876,0.0602,
9.820014,-0.6235,1.1294,-0.3760,-2.2597,2.0587,-3.2709,-0.1406,0.0613,0.1491,
9.840382,-0.6125,1.3732,-0.1244,-2.2597,2.0587,-3.2709,-0.1406,0.0613,0.1491,
9.842681,-0.6125,1.3732,-0.1244,-2.1923,4.4281,-0.8729,-0.1406,0.0613,0.1491,
9.844570,-0.6125,1.3732,-0.1244,-2.1923,4.4281,-0.8729,0.5896,0.3265,0.2056,
9.861099,-0.6125,1.3732,-0.1244,-2.1923,4.4281,-0.8729,1.1223,0.5475,0.0511,
9.880367,-0.3288,0.9675,0.0318,-2.1923,4.4281,-0.8729,1.1223,0.5475,0.0511,
9.882719,-0.3288,0.9675,0.0318,0.5318,0.4502,1.0317,1.1223,0.5475,0.0511,
9.884447,-0.3288,0.9675,0.0318,0.5318,0.4502,1.0317,1.3550,0.1172,-0.1071,
9.902526,-0.3288,0.9675,0.0318,0.5318,0.4502,1.0317,1.3135,-1.0221,-0.1923,
9.920398,-0.2937,1.0561,0.0994,0.5318,0.4502,1.0317,1.3135,-1.0221,-0.1923,
9.922431,-0.2937,1.0561,0.0994,0.9497,1.3924,2.1053,1.3135,-1.0221,-0.1923,
9.924247,-0.2937,1.0561,0.0994,0.9497,1.3924,2.1053,1.1057,-2.5364,-0.1992,
9.941254,-0.2937,1.0561,0.0994,0.9497,1.3924,2.1053,0.7931,-3.7306,-0.3127,
9.961083,-0.2323,1.1426,0.0594,0.9497,1.3924,2.1053,0.7931,-3.7306,-0.3127,
9.964315,-0.2323,1.1426,0.0594,1.7776,2.3219,1.5578,0.7931,-3.7306,-0.3127,
9.965963,-0.2323,1.1426,0.0594,1.7776,2.3219,1.5578,0.2626,-3.4749,-0.3904,
9.980458,-0.2323,1.1426,0.0594,1.7776,2.3219,1.5578,-0.0011,-1.7987,-0.2152,
10.000507,-0.2279,0.9298,0.2590,1.7776,2.3219,1.5578,-0.0011,-1.7987,-0.2152,
10.003959,-0.2279,0.9298,0.2590,1.9960,0.2831,3.1072,-0.0011,-1.7987,-0.2152,
10.006102,-0.2279,0.9298,0.2590,1.9960,0.2831,3.1072,-0.0469,-0.1294,-0.0298,
10.020540,-0.2279,0.9298,0.2590,1.9960,0.2831,3.1072,0.0490,0.5694,0.1385,
10.040644,-0.1273,0.7014,0.1510,1.9960,0.2831,3.1072,0.0490,0.5694,0.1385,
10.042904,-0.1273,0.7014,0.1510,2.9436,-1.9726,2.0696,0.0490,0.5694,0.1385,
10.044704,-0.1273,0.7014,0.1510,2.9436,-1.9726,2.0696,0.0969,0.7814,0.2258,
10.060095,-0.1273,0.7014,0.1510,2.9436,-1.9726,2.0696,0.0570,1.0488,0.2626,
10.079878,-0.1417,0.6029,0.0125,2.9436,-1.9726,2.0696,0.0570,1.0488,0.2626,
10.081708,-0.1417,0.6029,0.0125,2.6909,-2.9758,0.8905,0.0570,1.0488,0.2626,
10.083398,-0.1417,0.6029,0.0125,2.6909,-2.9758,0.8905,0.0602,1.2954,0.2988,
10.099516,-0.1417,0.6029,0.0125,2.6909,-2.9758,0.8905,0.1816,1.5670,0.2807,
10.119634,-0.2607,0.5482,0.0078,2.6909,-2.9758,0.8905,0.1816,1.5670,0.2807,
10.121285,-0.2607,0.5482,0.0078,1.3705,-3.5539,1.1165,0.1816,1.5670,0.2807,
10.122570,-0.2607,0.5482,0.0078,1.3705,-3.5539,1.1165,0.6786,2.2387,0.0980,
10.139413,-0.2607,0.5482,0.0078,1.3705,-3.5539,1.1165,1.5095,2.9375,-0.1523,
10.160337,-0.3884,0.5314,-0.3088,1.3705,-3.5539,1.1165,1.5095,2.9375,-0.1523,
10.164889,-0.3884,0.5314,-0.3088,-0.0177,-3.6515,-1.2003,1.5095,2.9375,-0.1523,
10.167514,-0.3884,0.5314,-0.3088,-0.0177,-3.6515,-1.2003,1.4807,2.0895,-0.0554,
10.179694,-0.3884,0.5314,-0.3088,-0.0177,-3.6515,-1.2003,0.7286,0.5635,0.0389,
10.200395,-0.1627,0.5729,-0.5978,-0.0177,-3.6515,-1.2003,0.7286,0.5635,0.0389,
10.202973,-0.1627,0.5729,-0.5978,2.0865,-3.1492,-3.4461,0.7286,0.5635,0.0389,
10.204825,-0.1627,0.5729,-0.5978,2.0865,-3.1492,-3.4461,0.0160,-0.6115,-0.0692,
10.222071,-0.1627,0.5729,-0.5978,2.0865,-3.1492,-3.4461,-0.1886,-0.7590,-0.0916,
10.240231,-0.3982,0.9154,-0.6525,2.0865,-3.1492,-3.4461,-0.1886,-0.7590,-0.0916,
10.244254,-0.3982,0.9154,-0.6525,-0.1311,0.2147,-4.0986,-0.1886,-0.7590,-0.0916,
10.246108,-0.3982,0.9154,-0.6525,-0.1311,0.2147,-4.0986,-0.1214,-0.5880,-0.0389,
10.259301,-0.3982,0.9154,-0.6525,-0.1311,0.2147,-4.0986,0.0538,-0.5662,0.0325,
10.279390,-0.5419,1.0324,-0.4200,-0.1311,0.2147,-4.0986,0.0538,-0.5662,0.0325,
10.282132,-0.5419,1.0324,-0.4200,-1.4850,1.3695,-1.8787,0.0538,-0.5662,0.0325,
10.283754,-0.5419,1.0324,-0.4200,-1.4850,1.3695,-1.8787,-0.2706,-0.9545,0.1598,
10.300182,-0.5419,1.0324,-0.4200,-1.4850,1.3695,-1.8787,-0.5657,-0.3020,0.0868,
10.319142,-0.6457,1.2037,-0.3501,-1.4850,1.3695,-1.8787,-0.5657,-0.3020,0.0868,
10.321426,-0.6457,1.2037,-0.3501,-2.4919,2.9941,-1.4366,-0.5657,-0.3020,0.0868,
10.323432,-0.6457,1.2037,-0.3501,-2.4919,2.9941,-1.4366,0.0554,1.5851,-0.0197,
10.339618,-0.6457,1.2037,-0.3501,-2.4919,2.9941,-1.4366,0.7340,1.9569,-0.4059,
10.359329,-0.9386,0.9108,-0.8981,-2.4919,2.9941,-1.4366,0.7340,1.9569,-0.4059,
10.361619,-0.9386,0.9108,-0.8981,-5.4415,0.1908,-6.4012,0.7340,1.9569,-0.4059,
10.363827,-0.9386,0.9108,-0.8981,-5.4415,0.1908,-6.4012,0.9902,0.7670,-0.5577,
10.379485,-0.9386,0.9108,-0.8981,-5.4415,0.1908,-6.4012,0.6195,-0.6770,-0.0005,
10.398561,-0.2680,1.0512,-0.1625,-5.4415,0.1908,-6.4012,0.6195,-0.6770,-0.0005,
10.400924,-0.2680,1.0512,-0.1625,1.2248,1.6922,1.0922,0.6195,-0.6770,-0.0005,
10.402905,-0.2680,1.0512,-0.1625,1.2248,1.6922,1.0922,-0.2642,-2.0741,0.2194,
10.419779,-0.2680,1.0512,-0.1625,1.2248,1.6922,1.0922,-0.7958,-3.1521,0.0836,
10.439557,-0.0789,1.3798,0.1732,1.2248,1.6922,1.0922,-0.7958,-3.1521,0.0836,
10.442107,-0.0789,1.3798,0.1732,3.2762,4.8389,3.7873,-0.7958,-3.1521,0.0836,
10.443878,-0.0789,1.3798,0.1732,3.2762,4.8389,3.7873,-0.9151,-3.4429,0.1300,
10.459471,-0.0789,1.3798,0.1732,3.2762,4.8389,3.7873,-0.0128,-0.0623,0.3430,
10.479319,-0.3418,1.3344,0.5213,3.2762,4.8389,3.7873,-0.0128,-0.0623,0.3430,
10.481983,-0.3418,1.3344,0.5213,0.7481,4.3201,6.7508,-0.0128,-0.0623,0.3430,
10.483812,-0.3418,1.3344,0.5213,0.7481,4.3201,6.7508,0.5438,-0.3776,0.1294,
10.498448,-0.3418,1.3344,0.5213,0.7481,4.3201,6.7508,0.1427,-1.5404,0.1039,
10.518902,-0.7290,1.0097,-0.0423,0.7481,4.3201,6.7508,0.1427,-1.5404,0.1039,
10.520956,-0.7290,1.0097,-0.0423,-3.0240,1.1420,1.1903,0.1427,-1.5404,0.1039,
10.522789,-0.7290,1.0097,-0.0423,-3.0240,1.1420,1.1903,-0.3595,-0.1662,0.0650,
10.539236,-0.7290,1.0097,-0.0423,-3.0240,1.1420,1.1903,-0.5736,1.0605,-0.0495,
10.558836,-0.4192,0.8262,0.1542,-3.0240,1.1420,1.1903,-0.5736,1.0605,-0.0495,
10.561040,-0.4192,0.8262,0.1542,-0.0178,-0.6860,3.0249,-0.5736,1.0605,-0.0495,
10.562932,-0.4192,0.8262,0.1542,-0.0178,-0.6860,3.0249,-0.4629,0.6647,-0.0698,
10.578811,-0.4192,0.8262,0.1542,-0.0178,-0.6860,3.0249,-0.4320,0.3372,-0.0506,
10.599663,-0.3105,0.5419,-0.1493,-0.0178,-0.6860,3.0249,-0.4320,0.3372,-0.0506,
10.603999,-0.3105,0.5419,-0.1493,1.0389,-3.4895,-0.0240,-0.4320,0.3372,-0.0506,
10.605699,-0.3105,0.5419,-0.1493,1.0389,-3.4895,-0.0240,-0.5289,0.8240,-0.1012,
10.619063,-0.3105,0.5419,-0.1493,1.0389,-3.4895,-0.0240,-0.6914,1.2043,-0.2173,
10.638617,-0.2629,0.4417,-0.2033,1.0389,-3.4895,-0.0240,-0.6914,1.2043,-0.2173,
10.640917,-0.2629,0.4417,-0.2033,1.5047,-4.4796,-0.6025,-0.6914,1.2043,-0.2173,
10.642713,-0.2629,0.4417,-0.2033,1.5047,-4.4796,-0.6025,-0.8810,1.0381,-0.2898,
10.658971,-0.2629,0.4417,-0.2033,1.5047,-4.4796,-0.6025,-1.0466,0.5667,-0.2882,
10.678940,-0.2800,0.4742,-0.1402,1.5047,-4.4796,-0.6025,-1.0466,0.5667,-0.2882,
10.681861,-0.2800,0.4742,-0.1402,1.3965,-4.1637,-0.1924,-1.0466,0.5667,-0.2882,
10.683969,-0.2800,0.4742,-0.1402,1.3965,-4.1637,-0.1924,-1.0328,0.1758,-0.2056,
10.699177,-0.2800,0.4742,-0.1402,1.3965,-4.1637,-0.1924,-0.7846,0.0724,-0.0847,
10.718847,-0.3269,0.6567,-0.1234,1.3965,-4.1637,-0.1924,-0.7846,0.0724,-0.0847,
10.720911,-0.3269,0.6567,-0.1234,0.9827,-2.3887,-0.3263,-0.7846,0.0724,-0.0847,
10.722828,-0.3269,0.6567,-0.1234,0.9827,-2.3887,-0.3263,-0.4538,0.1294,0.0160,
10.738300,-0.3269,0.6567,-0.1234,0.9827,-2.3887,-0.3263,-0.2306,0.2637,0.1220,
10.759032,-0.4593,0.7994,-0.2753,0.9827,-2.3887,-0.3263,-0.2306,0.2637,0.1220,
10.760626,-0.4593,0.7994,-0.2753,-0.3458,-1.0133,-1.9034,-0.2306,0.2637,0.1220,
10.761868,-0.4593,0.7994,-0.2753,-0.3458,-1.0133,-1.9034,-0.1891,0.4474,0.2205,
10.778536,-0.4593,0.7994,-0.2753,-0.3458,-1.0133,-1.9034,-0.2610,0.4943,0.2610,
10.798458,-0.5213,0.8912,-0.3010,-0.3458,-1.0133,-1.9034,-0.2610,0.4943,0.2610,
10.801432,-0.5213,0.8912,-0.3010,-1.0477,-0.1553,-2.1414,-0.2610,0.4943,0.2610,
10.803459,-0.5213,0.8912,-0.3010,-1.0477,-0.1553,-2.1414,-0.3393,0.3888,0.2823,
10.818311,-0.5213,0.8912,-0.3010,-1.0477,-0.1553,-2.1414,-0.3553,0.1625,0.2876,
10.838391,-0.6379,1.1507,-0.2531,-1.0477,-0.1553,-2.1414,-0.3553,0.1625,0.2876,
10.840904,-0.6379,1.1507,-0.2531,-2.2997,2.3310,-1.7516,-0.3553,0.1625,0.2876,
10.842845,-0.6379,1.1507,-0.2531,-2.2997,2.3310,-1.7516,-0.2716,0.0799,0.2727,
10.858348,-0.6379,1.1507,-0.2531,-2.2997,2.3310,-1.7516,-0.0533,0.2679,0.2519,
10.877926,-0.7063,1.1314,-0.3293,-2.2997,2.3310,-1.7516,-0.0533,0.2679,0.2519,
10.880303,-0.7063,1.1314,-0.3293,-3.0689,2.0965,-2.5297,-0.0533,0.2679,0.2519,
10.881835,-0.7063,1.1314,-0.3293,-3.0689,2.0965,-2.5297,0.1108,0.5763,0.1997,
10.899172,-0.7063,1.1314,-0.3293,-3.0689,2.0965,-2.5297,0.0224,0.5385,0.1667,
10.918675,-0.7400,1.2887,-0.3276,-3.0689,2.0965,-2.5297,0.0224,0.5385,0.1667,
10.920905,-0.7400,1.2887,-0.3276,-3.4819,3.6124,-2.4042,0.0224,0.5385,0.1667,
10.922735,-0.7400,1.2887,-0.3276,-3.4819,3.6124,-2.4042,-0.0229,0.3121,0.1774,
10.938454,-0.7400,1.2887,-0.3276,-3.4819,3.6124,-2.4042,0.3015,0.5444,0.1156,
10.958201,-0.5055,1.0097,-0.0059,-3.4819,3.6124,-2.4042,0.3015,0.5444,0.1156,
10.961340,-0.5055,1.0097,-0.0059,-1.2508,0.8612,0.8629,0.3015,0.5444,0.1156,
10.963321,-0.5055,1.0097,-0.0059,-1.2508,0.8612,0.8629,0.7457,0.7084,-0.0442,
10.978436,-0.5055,1.0097,-0.0059,-1.2508,0.8612,0.8629,1.0333,0.2354,-0.1832,
10.998821,-0.3384,1.0019,0.0652,-1.2508,0.8612,0.8629,1.0333,0.2354,-0.1832,
11.003192,-0.3384,1.0019,0.0652,0.4077,0.8415,1.9495,1.0333,0.2354,-0.1832,
11.004792,-0.3384,1.0019,0.0652,0.4077,0.8415,1.9495,1.0706,-0.8906,-0.3356,
11.018518,-0.3384,1.0019,0.0652,0.4077,0.8415,1.9495,0.9145,-2.4283,-0.3957,
11.038470,-0.2223,1.2875,0.0782,0.4077,0.8415,1.9495,0.9145,-2.4283,-0.3957,
11.041261,-0.2223,1.2875,0.0782,1.7684,3.7515,2.1751,0.9145,-2.4283,-0.3957,
11.043144,-0.2223,1.2875,0.0782,1.7684,3.7515,2.1751,0.5694,-3.5079,-0.4581,
11.058548,-0.2223,1.2875,0.0782,1.7684,3.7515,2.1751,0.1055,-3.0786,-0.5177,
11.078388,-0.2301,1.0713,0.1571,1.7684,3.7515,2.1751,0.1055,-3.0786,-0.5177,
11.080529,-0.2301,1.0713,0.1571,2.0240,1.7303,2.5266,0.1055,-3.0786,-0.5177,
11.082154,-0.2301,1.0713,0.1571,2.0240,1.7303,2.5266,-0.0746,-1.4530,-0.3260,
11.097458,-0.2301,1.0713,0.1571,2.0240,1.7303,2.5266,-0.0362,-0.0804,-0.0053,
11.117878,-0.1986,0.8551,0.0774,2.0240,1.7303,2.5266,-0.0362,-0.0804,-0.0053,
11.120003,-0.1986,0.8551,0.0774,2.3782,-0.3853,1.5605,-0.0362,-0.0804,-0.0053,
11.121692,-0.1986,0.8551,0.0774,2.3782,-0.3853,1.5605,0.0107,0.8176,0.1928,
11.138247,-0.1986,0.8551,0.0774,2.3782,-0.3853,1.5605,-0.0165,1.4823,0.3270,
11.158236,-0.1884,0.6137,-0.0181,2.3782,-0.3853,1.5605,-0.0165,1.4823,0.3270,
11.160579,-0.1884,0.6137,-0.0181,2.3463,-2.7951,0.8188,-0.0165,1.4823,0.3270,
11.162327,-0.1884,0.6137,-0.0181,2.3463,-2.7951,0.8188,0.0021,1.8823,0.4192,
11.178265,-0.1884,0.6137,-0.0181,2.3463,-2.7951,0.8188,0.2296,2.5428,0.3073,
11.197861,-0.2988,0.5050,0.0156,2.3463,-2.7951,0.8188,0.2296,2.5428,0.3073,
11.201732,-0.2988,0.5050,0.0156,1.0310,-3.9138,1.5494,0.2296,2.5428,0.3073,
11.203689,-0.2988,0.5050,0.0156,1.0310,-3.9138,1.5494,1.0733,3.6741,0.2264,
11.217759,-0.2988,0.5050,0.0156,1.0310,-3.9138,1.5494,0.8591,2.1401,0.3473,
11.238265,-0.2475,0.4903,-0.2924,1.0310,-3.9138,1.5494,0.8591,2.1401,0.3473,
11.240568,-0.2475,0.4903,-0.2924,1.2262,-4.0311,-0.6848,0.8591,2.1401,0.3473,
11.242505,-0.2475,0.4903,-0.2924,1.2262,-4.0311,-0.6848,0.5699,0.9619,0.0511,
11.257383,-0.2475,0.4903,-0.2924,1.2262,-4.0311,-0.6848,0.6141,0.6727,-0.2205,
11.277698,-0.2685,0.5788,-0.4586,1.2262,-4.0311,-0.6848,0.6141,0.6727,-0.2205,
11.280127,-0.2685,0.5788,-0.4586,0.9738,-3.0967,-1.9865,0.6141,0.6727,-0.2205,
11.282041,-0.2685,0.5788,-0.4586,0.9738,-3.0967,-1.9865,0.2993,0.1342,-0.0272,
11.298092,-0.2685,0.5788,-0.4586,0.9738,-3.0967,-1.9865,-0.0011,-0.2887,-0.0868,
11.317461,-0.1244,0.8284,-0.5055,0.9738,-3.0967,-1.9865,-0.0011,-0.2887,-0.0868,
11.319723,-0.1244,0.8284,-0.5055,2.4143,-0.6264,-2.4053,-0.0011,-0.2887,-0.0868,
11.321572,-0.1244,0.8284,-0.5055,2.4143,-0.6264,-2.4053,-0.2301,-0.6748,-0.0847,
11.337261,-0.1244,0.8284,-0.5055,2.4143,-0.6264,-2.4053,-0.2802,-0.5939,-0.0469,
11.358142,-0.4395,0.8697,-0.5438,2.4143,-0.6264,-2.4053,-0.2802,-0.5939,-0.0469,
11.362331,-0.4395,0.8697,-0.5438,-0.5955,-0.2304,-2.9282,-0.2802,-0.5939,-0.0469,
11.364503,-0.4395,0.8697,-0.5438,-0.5955,-0.2304,-2.9282,-0.0197,-0.0831,-0.0293,
11.378350,-0.4395,0.8697,-0.5438,-0.5955,-0.2304,-2.9282,-0.0240,-0.3702,0.0597,
11.398317,-0.5697,0.9567,-0.4226,-0.5955,-0.2304,-2.9282,-0.0240,-0.3702,0.0597,
11.402314,-0.5697,0.9567,-0.4226,-1.8489,0.6317,-1.7404,-0.0240,-0.3702,0.0597,
11.404682,-0.5697,0.9567,-0.4226,-1.8489,0.6317,-1.7404,-0.4336,-0.8570,-0.0501,
11.417091,-0.5697,0.9567,-0.4226,-1.8489,0.6317,-1.7404,-0.2573,0.4368,-0.2589,
11.437476,-0.7183,1.0109,-0.4644,-1.8489,0.6317,-1.7404,-0.2573,0.4368,-0.2589,
11.439986,-0.7183,1.0109,-0.4644,-3.2304,1.1548,-2.3017,-0.2573,0.4368,-0.2589,
11.441816,-0.7183,1.0109,-0.4644,-3.2304,1.1548,-2.3017,0.4501,1.6277,-0.3558,
11.457330,-0.7183,1.0109,-0.4644,-3.2304,1.1548,-2.3017,0.8511,0.7563,-0.5108,
11.477483,-0.6604,1.2220,-0.6205,-3.2304,1.1548,-2.3017,0.8511,0.7563,-0.5108,
11.479839,-0.6604,1.2220,-0.6205,-2.6276,3.3539,-3.4246,0.8511,0.7563,-0.5108,
11.481696,-0.6604,1.2220,-0.6205,-2.6276,3.3539,-3.4246,0.7979,-0.6780,-0.1097,
11.497544,-0.6604,1.2220,-0.6205,-2.6276,3.3539,-3.4246,-0.0410,-2.1417,0.1976,
11.517293,-0.1722,1.3527,0.0481,-2.6276,3.3539,-3.4246,-0.0410,-2.1417,0.1976,
11.519534,-0.1722,1.3527,0.0481,2.2910,4.6687,3.0376,-0.0410,-2.1417,0.1976,
11.521168,-0.1722,1.3527,0.0481,2.2910,4.6687,3.0376,-0.6040,-2.8549,0.0921,
11.537412,-0.1722,1.3527,0.0481,2.2910,4.6687,3.0376,-0.4969,-2.3830,0.1310,
11.557495,-0.1295,1.2540,0.3459,2.2910,4.6687,3.0376,-0.4969,-2.3830,0.1310,
11.559633,-0.1295,1.2540,0.3459,2.9077,3.6335,5.3397,-0.4969,-2.3830,0.1310,
11.561241,-0.1295,1.2540,0.3459,2.9077,3.6335,5.3397,0.4964,0.2115,0.0921,
11.576690,-0.1295,1.2540,0.3459,2.9077,3.6335,5.3397,0.4288,-1.0200,-0.0027,
11.597413,-0.5585,1.2381,0.0767,2.9077,3.6335,5.3397,0.4288,-1.0200,-0.0027,
11.599503,-0.5585,1.2381,0.0767,-1.2787,3.5078,2.7935,0.4288,-1.0200,-0.0027,
11.601292,-0.5585,1.2381,0.0767,-1.2787,3.5078,2.7935,0.0133,-1.4136,0.0389,
11.618431,-0.5585,1.2381,0.0767,-1.2787,3.5078,2.7935,-0.2983,-0.3888,0.0368,
11.636687,-0.6027,0.8780,-0.1029,-1.2787,3.5078,2.7935,-0.2983,-0.3888,0.0368,
11.638931,-0.6027,0.8780,-0.1029,-1.6545,-0.0383,0.8326,-0.2983,-0.3888,0.0368,
11.640745,-0.6027,0.8780,-0.1029,-1.6545,-0.0383,0.8326,-0.4677,1.3236,-0.0181,
11.656713,-0.6027,0.8780,-0.1029,-1.6545,-0.0383,0.8326,-0.4346,1.4823,-0.1971,
11.676685,-0.3953,0.6811,0.0479,-1.6545,-0.0383,0.8326,-0.4346,1.4823,-0.1971,
11.678995,-0.3953,0.6811,0.0479,0.3195,-1.9944,2.3206,-0.4346,1.4823,-0.1971,
11.680761,-0.3953,0.6811,0.0479,0.3195,-1.9944,2.3206,-0.3361,0.0847,-0.1763,
11.697858,-0.3953,0.6811,0.0479,0.3195,-1.9944,2.3206,-0.4698,-0.5689,-0.0895,
11.716495,-0.2485,0.5267,-0.1512,0.3195,-1.9944,2.3206,-0.4698,-0.5689,-0.0895,
11.719479,-0.2485,0.5267,-0.1512,1.8210,-3.5137,0.1889,-0.4698,-0.5689,-0.0895,
11.721459,-0.2485,0.5267,-0.1512,1.8210,-3.5137,0.1889,-0.6690,-0.2626,-0.0959,
11.737346,-0.2485,0.5267,-0.1512,1.8210,-3.5137,0.1889,-0.8533,0.2764,-0.2210,
11.757188,-0.2951,0.5267,-0.1671,1.8210,-3.5137,0.1889,-0.8533,0.2764,-0.2210,
11.761587,-0.2951,0.5267,-0.1671,1.4190,-3.5330,-0.2294,-0.8533,0.2764,-0.2210,
11.763943,-0.2951,0.5267,-0.1671,1.4190,-3.5330,-0.2294,-0.9912,0.5811,-0.2349,
11.777102,-0.2951,0.5267,-0.1671,1.4190,-3.5330,-0.2294,-1.0051,0.5017,-0.1422,
11.797574,-0.3181,0.5912,-0.1331,1.4190,-3.5330,-0.2294,-1.0051,0.5017,-0.1422,
11.800063,-0.3181,0.5912,-0.1331,1.2316,-2.9195,-0.1497,-1.0051,0.5017,-0.1422,
11.801866,-0.3181,0.5912,-0.1331,1.2316,-2.9195,-0.1497,-0.8932,0.3798,-0.0533,
11.816905,-0.3181,0.5912,-0.1331,1.2316,-2.9195,-0.1497,-0.6802,0.4037,0.0320,
11.836741,-0.4121,0.6828,-0.1832,1.2316,-2.9195,-0.1497,-0.6802,0.4037,0.0320,
11.838914,-0.4121,0.6828,-0.1832,0.2972,-2.0527,-0.8468,-0.6802,0.4037,0.0320,
11.840779,-0.4121,0.6828,-0.1832,0.2972,-2.0527,-0.8468,-0.5060,0.6253,0.0762,
11.856231,-0.4121,0.6828,-0.1832,0.2972,-2.0527,-0.8468,-0.3957,0.6999,0.1273,
11.876613,-0.4512,0.7938,-0.2663,0.2972,-2.0527,-0.8468,-0.3957,0.6999,0.1273,
11.879400,-0.4512,0.7938,-0.2663,-0.1458,-0.9999,-1.7045,-0.3957,0.6999,0.1273,
11.881183,-0.4512,0.7938,-0.2663,-0.1458,-0.9999,-1.7045,-0.3510,0.5555,0.1949,
11.898570,-0.4512,0.7938,-0.2663,-0.1458,-0.9999,-1.7045,-0.3649,0.4091,0.2045,
11.915979,-0.4735,0.9230,-0.3547,-0.1458,-0.9999,-1.7045,-0.3649,0.4091,0.2045,
11.918559,-0.4735,0.9230,-0.3547,-0.4439,0.2273,-2.5785,-0.3649,0.4091,0.2045,
11.920515,-0.4735,0.9230,-0.3547,-0.4439,0.2273,-2.5785,-0.3856,0.2189,0.1870,
11.937057,-0.4735,0.9230,-0.3547,-0.4439,0.2273,-2.5785,-0.3451,0.0202,0.1683,
11.956523,-0.6359,1.1394,-0.2988,-0.4439,0.2273,-2.5785,-0.3451,0.0202,0.1683,
11.960160,-0.6359,1.1394,-0.2988,-2.1028,2.3067,-2.1392,-0.3451,0.0202,0.1683,
11.961869,-0.6359,1.1394,-0.2988,-2.1028,2.3067,-2.1392,-0.1545,0.0575,0.1411,
11.975872,-0.6359,1.1394,-0.2988,-2.1028,2.3067,-2.1392,0.0762,0.2903,0.1459,
11.996895,-0.6753,1.0161,-0.3386,-2.1028,2.3067,-2.1392,0.0762,0.2903,0.1459,
11.999705,-0.6753,1.0161,-0.3386,-2.5446,1.0729,-2.5149,0.0762,0.2903,0.1459,
12.001085,-0.6753,1.0161,-0.3386,-2.5446,1.0729,-2.5149,0.0932,0.4064,0.1348,
12.015333,-0.6753,1.0161,-0.3386,-2.5446,1.0729,-2.5149,0.1609,0.3372,0.1539,
12.036091,-0.6081,1.2987,-0.0684,-2.5446,1.0729,-2.5149,0.1609,0.3372,0.1539,
12.037189,-0.6081,1.2987,-0.0684,-1.9501,3.8241,0.2382,0.1609,0.3372,0.1539,
12.037940,-0.6081,1.2987,-0.0684,-1.9501,3.8241,0.2382,0.5007,0.4581,0.1273,
12.055861,-0.6081,1.2987,-0.0684,-1.9501,3.8241,0.2382,0.9023,0.2663,0.0485,
12.076653,-0.3359,0.9711,0.0330,-1.9501,3.8241,0.2382,0.9023,0.2663,0.0485,
12.078957,-0.3359,0.9711,0.0330,0.6709,0.6294,1.5386,0.9023,0.2663,0.0485,
12.080551,-0.3359,0.9711,0.0330,0.6709,0.6294,1.5386,1.1052,-0.4314,-0.0373,
12.096325,-0.3359,0.9711,0.0330,0.6709,0.6294,1.5386,1.0749,-1.5819,-0.1252,
12.116019,-0.3374,1.3215,0.0711,0.6709,0.6294,1.5386,1.0749,-1.5819,-0.1252,
12.118411,-0.3374,1.3215,0.0711,0.7409,4.1345,2.1366,1.0749,-1.5819,-0.1252,
12.119897,-0.3374,1.3215,0.0711,0.7409,4.1345,2.1366,0.8959,-2.8443,-0.2099,
12.136987,-0.3374,1.3215,0.0711,0.7409,4.1345,2.1366,0.6131,-3.5303,-0.3467,
12.155981,-0.2079,1.2582,0.0420,0.7409,4.1345,2.1366,0.6131,-3.5303,-0.3467,
12.158023,-0.2079,1.2582,0.0420,2.2763,3.6016,1.5842,0.6131,-3.5303,-0.3467,
12.159765,-0.2079,1.2582,0.0420,2.2763,3.6016,1.5842,0.2216,-3.0541,-0.3675,
12.176684,-0.2079,1.2582,0.0420,2.2763,3.6016,1.5842,-0.0091,-1.6890,-0.1225,
12.196306,-0.2111,0.9811,0.0005,2.2763,3.6016,1.5842,-0.0091,-1.6890,-0.1225,
12.198264,-0.2111,0.9811,0.0005,2.4241,0.9342,0.7967,-0.0091,-1.6890,-0.1225,
12.200061,-0.2111,0.9811,0.0005,2.4241,0.9342,0.7967,-0.0415,-0.1177,0.1459,
12.215320,-0.2111,0.9811,0.0005,2.4241,0.9342,0.7967,0.0304,1.0812,0.3451,
12.236510,-0.2057,0.7065,0.0149,2.4241,0.9342,0.7967,0.0304,1.0812,0.3451,
12.238668,-0.2057,0.7065,0.0149,2.3267,-1.8276,0.9956,0.0304,1.0812,0.3451,
12.240578,-0.2057,0.7065,0.0149,2.3267,-1.8276,0.9956,0.1481,1.6570,0.4400,
12.255760,-0.2057,0.7065,0.0149,2.3267,-1.8276,0.9956,0.3100,1.7502,0.4991,
12.276690,-0.2599,0.5243,0.0171,2.3267,-1.8276,0.9956,0.3100,1.7502,0.4991,
12.279480,-0.2599,0.5243,0.0171,1.5604,-3.6832,1.3853,0.3100,1.7502,0.4991,
12.281137,-0.2599,0.5243,0.0171,1.5604,-3.6832,1.3853,0.5475,1.8264,0.4027,
12.295396,-0.2599,0.5243,0.0171,1.5604,-3.6832,1.3853,1.1990,2.6360,0.2834,
12.315757,-0.2238,0.4832,-0.1884,1.5604,-3.6832,1.3853,1.1990,2.6360,0.2834,
12.317853,-0.2238,0.4832,-0.1884,1.6569,-4.0855,0.0340,1.1990,2.6360,0.2834,
12.319662,-0.2238,0.4832,-0.1884,1.6569,-4.0855,0.0340,0.7116,1.1947,0.4171,
12.336613,-0.2238,0.4832,-0.1884,1.6569,-4.0855,0.0340,0.3521,0.5380,0.1087,
12.356042,-0.3560,0.6164,-0.3134,1.6569,-4.0855,0.0340,0.3521,0.5380,0.1087,
12.358278,-0.3560,0.6164,-0.3134,0.1986,-2.7769,-0.8744,0.3521,0.5380,0.1087,
12.360146,-0.3560,0.6164,-0.3134,0.1986,-2.7769,-0.8744,0.3297,0.2626,-0.0176,
12.375854,-0.3560,0.6164,-0.3134,0.1986,-2.7769,-0.8744,0.2509,-0.1806,-0.0506,
12.396098,-0.1378,0.6560,-0.4073,0.1986,-2.7769,-0.8744,0.2509,-0.1806,-0.0506,
12.398579,-0.1378,0.6560,-0.4073,2.3452,-2.3579,-1.6857,0.2509,-0.1806,-0.0506,
12.400434,-0.1378,0.6560,-0.4073,2.3452,-2.3579,-1.6857,0.0368,-0.7169,-0.0858,
12.416310,-0.1378,0.6560,-0.4073,2.3452,-2.3579,-1.6857,-0.1358,-0.9593,-0.1364,
12.436050,-0.3252,0.7908,-0.4634,2.3452,-2.3579,-1.6857,-0.1358,-0.9593,-0.1364,
12.438456,-0.3252,0.7908,-0.4634,0.6228,-1.0239,-2.3794,-0.1358,-0.9593,-0.1364,
12.440494,-0.3252,0.7908,-0.4634,0.6228,-1.0239,-2.3794,-0.2754,-0.7153,-0.1294,
12.455305,-0.3252,0.7908,-0.4634,0.6228,-1.0239,-2.3794,-0.2828,-0.2003,-0.1268,
12.475928,-0.6191,0.9245,-0.4077,0.6228,-1.0239,-2.3794,-0.2828,-0.2003,-0.1268,
12.478153,-0.6191,0.9245,-0.4077,-2.1624,0.3010,-1.9440,-0.2828,-0.2003,-0.1268,
12.480055,-0.6191,0.9245,-0.4077,-2.1624,0.3010,-1.9440,-0.0256,0.2077,-0.1731,
12.495608,-0.6191,0.9245,-0.4077,-2.1624,0.3010,-1.9440,0.1177,0.0511,-0.1811,
12.515580,-0.6034,1.1372,-0.4547,-2.1624,0.3010,-1.9440,0.1177,0.0511,-0.1811,
12.517983,-0.6034,1.1372,-0.4547,-1.9580,2.4179,-2.3673,0.1177,0.0511,-0.1811,
12.519798,-0.6034,1.1372,-0.4547,-1.9580,2.4179,-2.3673,-0.0282,0.0639,-0.1795,
12.535434,-0.6034,1.1372,-0.4547,-1.9580,2.4179,-2.3673,0.2929,1.1366,-0.3127,
12.554688,-0.5297,0.9149,-0.6242,-1.9580,2.4179,-2.3673,0.2929,1.1366,-0.3127,
12.557355,-0.5297,0.9149,-0.6242,-1.2011,0.2897,-3.8877,0.2929,1.1366,-0.3127,
12.559341,-0.5297,0.9149,-0.6242,-1.2011,0.2897,-3.8877,0.4325,0.8240,-0.4618,
12.575657,-0.5297,0.9149,-0.6242,-1.2011,0.2897,-3.8877,0.6434,0.0618,-0.3254,
12.595805,-0.4461,1.3351,-0.3750,-1.2011,0.2897,-3.8877,0.6434,0.0618,-0.3254,
12.598228,-0.4461,1.3351,-0.3750,-0.2876,4.5221,-1.1897,0.6434,0.0618,-0.3254,
12.600170,-0.4461,1.3351,-0.3750,-0.2876,4.5221,-1.1897,0.4922,-0.4208,0.0032,
12.615191,-0.4461,1.3351,-0.3750,-0.2876,4.5221,-1.1897,0.0218,-1.7188,0.1150,
12.635451,-0.2428,1.2247,0.0296,-0.2876,4.5221,-1.1897,0.0218,-1.7188,0.1150,
12.637778,-0.2428,1.2247,0.0296,1.7899,3.4559,2.6865,0.0218,-1.7188,0.1150,
12.639553,-0.2428,1.2247,0.0296,1.7899,3.4559,2.6865,-0.2860,-2.3244,0.1992,
12.654990,-0.2428,1.2247,0.0296,1.7899,3.4559,2.6865,-0.2258,-1.2607,0.4011,
12.675409,-0.2038,1.1048,0.2570,1.7899,3.4559,2.6865,-0.2258,-1.2607,0.4011,
12.678055,-0.2038,1.1048,0.2570,2.2280,2.2073,4.5263,-0.2258,-1.2607,0.4011,
12.679665,-0.2038,1.1048,0.2570,2.2280,2.2073,4.5263,0.3068,0.3617,0.4804,
12.695414,-0.2038,1.1048,0.2570,2.2280,2.2073,4.5263,0.6274,-0.0250,0.3851,
12.714838,-0.5196,1.0737,0.0559,2.2280,2.2073,4.5263,0.6274,-0.0250,0.3851,
12.716927,-0.5196,1.0737,0.0559,-1.0307,1.8712,2.7451,0.6274,-0.0250,0.3851,
12.718682,-0.5196,1.0737,0.0559,-1.0307,1.8712,2.7451,0.2775,-1.0109,0.1965,
12.735689,-0.5196,1.0737,0.0559,-1.0307,1.8712,2.7451,-0.1859,-0.9438,0.0810,
12.755341,-0.5722,0.8922,-0.1165,-1.0307,1.8712,2.7451,-0.1859,-0.9438,0.0810,
12.757645,-0.5722,0.8922,-0.1165,-1.5097,0.0740,0.9116,-0.1859,-0.9438,0.0810,
12.759470,-0.5722,0.8922,-0.1165,-1.5097,0.0740,0.9116,-0.4565,-0.1678,0.0415,
12.774660,-0.5722,0.8922,-0.1165,-1.5097,0.0740,0.9116,-0.5752,0.5997,-0.0341,
12.795377,-0.3875,0.7207,-0.1055,-1.5097,0.0740,0.9116,-0.5752,0.5997,-0.0341,
12.797510,-0.3875,0.7207,-0.1055,0.2920,-1.6530,0.8318,-0.5752,0.5997,-0.0341,
12.799339,-0.3875,0.7207,-0.1055,0.2920,-1.6530,0.8318,-0.5816,0.5763,-0.1007,
12.817241,-0.3875,0.7207,-0.1055,0.2920,-1.6530,0.8318,-0.5992,0.1641,-0.1411,
12.835448,-0.2893,0.6679,-0.2020,0.2920,-1.6530,0.8318,-0.5992,0.1641,-0.1411,
12.838087,-0.2893,0.6679,-0.2020,1.2697,-2.1928,-0.2592,-0.5992,0.1641,-0.1411,
12.839905,-0.2893,0.6679,-0.2020,1.2697,-2.1928,-0.2592,-0.6301,-0.0490,-0.1555,
12.854907,-0.2893,0.6679,-0.2020,1.2697,-2.1928,-0.2592,-0.6487,-0.2131,-0.1561,
12.875032,-0.3230,0.5861,-0.2003,1.2697,-2.1928,-0.2592,-0.6487,-0.2131,-0.1561,
12.877427,-0.3230,0.5861,-0.2003,1.0018,-3.0101,-0.4872,-0.6487,-0.2131,-0.1561,
12.879334,-0.3230,0.5861,-0.2003,1.0018,-3.0101,-0.4872,-0.5923,-0.3025,-0.1316,
12.894632,-0.3230,0.5861,-0.2003,1.0018,-3.0101,-0.4872,-0.4671,-0.2802,-0.0708,
12.915347,-0.3630,0.5981,-0.1715,1.0018,-3.0101,-0.4872,-0.4671,-0.2802,-0.0708,
12.917497,-0.3630,0.5981,-0.1715,0.6603,-2.9046,-0.4386,-0.4671,-0.2802,-0.0708,
12.919489,-0.3630,0.5981,-0.1715,0.6603,-2.9046,-0.4386,-0.3100,-0.1763,-0.0192,
12.934018,-0.3630,0.5981,-0.1715,0.6603,-2.9046,-0.4386,-0.1555,-0.0128,0.0133,
12.954930,-0.4102,0.6907,-0.1769,0.6603,-2.9046,-0.4386,-0.1555,-0.0128,0.0133,
12.957150,-0.4102,0.6907,-0.1769,0.2038,-2.0077,-0.5887,-0.1555,-0.0128,0.0133,
12.959042,-0.4102,0.6907,-0.1769,0.2038,-2.0077,-0.5887,-0.0426,0.1209,0.0554,
12.974926,-0.4102,0.6907,-0.1769,0.2038,-2.0077,-0.5887,-0.0005,0.1257,0.0815,
12.995117,-0.4371,0.7407,-0.2472,0.2038,-2.0077,-0.5887,-0.0005,0.1257,0.0815,
12.997801,-0.4371,0.7407,-0.2472,-0.0892,-1.5294,-1.2651,-0.0005,0.1257,0.0815,
12.999844,-0.4371,0.7407,-0.2472,-0.0892,-1.5294,-1.2651,-0.0671,0.2205,0.1150,
13.016260,-0.4371,0.7407,-0.2472,-0.0892,-1.5294,-1.2651,-0.1609,0.3222,0.1289,
13.034636,-0.4383,0.8133,-0.2660,-0.0892,-1.5294,-1.2651,-0.1609,0.3222,0.1289,
13.037071,-0.4383,0.8133,-0.2660,-0.1566,-0.8439,-1.4444,-0.1609,0.3222,0.1289,
13.039085,-0.4383,0.8133,-0.2660,-0.1566,-0.8439,-1.4444,-0.2413,0.3217,0.1321,
13.053895,-0.4383,0.8133,-0.2660,-0.1566,-0.8439,-1.4444,-0.3137,0.2450,0.1236,
13.074194,-0.4827,0.9635,-0.2873,-0.1566,-0.8439,-1.4444,-0.3137,0.2450,0.1236,
13.076783,-0.4827,0.9635,-0.2873,-0.6364,0.6077,-1.6550,-0.3137,0.2450,0.1236,
13.078609,-0.4827,0.9635,-0.2873,-0.6364,0.6077,-1.6550,-0.3712,0.1092,0.0511,
13.094192,-0.4827,0.9635,-0.2873,-0.6364,0.6077,-1.6550,-0.3254,-0.0501,-0.0064,
13.113718,-0.5797,1.0158,-0.2651,-0.6364,0.6077,-1.6550,-0.3254,-0.0501,-0.0064,
13.116139,-0.5797,1.0158,-0.2651,-1.5910,1.1049,-1.5428,-0.3254,-0.0501,-0.0064,
13.117890,-0.5797,1.0158,-0.2651,-1.5910,1.1049,-1.5428,-0.1241,0.0373,0.0128,
13.133703,-0.5797,1.0158,-0.2651,-1.5910,1.1049,-1.5428,-0.0128,0.2125,0.0309,
13.153407,-0.5213,0.9027,-0.3801,-1.5910,1.1049,-1.5428,-0.0128,0.2125,0.0309,
13.155373,-0.5213,0.9027,-0.3801,-1.0290,-0.0078,-2.6663,-0.0128,0.2125,0.0309,
13.156790,-0.5213,0.9027,-0.3801,-1.0290,-0.0078,-2.6663,-0.0767,0.1278,0.0815,
13.174212,-0.5213,0.9027,-0.3801,-1.0290,-0.0078,-2.6663,0.0075,0.1401,0.1193,
13.194056,-0.4957,1.2250,-0.1791,-1.0290,-0.0078,-2.6663,0.0075,0.1401,0.1193,
13.197402,-0.4957,1.2250,-0.1791,-0.8188,3.1324,-0.6864,0.0075,0.1401,0.1193,
13.199443,-0.4957,1.2250,-0.1791,-0.8188,3.1324,-0.6864,0.3377,0.3377,0.0788,
13.217380,-0.4957,1.2250,-0.1791,-0.8188,3.1324,-0.6864,0.6786,0.2051,0.0304,
13.233416,-0.3621,0.9376,0.0266,-0.8188,3.1324,-0.6864,0.6786,0.2051,0.0304,
13.235462,-0.3621,0.9376,0.0266,0.4590,0.3321,1.5531,0.6786,0.2051,0.0304,
13.236509,-0.3621,0.9376,0.0266,0.4590,0.3321,1.5531,0.9177,-0.3260,-0.0437,
13.253492,-0.3621,0.9376,0.0266,0.4590,0.3321,1.5531,1.0477,-1.2970,-0.1241,
13.273458,-0.3804,1.1854,0.0828,0.4590,0.3321,1.5531,1.0477,-1.2970,-0.1241,
13.275979,-0.3804,1.1854,0.0828,0.3558,2.8290,2.3189,1.0477,-1.2970,-0.1241,
13.277750,-0.3804,1.1854,0.0828,0.3558,2.8290,2.3189,1.0227,-2.4943,-0.2423,
13.293853,-0.3804,1.1854,0.0828,0.3558,2.8290,2.3189,0.8208,-3.6437,-0.3068,
13.314065,-0.2487,1.4375,0.0459,0.3558,2.8290,2.3189,0.8208,-3.6437,-0.3068,
13.316130,-0.2487,1.4375,0.0459,1.9181,5.3995,1.7614,0.8208,-3.6437,-0.3068,
13.317780,-0.2487,1.4375,0.0459,1.9181,5.3995,1.7614,0.4458,-3.9378,-0.3856,
13.334108,-0.2487,1.4375,0.0459,1.9181,5.3995,1.7614,0.1182,-2.6365,-0.3063,
13.354436,-0.2853,1.1070,-0.0462,1.9181,5.3995,1.7614,0.1182,-2.6365,-0.3063,
13.356715,-0.2853,1.1070,-0.0462,1.8197,2.2348,0.3675,0.1182,-2.6365,-0.3063,
13.358363,-0.2853,1.1070,-0.0462,1.8197,2.2348,0.3675,-0.0330,-0.7356,0.0639,
13.374559,-0.2853,1.1070,-0.0462,1.8197,2.2348,0.3675,-0.0442,0.7808,0.3063,
13.394181,-0.2133,0.7959,-0.0203,1.8197,2.2348,0.3675,-0.0442,0.7808,0.3063,
13.397741,-0.2133,0.7959,-0.0203,2.4237,-0.8691,0.5998,-0.0442,0.7808,0.3063,
13.400126,-0.2133,0.7959,-0.0203,2.4237,-0.8691,0.5998,0.1507,1.7034,0.4229,
13.418082,-0.2133,0.7959,-0.0203,2.4237,-0.8691,0.5998,0.4661,2.1396,0.4575,
13.433401,-0.2343,0.6020,-0.0059,2.4237,-0.8691,0.5998,0.4661,2.1396,0.4575,
13.436109,-0.2343,0.6020,-0.0059,1.9873,-2.8344,1.1857,0.4661,2.1396,0.4575,
13.437975,-0.2343,0.6020,-0.0059,1.9873,-2.8344,1.1857,0.8970,2.4016,0.4293,
13.452704,-0.2343,0.6020,-0.0059,1.9873,-2.8344,1.1857,1.3769,2.8501,0.2344,
13.473815,-0.2971,0.4722,-0.4141,1.9873,-2.8344,1.1857,1.3769,2.8501,0.2344,
13.476038,-0.2971,0.4722,-0.4141,1.0836,-4.0849,-1.9855,1.3769,2.8501,0.2344,
13.477917,-0.2971,0.4722,-0.4141,1.0836,-4.0849,-1.9855,1.2171,2.3649,0.4213,
13.493804,-0.2971,0.4722,-0.4141,1.0836,-4.0849,-1.9855,0.1337,0.4277,0.4389,
13.514013,-0.3117,0.5160,-0.3220,1.0836,-4.0849,-1.9855,0.1337,0.4277,0.4389,
13.517195,-0.3117,0.5160,-0.3220,0.6621,-3.6604,-0.6318,0.1337,0.4277,0.4389,
13.519389,-0.3117,0.5160,-0.3220,0.6621,-3.6604,-0.6318,-0.1001,-0.1438,0.0479,
13.533250,-0.3117,0.5160,-0.3220,0.6621,-3.6604,-0.6318,-0.1305,-0.6322,0.0458,
13.553670,-0.2045,0.6125,-0.2673,0.6621,-3.6604,-0.6318,-0.1305,-0.6322,0.0458,
13.556108,-0.2045,0.6125,-0.2673,1.7350,-2.7330,-0.1934,-0.1305,-0.6322,0.0458,
13.557973,-0.2045,0.6125,-0.2673,1.7350,-2.7330,-0.1934,-0.0698,-0.9433,0.0005,
13.573270,-0.2045,0.6125,-0.2673,1.7350,-2.7330,-0.1934,-0.1044,-0.9731,-0.0740,
13.593381,-0.2763,0.7337,-0.4551,1.7350,-2.7330,-0.1934,-0.1044,-0.9731,-0.0740,
13.596741,-0.2763,0.7337,-0.4551,1.1335,-1.5480,-2.2098,-0.1044,-0.9731,-0.0740,
13.598921,-0.2763,0.7337,-0.4551,1.1335,-1.5480,-2.2098,-0.1955,-0.6615,-0.1353,
13.613867,-0.2763,0.7337,-0.4551,1.1335,-1.5480,-2.2098,-0.1417,-0.0245,-0.1997,
13.633215,-0.5299,0.7542,-0.6117,1.1335,-1.5480,-2.2098,-0.1417,-0.0245,-0.1997,
13.635689,-0.5299,0.7542,-0.6117,-1.2614,-1.3306,-3.8392,-0.1417,-0.0245,-0.1997,
13.637655,-0.5299,0.7542,-0.6117,-1.2614,-1.3306,-3.8392,0.0330,0.3547,-0.2376,
13.653504,-0.5299,0.7542,-0.6117,-1.2614,-1.3306,-3.8392,-0.0282,-0.2972,-0.2093,
13.673187,-0.6560,0.9990,-0.4190,-1.2614,-1.3306,-3.8392,-0.0282,-0.2972,-0.2093,
13.675748,-0.6560,0.9990,-0.4190,-2.4113,1.1162,-1.9152,-0.0282,-0.2972,-0.2093,
13.677634,-0.6560,0.9990,-0.4190,-2.4113,1.1162,-1.9152,-0.1960,-0.8234,-0.3153,
13.693313,-0.6560,0.9990,-0.4190,-2.4113,1.1162,-1.9152,0.0240,0.3127,-0.3686,
13.713278,-0.4068,0.9960,-0.5736,-2.4113,1.1162,-1.9152,0.0240,0.3127,-0.3686,
13.715782,-0.4068,0.9960,-0.5736,0.1710,1.1361,-3.5015,0.0240,0.3127,-0.3686,
13.717463,-0.4068,0.9960,-0.5736,0.1710,1.1361,-3.5015,0.2823,1.1574,-0.3031,
13.733536,-0.4068,0.9960,-0.5736,0.1710,1.1361,-3.5015,0.1784,0.3819,-0.2322,
13.752694,-0.4200,1.4001,-0.3342,0.1710,1.1361,-3.5015,0.1784,0.3819,-0.2322,
13.754896,-0.4200,1.4001,-0.3342,0.0654,5.1611,-0.9483,0.1784,0.3819,-0.2322,
13.756608,-0.4200,1.4001,-0.3342,0.0654,5.1611,-0.9483,0.4224,-0.1161,0.0602,
13.773065,-0.4200,1.4001,-0.3342,0.0654,5.1611,-0.9483,0.3734,-1.0104,0.2407,
13.792689,-0.3222,1.1824,-0.1451,0.0654,5.1611,-0.9483,0.3734,-1.0104,0.2407,
13.795620,-0.3222,1.1824,-0.1451,1.0251,3.0404,0.9466,0.3734,-1.0104,0.2407,
13.797598,-0.3222,1.1824,-0.1451,1.0251,3.0404,0.9466,0.3249,-0.8756,0.3856,
13.814898,-0.3222,1.1824,-0.1451,1.0251,3.0404,0.9466,0.4756,-0.2535,0.4623,
13.833329,-0.3963,1.2113,0.0064,1.0251,3.0404,0.9466,0.4756,-0.2535,0.4623,
13.835535,-0.3963,1.2113,0.0064,0.2081,3.2906,2.4741,0.4756,-0.2535,0.4623,
13.837204,-0.3963,1.2113,0.0064,0.2081,3.2906,2.4741,0.6914,-0.2525,0.4842,
13.853033,-0.3963,1.2113,0.0064,0.2081,3.2906,2.4741,0.2748,-1.4781,0.3963,
13.873253,-0.6528,1.2440,0.0525,0.2081,3.2906,2.4741,0.2748,-1.4781,0.3963,
13.875599,-0.6528,1.2440,0.0525,-2.3715,3.5880,2.9532,0.2748,-1.4781,0.3963,
13.877406,-0.6528,1.2440,0.0525,-2.3715,3.5880,2.9532,-0.3398,-2.2179,0.1593,
13.893162,-0.6528,1.2440,0.0525,-2.3715,3.5880,2.9532,-0.6237,-1.7279,0.0607,
13.912811,-0.6198,0.9389,0.0406,-2.3715,3.5880,2.9532,-0.6237,-1.7279,0.0607,
13.915109,-0.6198,0.9389,0.0406,-1.9119,0.5381,2.3475,-0.6237,-1.7279,0.0607,
13.916805,-0.6198,0.9389,0.0406,-1.9119,0.5381,2.3475,-0.6551,-0.8298,0.0708,
13.932752,-0.6198,0.9389,0.0406,-1.9119,0.5381,2.3475,-0.6024,0.0154,-0.1033,
13.953280,-0.4102,0.7161,-0.0293,-1.9119,0.5381,2.3475,-0.6024,0.0154,-0.1033,
13.955475,-0.4102,0.7161,-0.0293,0.1868,-1.6887,1.3494,-0.6024,0.0154,-0.1033,
13.957248,-0.4102,0.7161,-0.0293,0.1868,-1.6887,1.3494,-0.5518,0.6173,-0.2333,
13.972781,-0.4102,0.7161,-0.0293,0.1868,-1.6887,1.3494,-0.5103,0.6189,-0.2887,
13.992946,-0.2675,0.5617,-0.1551,0.1868,-1.6887,1.3494,-0.5103,0.6189,-0.2887,
13.997686,-0.2675,0.5617,-0.1551,1.6363,-3.1915,0.0363,-0.5103,0.6189,-0.2887,
13.999458,-0.2675,0.5617,-0.1551,1.6363,-3.1915,0.0363,-0.5736,0.2157,-0.2983,
14.013624,-0.2675,0.5617,-0.1551,1.6363,-3.1915,0.0363,-0.7292,-0.2184,-0.2647,
14.032929,-0.2507,0.5380,-0.2226,1.6363,-3.1915,0.0363,-0.7292,-0.2184,-0.2647,
14.035196,-0.2507,0.5380,-0.2226,1.8987,-3.4132,-0.8509,-0.7292,-0.2184,-0.2647,
14.037056,-0.2507,0.5380,-0.2226,1.8987,-3.4132,-0.8509,-0.8149,-0.3963,-0.1774,
14.051957,-0.2507,0.5380,-0.2226,1.8987,-3.4132,-0.8509,-0.7398,-0.3659,-0.0746,
14.072211,-0.3022,0.6015,-0.1512,1.8987,-3.4132,-0.8509,-0.7398,-0.3659,-0.0746,
14.076371,-0.3022,0.6015,-0.1512,1.4550,-2.8047,-0.4885,-0.7398,-0.3659,-0.0746,
14.078356,-0.3022,0.6015,-0.1512,1.4550,-2.8047,-0.4885,-0.5342,-0.2386,0.0389,
14.092504,-0.3022,0.6015,-0.1512,1.4550,-2.8047,-0.4885,-0.2583,0.0181,0.1401,
14.113256,-0.3950,0.6904,-0.1549,1.4550,-2.8047,-0.4885,-0.2583,0.0181,0.1401,
14.116726,-0.3950,0.6904,-0.1549,0.5182,-1.9634,-0.6818,-0.2583,0.0181,0.1401,
14.118659,-0.3950,0.6904,-0.1549,0.5182,-1.9634,-0.6818,-0.0527,0.2530,0.1811,
14.132511,-0.3950,0.6904,-0.1549,0.5182,-1.9634,-0.6818,-0.0250,0.3132,0.2147,
14.153142,-0.4510,0.7639,-0.2108,0.5182,-1.9634,-0.6818,-0.0250,0.3132,0.2147,
14.155690,-0.4510,0.7639,-0.2108,-0.1088,-1.2784,-1.1945,-0.0250,0.3132,0.2147,
14.157702,-0.4510,0.7639,-0.2108,-0.1088,-1.2784,-1.1945,-0.0836,0.1417,0.2637,
14.172348,-0.4510,0.7639,-0.2108,-0.1088,-1.2784,-1.1945,-0.1390,-0.0282,0.3036,
14.193326,-0.4522,0.9137,-0.2604,-0.1088,-1.2784,-1.1945,-0.1390,-0.0282,0.3036,
14.197290,-0.4522,0.9137,-0.2604,-0.2197,0.1397,-1.6967,-0.1390,-0.0282,0.3036,
14.199378,-0.4522,0.9137,-0.2604,-0.2197,0.1397,-1.6967,-0.1763,-0.1049,0.3073,
14.217703,-0.4522,0.9137,-0.2604,-0.2197,0.1397,-1.6967,-0.2354,-0.0847,0.2615,
14.232362,-0.5556,1.0771,-0.3564,-0.2197,0.1397,-1.6967,-0.2354,-0.0847,0.2615,
14.234636,-0.5556,1.0771,-0.3564,-1.3255,1.6914,-2.7038,-0.2354,-0.0847,0.2615,
14.236552,-0.5556,1.0771,-0.3564,-1.3255,1.6914,-2.7038,-0.2658,-0.1055,0.2487,
14.251848,-0.5556,1.0771,-0.3564,-1.3255,1.6914,-2.7038,-0.1241,-0.0831,0.2221,
14.271738,-0.6872,0.9755,-0.3621,-1.3255,1.6914,-2.7038,-0.1241,-0.0831,0.2221,
14.274072,-0.6872,0.9755,-0.3621,-2.6966,0.6513,-2.8433,-0.1241,-0.0831,0.2221,
14.276036,-0.6872,0.9755,-0.3621,-2.6966,0.6513,-2.8433,0.0373,0.0639,0.1656,
14.291749,-0.6872,0.9755,-0.3621,-2.6966,0.6513,-2.8433,0.1901,0.1097,0.1870,
14.312199,-0.7720,1.4219,-0.1412,-2.6966,0.6513,-2.8433,0.1901,0.1097,0.1870,
14.314631,-0.7720,1.4219,-0.1412,-3.5927,5.0006,-0.6245,0.1901,0.1097,0.1870,
14.316611,-0.7720,1.4219,-0.1412,-3.5927,5.0006,-0.6245,0.5097,0.3633,0.2312,
14.331525,-0.7720,1.4219,-0.1412,-3.5927,5.0006,-0.6245,0.9412,0.4501,0.0602,
14.351312,-0.4156,0.9274,0.0955,-3.5927,5.0006,-0.6245,0.9412,0.4501,0.0602,
14.353652,-0.4156,0.9274,0.0955,-0.1663,0.1586,2.0181,0.9412,0.4501,0.0602,
14.355548,-0.4156,0.9274,0.0955,-0.1663,0.1586,2.0181,1.2565,-0.2562,-0.0091,
14.372315,-0.4156,0.9274,0.0955,-0.1663,0.1586,2.0181,1.3508,-1.7731,-0.0501,
14.392098,-0.3301,1.3383,0.0945,-0.1663,0.1586,2.0181,1.3508,-1.7731,-0.0501,
14.394329,-0.3301,1.3383,0.0945,0.7354,4.2559,2.3118,1.3508,-1.7731,-0.0501,
14.396135,-0.3301,1.3383,0.0945,0.7354,4.2559,2.3118,1.1500,-3.3614,-0.2738,
14.412232,-0.3301,1.3383,0.0945,0.7354,4.2559,2.3118,0.6477,-4.0560,-0.5017,
14.431402,-0.2094,1.3337,0.0012,0.7354,4.2559,2.3118,0.6477,-4.0560,-0.5017,
14.433420,-0.2094,1.3337,0.0012,2.2424,4.3211,1.1023,0.6477,-4.0560,-0.5017,
14.435039,-0.2094,1.3337,0.0012,2.2424,4.3211,1.1023,0.1411,-3.3572,-0.5433,
14.451406,-0.2094,1.3337,0.0012,2.2424,4.3211,1.1023,-0.1395,-1.5862,-0.1566,
14.471461,-0.2106,1.0422,0.0457,2.2424,4.3211,1.1023,-0.1395,-1.5862,-0.1566,
14.474119,-0.2106,1.0422,0.0457,2.4396,1.5269,1.1036,-0.1395,-1.5862,-0.1566,
14.475998,-0.2106,1.0422,0.0457,2.4396,1.5269,1.1036,-0.1987,-0.0708,0.1380,
14.491620,-0.2106,1.0422,0.0457,2.4396,1.5269,1.1036,-0.0469,0.7457,0.3249,
14.511558,-0.1554,0.7740,0.0186,2.4396,1.5269,1.1036,-0.0469,0.7457,0.3249,
14.513753,-0.1554,0.7740,0.0186,2.8270,-1.1805,0.8292,-0.0469,0.7457,0.3249,
14.515648,-0.1554,0.7740,0.0186,2.8270,-1.1805,0.8292,0.1731,1.2181,0.4597,
14.533714,-0.1554,0.7740,0.0186,2.8270,-1.1805,0.8292,0.3302,1.4605,0.5268,
14.551013,-0.1742,0.5780,0.0110,2.8270,-1.1805,0.8292,0.3302,1.4605,0.5268,
14.553024,-0.1742,0.5780,0.0110,2.4265,-3.1760,1.0702,0.3302,1.4605,0.5268,
14.554802,-0.1742,0.5780,0.0110,2.4265,-3.1760,1.0702,0.5033,1.5638,0.5619,
14.570887,-0.1742,0.5780,0.0110,2.4265,-3.1760,1.0702,0.8543,2.0783,0.4224,
14.591382,-0.3413,0.5367,-0.0384,2.4265,-3.1760,1.0702,0.8543,2.0783,0.4224,
14.594082,-0.3413,0.5367,-0.0384,0.5259,-3.6259,1.1172,0.8543,2.0783,0.4224,
14.595619,-0.3413,0.5367,-0.0384,0.5259,-3.6259,1.1172,1.3566,2.9556,0.2487,
14.610660,-0.3413,0.5367,-0.0384,0.5259,-3.6259,1.1172,0.7196,1.1281,0.5981,
14.631503,-0.1590,0.5705,-0.3418,0.5259,-3.6259,1.1172,0.7196,1.1281,0.5981,
14.633490,-0.1590,0.5705,-0.3418,2.0139,-3.2816,-1.1827,0.7196,1.1281,0.5981,
14.635469,-0.1590,0.5705,-0.3418,2.0139,-3.2816,-1.1827,0.2434,0.3531,0.2061,
14.651404,-0.1590,0.5705,-0.3418,2.0139,-3.2816,-1.1827,0.0474,0.0272,-0.0314,
14.671355,-0.2345,0.5580,-0.3457,2.0139,-3.2816,-1.1827,0.0474,0.0272,-0.0314,
14.674223,-0.2345,0.5580,-0.3457,1.2264,-3.4032,-1.1426,0.0474,0.0272,-0.0314,
14.675957,-0.2345,0.5580,-0.3457,1.2264,-3.4032,-1.1426,-0.1081,-0.4202,-0.0399,
14.691305,-0.2345,0.5580,-0.3457,1.2264,-3.4032,-1.1426,-0.1784,-0.8959,0.0213,
14.711195,-0.3012,0.7828,-0.4476,1.2264,-3.4032,-1.1426,-0.1784,-0.8959,0.0213,
14.713498,-0.3012,0.7828,-0.4476,0.6331,-1.2117,-2.2852,-0.1784,-0.8959,0.0213,
14.715422,-0.3012,0.7828,-0.4476,0.6331,-1.2117,-2.2852,-0.1625,-0.8352,0.0320,
14.730246,-0.3012,0.7828,-0.4476,0.6331,-1.2117,-2.2852,-0.0048,-0.2077,-0.0213,
14.752270,-0.6259,0.9657,-0.5494,0.6331,-1.2117,-2.2852,-0.0048,-0.2077,-0.0213,
14.754563,-0.6259,0.9657,-0.5494,-2.4859,0.6028,-3.3020,-0.0048,-0.2077,-0.0213,
14.756501,-0.6259,0.9657,-0.5494,-2.4859,0.6028,-3.3020,0.1774,0.2269,0.0037,
14.771171,-0.6259,0.9657,-0.5494,-2.4859,0.6028,-3.3020,0.0154,-0.2045,-0.0107,
14.791420,-0.6284,1.1248,-0.4234,-2.4859,0.6028,-3.3020,0.0154,-0.2045,-0.0107,
14.793836,-0.6284,1.1248,-0.4234,-2.5095,2.1701,-2.0309,0.0154,-0.2045,-0.0107,
14.795765,-0.6284,1.1248,-0.4234,-2.5095,2.1701,-2.0309,-0.1843,-0.2887,-0.0602,
14.811011,-0.6284,1.1248,-0.4234,-2.5095,2.1701,-2.0309,0.1928,1.1505,-0.2626,
14.830338,-0.6337,0.9308,-0.7070,-2.5095,2.1701,-2.0309,0.1928,1.1505,-0.2626,
14.833497,-0.6337,0.9308,-0.7070,-2.5419,0.2932,-4.7459,0.1928,1.1505,-0.2626,
14.835950,-0.6337,0.9308,-0.7070,-2.5419,0.2932,-4.7459,0.6626,1.5952,-0.6152,
14.850048,-0.6337,0.9308,-0.7070,-2.5419,0.2932,-4.7459,0.7830,0.7627,-0.6381,
14.869932,-0.4109,1.2538,-0.5578,-2.5419,0.2932,-4.7459,0.7830,0.7627,-0.6381,
14.872236,-0.4109,1.2538,-0.5578,-0.2510,3.6209,-2.8564,0.7830,0.7627,-0.6381,
14.874050,-0.4109,1.2538,-0.5578,-0.2510,3.6209,-2.8564,0.2940,-0.7207,0.0154,
14.891067,-0.4109,1.2538,-0.5578,-0.2510,3.6209,-2.8564,-0.3345,-2.1886,0.1561,
14.910449,-0.1686,1.3767,0.1446,-0.2510,3.6209,-2.8564,-0.3345,-2.1886,0.1561,
14.912868,-0.1686,1.3767,0.1446,2.2407,4.8107,3.7971,-0.3345,-2.1886,0.1561,
14.914504,-0.1686,1.3767,0.1446,2.2407,4.8107,3.7971,-0.6509,-3.2810,0.0469,
14.930702,-0.1686,1.3767,0.1446,2.2407,4.8107,3.7971,-0.3728,-2.6466,0.2887,
14.950561,-0.0078,1.1688,0.1187,2.2407,4.8107,3.7971,-0.3728,-2.6466,0.2887,
14.952577,-0.0078,1.1688,0.1187,3.9999,2.7038,2.8924,-0.3728,-2.6466,0.2887,
14.954243,-0.0078,1.1688,0.1187,3.9999,2.7038,2.8924,0.3808,0.3494,0.4463,
14.970194,-0.0078,1.1688,0.1187,3.9999,2.7038,2.8924,0.8650,1.1606,0.1971,
14.990454,-0.5003,1.1390,0.0684,3.9999,2.7038,2.8924,0.8650,1.1606,0.1971,
14.994909,-0.5003,1.1390,0.0684,-0.9967,2.4073,2.7366,0.8650,1.1606,0.1971,
14.997126,-0.5003,1.1390,0.0684,-0.9967,2.4073,2.7366,0.5859,-0.1598,0.1273,
15.009906,-0.5003,1.1390,0.0684,-0.9967,2.4073,2.7366,-0.0399,-0.7489,0.0501,
15.029780,-0.6596,0.8663,-0.2814,-0.9967,2.4073,2.7366,-0.0399,-0.7489,0.0501,
15.032518,-0.6596,0.8663,-0.2814,-2.5502,-0.2554,-0.6674,-0.0399,-0.7489,0.0501,
15.034542,-0.6596,0.8663,-0.2814,-2.5502,-0.2554,-0.6674,-0.6264,0.0208,-0.0112,
15.050796,-0.6596,0.8663,-0.2814,-2.5502,-0.2554,-0.6674,-0.8256,0.6301,-0.2232,
15.070269,-0.4219,0.6616,0.0076,-2.5502,-0.2554,-0.6674,-0.8256,0.6301,-0.2232,
15.073305,-0.4219,0.6616,0.0076,-0.1845,-2.3002,1.9218,-0.8256,0.6301,-0.2232,
15.074989,-0.4219,0.6616,0.0076,-0.1845,-2.3002,1.9218,-0.6727,0.1614,-0.3388,
15.090295,-0.4219,0.6616,0.0076,-0.1845,-2.3002,1.9218,-0.5459,-0.1268,-0.2940,
15.110438,-0.2941,0.5592,-0.1473,-0.1845,-2.3002,1.9218,-0.5459,-0.1268,-0.2940,
15.112835,-0.2941,0.5592,-0.1473,1.1770,-3.2953,0.1929,-0.5459,-0.1268,-0.2940,
15.114585,-0.2941,0.5592,-0.1473,1.1770,-3.2953,0.1929,-0.6189,0.0080,-0.3159,
15.130992,-0.2941,0.5592,-0.1473,1.1770,-3.2953,0.1929,-0.7366,0.1747,-0.4128,
15.149676,-0.2702,0.5035,-0.1136,1.1770,-3.2953,0.1929,-0.7366,0.1747,-0.4128,
15.152423,-0.2702,0.5035,-0.1136,1.5338,-3.8224,0.3010,-0.7366,0.1747,-0.4128,
15.153757,-0.2702,0.5035,-0.1136,1.5338,-3.8224,0.3010,-0.8053,0.1119,-0.4075,
15.169515,-0.2702,0.5035,-0.1136,1.5338,-3.8224,0.3010,-0.7702,0.0043,-0.3270,
15.189444,-0.2897,0.5648,-0.0987,1.5338,-3.8224,0.3010,-0.7702,0.0043,-0.3270,
15.191819,-0.2897,0.5648,-0.0987,1.4674,-3.1996,0.1819,-0.7702,0.0043,-0.3270,
15.193301,-0.2897,0.5648,-0.0987,1.4674,-3.1996,0.1819,-0.6647,-0.0021,-0.2120,
15.209141,-0.2897,0.5648,-0.0987,1.4674,-3.1996,0.1819,-0.5140,0.1662,-0.1273,
15.229397,-0.3481,0.6684,-0.1444,1.4674,-3.1996,0.1819,-0.5140,0.1662,-0.1273,
15.231877,-0.3481,0.6684,-0.1444,0.9511,-2.1798,-0.4570,-0.5140,0.1662,-0.1273,
15.233534,-0.3481,0.6684,-0.1444,0.9511,-2.1798,-0.4570,-0.3558,0.5049,-0.0682,
15.249183,-0.3481,0.6684,-0.1444,0.9511,-2.1798,-0.4570,-0.2248,0.6594,-0.0101,
15.268806,-0.4173,0.8514,-0.1979,0.9511,-2.1798,-0.4570,-0.2248,0.6594,-0.0101,
15.269974,-0.4173,0.8514,-0.1979,0.2651,-0.3907,-0.9812,-0.2248,0.6594,-0.0101,
15.270658,-0.4173,0.8514,-0.1979,0.2651,-0.3907,-0.9812,-0.1731,0.5220,0.0581,
15.288808,-0.4173,0.8514,-0.1979,0.2651,-0.3907,-0.9812,-0.2290,0.2216,0.1124,
15.308906,-0.4485,1.0422,-0.3005,0.2651,-0.3907,-0.9812,-0.2290,0.2216,0.1124,
15.310934,-0.4485,1.0422,-0.3005,-0.0926,1.4573,-1.9552,-0.2290,0.2216,0.1124,
15.312517,-0.4485,1.0422,-0.3005,-0.0926,1.4573,-1.9552,-0.3435,-0.0437,0.1337,
15.331683,-0.4485,1.0422,-0.3005,-0.0926,1.4573,-1.9552,-0.4021,0.0027,0.1188,
15.349141,-0.5900,1.1509,-0.3525,-0.0926,1.4573,-1.9552,-0.4021,0.0027,0.1188,
15.351507,-0.5900,1.1509,-0.3525,-1.5222,2.4875,-2.5993,-0.4021,0.0027,0.1188,
15.352904,-0.5900,1.1509,-0.3525,-1.5222,2.4875,-2.5993,-0.3004,0.2264,0.1545,
