
time,gFx,gFy,gFz,ax,ay,az,wx,wy,wz,
0.025948,0.0000,0.0000,0.0000,0.0000,0.0000,0.0000,0.5625,0.3830,0.0517,
0.037010,0.0024,0.2013,1.0495,0.0000,0.0000,0.0000,0.5625,0.3830,0.0517,
0.038602,0.0024,0.2013,1.0495,0.0000,0.0000,0.0000,0.5625,0.3830,0.0517,
0.057036,0.0024,0.2013,1.0495,0.0000,0.0000,0.0000,0.5625,0.3830,0.0517,
0.077117,0.0149,0.2336,0.9125,0.0000,0.0000,0.0000,0.5625,0.3830,0.0517,
0.078884,0.0149,0.2336,0.9125,-0.0091,-0.1425,-0.5569,0.5625,0.3830,0.0517,
0.080732,0.0149,0.2336,0.9125,-0.0091,-0.1425,-0.5569,0.5625,0.3830,0.0517,
0.097227,0.0149,0.2336,0.9125,-0.0091,-0.1425,-0.5569,0.8304,0.6434,-0.3553,
0.116614,-0.0166,0.2902,0.9723,-0.0091,-0.1425,-0.5569,0.8304,0.6434,-0.3553,
0.117358,-0.0166,0.2902,0.9723,-0.1765,0.2448,0.0731,0.8304,0.6434,-0.3553,
0.117881,-0.0166,0.2902,0.9723,-0.1765,0.2448,0.0731,1.0301,0.9571,-0.3531,
0.137073,-0.0166,0.2902,0.9723,-0.1765,0.2448,0.0731,1.1281,1.0051,-0.4037,
0.156705,-0.0574,0.3025,0.9293,-0.1765,0.2448,0.0731,1.1281,1.0051,-0.4037,
0.157339,-0.0574,0.3025,0.9293,-0.3224,0.1772,-0.2917,1.1281,1.0051,-0.4037,
0.157859,-0.0574,0.3025,0.9293,-0.3224,0.1772,-0.2917,1.1127,0.6892,-0.5294,
0.177094,-0.0574,0.3025,0.9293,-0.3224,0.1772,-0.2917,1.1148,0.5268,-0.6626,
0.196880,-0.1129,0.3564,0.9257,-0.3224,0.1772,-0.2917,1.1148,0.5268,-0.6626,
0.199090,-0.1129,0.3564,0.9257,-0.4867,0.3898,-0.2104,1.1148,0.5268,-0.6626,
0.201114,-0.1129,0.3564,0.9257,-0.4867,0.3898,-0.2104,1.2421,0.6993,-0.7159,
0.217467,-0.1129,0.3564,0.9257,-0.4867,0.3898,-0.2104,1.5095,1.0866,-0.7175,
0.236957,-0.2042,0.3928,0.8839,-0.4867,0.3898,-0.2104,1.5095,1.0866,-0.7175,
0.239263,-0.2042,0.3928,0.8839,-0.7716,0.3919,-0.4317,1.5095,1.0866,-0.7175,
0.241030,-0.2042,0.3928,0.8839,-0.7716,0.3919,-0.4317,1.6655,1.1318,-0.7361,
0.257256,-0.2042,0.3928,0.8839,-0.7716,0.3919,-0.4317,1.7268,1.0322,-0.8261,
0.277562,-0.2795,0.4400,0.8744,-0.7716,0.3919,-0.4317,1.7268,1.0322,-0.8261,
0.280860,-0.2795,0.4400,0.8744,-0.8601,0.4961,-0.2674,1.7268,1.0322,-0.8261,
0.282963,-0.2795,0.4400,0.8744,-0.8601,0.4961,-0.2674,1.9047,1.0786,-0.9289,
0.297341,-0.2795,0.4400,0.8744,-0.8601,0.4961,-0.2674,2.0725,1.1100,-0.9827,
0.317747,-0.4449,0.5402,0.6765,-0.8601,0.4961,-0.2674,2.0725,1.1100,-0.9827,
0.319832,-0.4449,0.5402,0.6765,-1.3230,0.7077,-1.4895,2.0725,1.1100,-0.9827,
0.321620,-0.4449,0.5402,0.6765,-1.3230,0.7077,-1.4895,2.0192,1.0887,-0.9103,
0.338335,-0.4449,0.5402,0.6765,-1.3230,0.7077,-1.4895,2.0102,1.0386,-0.7494,
0.357094,-0.4945,0.5575,0.7021,-1.3230,0.7077,-1.4895,2.0102,1.0386,-0.7494,
0.359560,-0.4945,0.5575,0.7021,-1.3055,0.3589,-0.7071,2.0102,1.0386,-0.7494,
0.361122,-0.4945,0.5575,0.7021,-1.3055,0.3589,-0.7071,2.0171,1.0509,-0.6748,
0.377412,-0.4945,0.5575,0.7021,-1.3055,0.3589,-0.7071,1.9904,1.0551,-0.7036,
0.397339,-0.5746,0.6376,0.5492,-1.3055,0.3589,-0.7071,1.9904,1.0551,-0.7036,
0.399820,-0.5746,0.6376,0.5492,-1.6143,0.6649,-1.6074,1.9904,1.0551,-0.7036,
0.401589,-0.5746,0.6376,0.5492,-1.6143,0.6649,-1.6074,1.8333,0.8266,-0.6147,
0.418256,-0.5746,0.6376,0.5492,-1.6143,0.6649,-1.6074,1.6618,0.7468,-0.4735,
0.437417,-0.5617,0.6762,0.5424,-1.6143,0.6649,-1.6074,1.6618,0.7468,-0.4735,
0.439741,-0.5617,0.6762,0.5424,-1.1265,0.6643,-1.1230,1.6618,0.7468,-0.4735,
0.441600,-0.5617,0.6762,0.5424,-1.1265,0.6643,-1.1230,1.6352,0.9039,-0.4133,
0.457882,-0.5617,0.6762,0.5424,-1.1265,0.6643,-1.1230,1.5361,0.8788,-0.2951,
0.476911,-0.5763,0.6411,0.3205,-1.1265,0.6643,-1.1230,1.5361,0.8788,-0.2951,
0.480073,-0.5763,0.6411,0.3205,-0.9452,-0.0103,-2.7289,1.5361,0.8788,-0.2951,
0.482335,-0.5763,0.6411,0.3205,-0.9452,-0.0103,-2.7289,1.3156,0.7510,-0.2605,
0.497488,-0.5763,0.6411,0.3205,-0.9452,-0.0103,-2.7289,1.0264,0.4645,-0.2748,
0.517122,-0.5582,0.6787,0.4715,-0.9452,-0.0103,-2.7289,1.0264,0.4645,-0.2748,
0.519852,-0.5582,0.6787,0.4715,-0.5441,0.1443,-0.8161,1.0264,0.4645,-0.2748,
0.521953,-0.5582,0.6787,0.4715,-0.5441,0.1443,-0.8161,1.0120,0.4762,-0.2386,
0.537477,-0.5582,0.6787,0.4715,-0.5441,0.1443,-0.8161,1.1867,0.5848,-0.2546,
0.557797,-0.5727,0.6748,0.3694,-0.5441,0.1443,-0.8161,1.1867,0.5848,-0.2546,
0.560412,-0.5727,0.6748,0.3694,-0.4944,-0.0755,-1.4046,1.1867,0.5848,-0.2546,
0.562541,-0.5727,0.6748,0.3694,-0.4944,-0.0755,-1.4046,1.1558,0.5614,-0.2988,
0.576741,-0.5727,0.6748,0.3694,-0.4944,-0.0755,-1.4046,0.9715,0.3345,-0.2972,
0.597194,-0.5729,0.6831,0.2917,-0.4944,-0.0755,-1.4046,0.9715,0.3345,-0.2972,
0.600430,-0.5729,0.6831,0.2917,0.2014,-0.2056,-0.9805,0.9715,0.3345,-0.2972,
0.602779,-0.5729,0.6831,0.2917,0.2014,-0.2056,-0.9805,0.8021,0.2392,-0.3095,
0.616953,-0.5729,0.6831,0.2917,0.2014,-0.2056,-0.9805,0.7153,0.2903,-0.3265,
0.636563,-0.5949,0.6770,0.3687,0.2014,-0.2056,-0.9805,0.7153,0.2903,-0.3265,
0.639271,-0.5949,0.6770,0.3687,0.1121,-0.3020,0.0421,0.7153,0.2903,-0.3265,
0.641039,-0.5949,0.6770,0.3687,0.1121,-0.3020,0.0421,0.7372,0.2498,-0.3228,
0.656751,-0.5949,0.6770,0.3687,0.1121,-0.3020,0.0421,0.8197,0.1997,-0.3206,
0.676668,-0.5854,0.6970,0.2939,0.1121,-0.3020,0.0421,0.8197,0.1997,-0.3206,
0.679371,-0.5854,0.6970,0.2939,0.2482,-0.1525,-0.5240,0.8197,0.1997,-0.3206,
0.680916,-0.5854,0.6970,0.2939,0.2482,-0.1525,-0.5240,0.8341,0.2993,-0.3057,
0.696974,-0.5854,0.6970,0.2939,0.2482,-0.1525,-0.5240,0.8533,0.4724,-0.1651,
0.717132,-0.5719,0.7097,0.2392,0.2482,-0.1525,-0.5240,0.8533,0.4724,-0.1651,
0.719972,-0.5719,0.7097,0.2392,0.4134,-0.1571,-0.7166,0.8533,0.4724,-0.1651,
0.721857,-0.5719,0.7097,0.2392,0.4134,-0.1571,-0.7166,0.8005,0.2386,-0.1550,
0.737307,-0.5719,0.7097,0.2392,0.4134,-0.1571,-0.7166,0.5795,-0.1443,-0.2738,
0.756733,-0.5643,0.7341,0.1713,0.4134,-0.1571,-0.7166,0.5795,-0.1443,-0.2738,
0.757872,-0.5643,0.7341,0.1713,0.5522,0.0486,-1.1685,0.5795,-0.1443,-0.2738,
0.758736,-0.5643,0.7341,0.1713,0.5522,0.0486,-1.1685,0.3164,-0.2898,-0.3190,
0.776556,-0.5643,0.7341,0.1713,0.5522,0.0486,-1.1685,0.3941,-0.0330,-0.2972,
0.796658,-0.6389,0.6872,0.4351,0.5522,0.0486,-1.1685,0.3941,-0.0330,-0.2972,
0.799380,-0.6389,0.6872,0.4351,-0.1126,-0.3736,1.4643,0.3941,-0.0330,-0.2972,
0.801097,-0.6389,0.6872,0.4351,-0.1126,-0.3736,1.4643,0.8650,0.3590,-0.2876,
0.816644,-0.6389,0.6872,0.4351,-0.1126,-0.3736,1.4643,1.1308,0.4874,-0.2237,
0.836919,-0.6892,0.8201,-0.0017,-0.1126,-0.3736,1.4643,1.1308,0.4874,-0.2237,
0.839092,-0.6892,0.8201,-0.0017,-0.4896,0.8800,-2.4042,1.1308,0.4874,-0.2237,
0.840781,-0.6892,0.8201,-0.0017,-0.4896,0.8800,-2.4042,0.9119,0.4778,-0.1411,
0.856821,-0.6892,0.8201,-0.0017,-0.4896,0.8800,-2.4042,0.3856,0.1992,-0.1641,
0.876755,-0.6113,0.7236,0.1634,-0.4896,0.8800,-2.4042,0.3856,0.1992,-0.1641,
0.879735,-0.6113,0.7236,0.1634,0.3452,-0.0921,-0.5021,0.3856,0.1992,-0.1641,
0.884705,-0.6113,0.7236,0.1634,0.3452,-0.0921,-0.5021,-0.0458,-0.2003,-0.2882,
0.896167,-0.6113,0.7236,0.1634,0.3452,-0.0921,-0.5021,0.1007,-0.3270,-0.3297,
0.917317,-0.6396,0.7471,0.2008,0.3452,-0.0921,-0.5021,0.1007,-0.3270,-0.3297,
0.919478,-0.6396,0.7471,0.2008,0.1274,0.2053,-0.1833,0.1007,-0.3270,-0.3297,
0.921157,-0.6396,0.7471,0.2008,0.1274,0.2053,-0.1833,0.1928,-0.2519,-0.3297,
0.936608,-0.6396,0.7471,0.2008,0.1274,0.2053,-0.1833,0.2093,-0.1886,-0.2866,
0.956382,-0.6660,0.7212,0.2365,0.1274,0.2053,-0.1833,0.2093,-0.1886,-0.2866,
0.958580,-0.6660,0.7212,0.2365,-0.0659,0.0097,0.1694,0.2093,-0.1886,-0.2866,
0.960367,-0.6660,0.7212,0.2365,-0.0659,0.0097,0.1694,0.2903,-0.1289,-0.1774,
0.976769,-0.6660,0.7212,0.2365,-0.0659,0.0097,0.1694,0.2834,-0.0597,-0.1625,
0.996693,-0.6440,0.7556,0.1234,-0.0659,0.0097,0.1694,0.2834,-0.0597,-0.1625,
0.999044,-0.6440,0.7556,0.1234,0.0249,0.1122,-0.4751,0.2834,-0.0597,-0.1625,
1.000626,-0.6440,0.7556,0.1234,0.0249,0.1122,-0.4751,0.1917,-0.0421,-0.1316,
1.017491,-0.6440,0.7556,0.1234,0.0249,0.1122,-0.4751,0.0154,-0.0874,-0.2258,
1.036064,-0.6384,0.7324,0.3503,0.0249,0.1122,-0.4751,0.0154,-0.0874,-0.2258,
1.038271,-0.6384,0.7324,0.3503,-0.0171,0.0064,1.0214,0.0154,-0.0874,-0.2258,
1.039617,-0.6384,0.7324,0.3503,-0.0171,0.0064,1.0214,0.0852,0.0144,-0.2913,
1.058219,-0.6384,0.7324,0.3503,-0.0171,0.0064,1.0214,0.3798,0.1017,-0.2615,
1.076139,-0.6379,0.7857,0.1708,-0.0171,0.0064,1.0214,0.3798,0.1017,-0.2615,
1.078486,-0.6379,0.7857,0.1708,0.0674,0.5688,-0.6489,0.3798,0.1017,-0.2615,
1.079991,-0.6379,0.7857,0.1708,0.0674,0.5688,-0.6489,0.3707,-0.0091,-0.2732,
1.096584,-0.6379,0.7857,0.1708,0.0674,0.5688,-0.6489,0.0357,-0.1960,-0.3238,
1.116561,-0.5800,0.7495,0.3305,0.0674,0.5688,-0.6489,0.0357,-0.1960,-0.3238,
1.118676,-0.5800,0.7495,0.3305,0.6952,0.2614,0.9381,0.0357,-0.1960,-0.3238,
1.119865,-0.5800,0.7495,0.3305,0.6952,0.2614,0.9381,-0.0352,0.0288,-0.3366,
1.136987,-0.5800,0.7495,0.3305,0.6952,0.2614,0.9381,0.4506,0.7004,-0.3111,
1.155838,-0.6198,0.7757,0.3364,0.6952,0.2614,0.9381,0.4506,0.7004,-0.3111,
1.157931,-0.6198,0.7757,0.3364,0.4112,0.5728,1.1272,0.4506,0.7004,-0.3111,
1.159272,-0.6198,0.7757,0.3364,0.4112,0.5728,1.1272,0.9396,1.0701,-0.3521,
1.175951,-0.6198,0.7757,0.3364,0.4112,0.5728,1.1272,1.2682,1.2032,-0.4053,
1.196149,-0.4183,1.1815,0.0645,0.4112,0.5728,1.1272,1.2682,1.2032,-0.4053,
1.198639,-0.4183,1.1815,0.0645,2.5773,4.5669,-0.9293,1.2682,1.2032,-0.4053,
1.200802,-0.4183,1.1815,0.0645,2.5773,4.5669,-0.9293,1.2304,1.4408,-0.4538,
1.216320,-0.4183,1.1815,0.0645,2.5773,4.5669,-0.9293,1.0099,1.9622,-0.0959,
1.236023,-0.6154,0.9484,0.0381,2.5773,4.5669,-0.9293,1.0099,1.9622,-0.0959,
1.238627,-0.6154,0.9484,0.0381,0.8006,2.3030,-0.4146,1.0099,1.9622,-0.0959,
1.240066,-0.6154,0.9484,0.0381,0.8006,2.3030,-0.4146,0.7878,1.1904,0.4826,
1.255867,-0.6154,0.9484,0.0381,0.8006,2.3030,-0.4146,0.7878,1.2235,1.0759,
1.276003,-0.6218,1.0048,0.0884,0.8006,2.3030,-0.4146,0.7878,1.2235,1.0759,
1.278880,-0.6218,1.0048,0.0884,0.5419,2.6302,0.6273,0.7878,1.2235,1.0759,
1.280402,-0.6218,1.0048,0.0884,0.5419,2.6302,0.6273,0.9199,1.5196,1.3305,
1.296318,-0.6218,1.0048,0.0884,0.5419,2.6302,0.6273,0.8682,1.0301,1.7316,
1.316458,-0.6164,0.8370,0.1261,0.5419,2.6302,0.6273,0.8682,1.0301,1.7316,
1.318367,-0.6164,0.8370,0.1261,0.1386,0.5957,1.5883,0.8682,1.0301,1.7316,
1.319874,-0.6164,0.8370,0.1261,0.1386,0.5957,1.5883,0.8655,0.4075,1.8131,
1.335585,-0.6164,0.8370,0.1261,0.1386,0.5957,1.5883,0.7606,-0.2386,1.7018,
1.355741,-0.6797,0.6916,0.0621,0.1386,0.5957,1.5883,0.7606,-0.2386,1.7018,
1.357967,-0.6797,0.6916,0.0621,-1.0201,-1.2223,1.1996,0.7606,-0.2386,1.7018,
1.360088,-0.6797,0.6916,0.0621,-1.0201,-1.2223,1.1996,0.5294,-0.7766,1.4605,
1.376172,-0.6797,0.6916,0.0621,-1.0201,-1.2223,1.1996,0.3872,-1.0429,1.1180,
1.395864,-0.7573,0.6457,0.1261,-1.0201,-1.2223,1.1996,0.3872,-1.0429,1.1180,
1.398468,-0.7573,0.6457,0.1261,-2.1291,-1.9131,1.7275,0.3872,-1.0429,1.1180,
1.400772,-0.7573,0.6457,0.1261,-2.1291,-1.9131,1.7275,0.3569,-1.2693,0.9369,
1.415654,-0.7573,0.6457,0.1261,-2.1291,-1.9131,1.7275,0.0751,-1.5436,0.7824,
1.436055,-0.8389,0.6501,-0.0980,-2.1291,-1.9131,1.7275,0.0751,-1.5436,0.7824,
1.438196,-0.8389,0.6501,-0.0980,-3.1356,-2.0095,-0.6966,0.0751,-1.5436,0.7824,
1.439897,-0.8389,0.6501,-0.0980,-3.1356,-2.0095,-0.6966,-0.4591,-1.6293,0.4447,
1.456014,-0.8389,0.6501,-0.0980,-3.1356,-2.0095,-0.6966,-0.9827,-1.6868,-0.0202,
1.475700,-0.8680,0.7144,-0.0506,-3.1356,-2.0095,-0.6966,-0.9827,-1.6868,-0.0202,
1.478521,-0.8680,0.7144,-0.0506,-3.4671,-1.4063,-0.8062,-0.9827,-1.6868,-0.0202,
1.480959,-0.8680,0.7144,-0.0506,-3.4671,-1.4063,-0.8062,-1.1707,-1.5292,-0.3734,
1.495778,-0.8680,0.7144,-0.0506,-3.4671,-1.4063,-0.8062,-1.2160,-1.4983,-0.6514,
1.516021,-0.8692,0.6440,-0.1060,-3.4671,-1.4063,-0.8062,-1.2160,-1.4983,-0.6514,
1.518195,-0.8692,0.6440,-0.1060,-3.3291,-1.9488,-2.0457,-1.2160,-1.4983,-0.6514,
1.520418,-0.8692,0.6440,-0.1060,-3.3291,-1.9488,-2.0457,-1.1681,-1.4365,-0.8703,
1.535940,-0.8692,0.6440,-0.1060,-3.3291,-1.9488,-2.0457,-0.9428,-1.2149,-1.1707,
1.555832,-0.9118,0.6242,-0.1212,-3.3291,-1.9488,-2.0457,-0.9428,-1.2149,-1.1707,
1.558731,-0.9118,0.6242,-0.1212,-3.4767,-1.8663,-2.8119,-0.9428,-1.2149,-1.1707,
1.560346,-0.9118,0.6242,-0.1212,-3.4767,-1.8663,-2.8119,-0.5971,-1.1031,-1.4679,
1.575648,-0.9118,0.6242,-0.1212,-3.4767,-1.8663,-2.8119,-0.3696,-1.0067,-1.7113,
1.595982,-0.8077,0.5722,-0.1512,-3.4767,-1.8663,-2.8119,-0.3696,-1.0067,-1.7113,
1.599639,-0.8077,0.5722,-0.1512,-2.0095,-1.9675,-3.4608,-0.3696,-1.0067,-1.7113,
1.601857,-0.8077,0.5722,-0.1512,-2.0095,-1.9675,-3.4608,0.0389,-0.9135,-1.8221,
1.616377,-0.8077,0.5722,-0.1512,-2.0095,-1.9675,-3.4608,0.6562,-0.7958,-1.9382,
1.635887,-0.7317,0.5023,-0.1131,-2.0095,-1.9675,-3.4608,0.6562,-0.7958,-1.9382,
1.638198,-0.7317,0.5023,-0.1131,-0.7404,-2.2000,-3.1317,0.6562,-0.7958,-1.9382,
1.640072,-0.7317,0.5023,-0.1131,-0.7404,-2.2000,-3.1317,1.1755,-0.7350,-2.1289,
1.655956,-0.7317,0.5023,-0.1131,-0.7404,-2.2000,-3.1317,1.5649,-0.7798,-2.1779,
1.675546,-0.4737,0.4769,-0.0403,-0.7404,-2.2000,-3.1317,1.5649,-0.7798,-2.1779,
1.678701,-0.4737,0.4769,-0.0403,2.3215,-1.9788,-2.2449,1.5649,-0.7798,-2.1779,
1.680629,-0.4737,0.4769,-0.0403,2.3215,-1.9788,-2.2449,1.5659,-0.5214,-1.8568,
1.696095,-0.4737,0.4769,-0.0403,2.3215,-1.9788,-2.2449,1.0887,-0.0650,-1.3587,
1.715974,-0.3298,0.4146,0.1727,2.3215,-1.9788,-2.2449,1.0887,-0.0650,-1.3587,
1.718319,-0.3298,0.4146,0.1727,4.1266,-2.2213,0.1029,1.0887,-0.0650,-1.3587,
1.719713,-0.3298,0.4146,0.1727,4.1266,-2.2213,0.1029,0.6583,0.2924,-0.8538,
1.735967,-0.3298,0.4146,0.1727,4.1266,-2.2213,0.1029,0.5683,0.6418,-0.3622,
1.755485,-0.5172,0.3963,0.1068,4.1266,-2.2213,0.1029,0.5683,0.6418,-0.3622,
1.757897,-0.5172,0.3963,0.1068,2.4677,-2.2558,-0.2522,0.5683,0.6418,-0.3622,
1.759808,-0.5172,0.3963,0.1068,2.4677,-2.2558,-0.2522,0.9332,0.2274,0.2077,
1.775628,-0.5172,0.3963,0.1068,2.4677,-2.2558,-0.2522,1.5835,-0.3148,0.5912,
1.795586,-0.6789,0.6298,0.0012,2.4677,-2.2558,-0.2522,1.5835,-0.3148,0.5912,
1.798124,-0.6789,0.6298,0.0012,0.7822,-0.1431,-0.9865,1.5835,-0.3148,0.5912,
1.799550,-0.6789,0.6298,0.0012,0.7822,-0.1431,-0.9865,2.8091,-0.2764,0.8815,
1.815190,-0.6789,0.6298,0.0012,0.7822,-0.1431,-0.9865,3.1148,-0.4922,1.1452,
1.835828,-0.6042,0.5956,-0.3112,0.7822,-0.1431,-0.9865,3.1148,-0.4922,1.1452,
1.837991,-0.6042,0.5956,-0.3112,1.2416,-0.8527,-3.3912,3.1148,-0.4922,1.1452,
1.839767,-0.6042,0.5956,-0.3112,1.2416,-0.8527,-3.3912,2.9577,-0.4985,1.4397,
1.856103,-0.6042,0.5956,-0.3112,1.2416,-0.8527,-3.3912,2.4815,-0.8719,2.2648,
1.875278,-0.6606,0.7754,-0.2128,1.2416,-0.8527,-3.3912,2.4815,-0.8719,2.2648,
1.877962,-0.6606,0.7754,-0.2128,0.1746,0.3940,-1.8568,2.4815,-0.8719,2.2648,
1.879707,-0.6606,0.7754,-0.2128,0.1746,0.3940,-1.8568,1.8749,-1.6842,3.1463,
1.895404,-0.6606,0.7754,-0.2128,0.1746,0.3940,-1.8568,1.8317,-1.5462,3.5708,
1.915585,-0.4183,0.8673,-0.1551,0.1746,0.3940,-1.8568,1.8317,-1.5462,3.5708,
1.918455,-0.4183,0.8673,-0.1551,1.5476,0.4918,-1.1138,1.8317,-1.5462,3.5708,
1.920136,-0.4183,0.8673,-0.1551,1.5476,0.4918,-1.1138,2.2775,0.2429,3.1708,
1.935156,-0.4183,0.8673,-0.1551,1.5476,0.4918,-1.1138,1.7641,-0.1816,3.2187,
1.955026,-0.3970,0.9919,-0.2775,1.5476,0.4918,-1.1138,1.7641,-0.1816,3.2187,
1.957873,-0.3970,0.9919,-0.2775,0.7000,1.1275,-1.5984,1.7641,-0.1816,3.2187,
1.960389,-0.3970,0.9919,-0.2775,0.7000,1.1275,-1.5984,1.1723,-0.7430,3.3897,
1.975047,-0.3970,0.9919,-0.2775,0.7000,1.1275,-1.5984,1.4088,-0.2455,2.7111,
1.995204,-0.3992,0.8387,-0.3926,0.7000,1.1275,-1.5984,1.4088,-0.2455,2.7111,
1.997980,-0.3992,0.8387,-0.3926,-0.3383,-0.7810,-2.3005,1.4088,-0.2455,2.7111,
2.000295,-0.3992,0.8387,-0.3926,-0.3383,-0.7810,-2.3005,1.2639,-0.4096,2.3931,
2.017830,-0.3992,0.8387,-0.3926,-0.3383,-0.7810,-2.3005,0.2301,-0.8410,2.1236,
2.034989,-0.2475,1.7575,0.0139,-0.3383,-0.7810,-2.3005,0.2301,-0.8410,2.1236,
2.038159,-0.2475,1.7575,0.0139,0.3689,7.9862,1.8767,0.2301,-0.8410,2.1236,
2.039860,-0.2475,1.7575,0.0139,0.3689,7.9862,1.8767,0.2200,0.2535,1.5185,
2.054824,-0.2475,1.7575,0.0139,0.3689,7.9862,1.8767,0.8256,-0.2626,0.9252,
2.074729,-0.1283,1.3610,-0.6657,0.3689,7.9862,1.8767,0.8256,-0.2626,0.9252,
2.076722,-0.1283,1.3610,-0.6657,1.0848,4.0139,-4.5888,0.8256,-0.2626,0.9252,
2.078176,-0.1283,1.3610,-0.6657,1.0848,4.0139,-4.5888,0.4586,-0.2360,0.4421,
2.095154,-0.1283,1.3610,-0.6657,1.0848,4.0139,-4.5888,-0.2546,-0.0565,0.2594,
2.116156,-0.0518,1.0781,-0.2128,1.0848,4.0139,-4.5888,-0.2546,-0.0565,0.2594,
2.118048,-0.0518,1.0781,-0.2128,1.7150,1.2174,-0.1255,-0.2546,-0.0565,0.2594,
2.119687,-0.0518,1.0781,-0.2128,1.7150,1.2174,-0.1255,-0.3435,-0.2024,0.2200,
2.135618,-0.0518,1.0781,-0.2128,1.7150,1.2174,-0.1255,-0.2599,-0.5358,0.0980,
2.154898,-0.0112,0.7732,-0.2353,1.7150,1.2174,-0.1255,-0.2599,-0.5358,0.0980,
2.156744,-0.0112,0.7732,-0.2353,2.0596,-1.8097,-0.4780,-0.2599,-0.5358,0.0980,
2.158622,-0.0112,0.7732,-0.2353,2.0596,-1.8097,-0.4780,-0.3121,-0.2482,0.1625,
2.175451,-0.0112,0.7732,-0.2353,2.0596,-1.8097,-0.4780,-0.2695,0.1204,0.3185,
2.194832,-0.1112,0.6604,-0.1717,2.0596,-1.8097,-0.4780,-0.2695,0.1204,0.3185,
2.196830,-0.1112,0.6604,-0.1717,0.9946,-2.9568,0.0296,-0.2695,0.1204,0.3185,
2.198611,-0.1112,0.6604,-0.1717,0.9946,-2.9568,0.0296,-0.3047,0.4597,0.7904,
2.215265,-0.1112,0.6604,-0.1717,0.9946,-2.9568,0.0296,-0.0889,0.4655,1.1175,
2.234927,-0.1510,0.8106,-0.0931,0.9946,-2.9568,0.0296,-0.0889,0.4655,1.1175,
2.237899,-0.1510,0.8106,-0.0931,0.2122,-1.5696,0.7614,-0.0889,0.4655,1.1175,
2.239748,-0.1510,0.8106,-0.0931,0.2122,-1.5696,0.7614,0.2764,0.0362,1.2980,
2.255305,-0.1510,0.8106,-0.0931,0.2122,-1.5696,0.7614,0.3361,0.1715,1.3870,
2.274595,-0.0743,0.9203,-0.3508,0.2122,-1.5696,0.7614,0.3361,0.1715,1.3870,
2.276696,-0.0743,0.9203,-0.3508,0.4445,-0.5493,-1.6369,0.3361,0.1715,1.3870,
2.278557,-0.0743,0.9203,-0.3508,0.4445,-0.5493,-1.6369,0.0597,0.1497,1.5457,
2.295070,-0.0743,0.9203,-0.3508,0.4445,-0.5493,-1.6369,-0.1268,-0.2967,1.6895,
2.315185,-0.0765,1.2313,-0.2472,0.4445,-0.5493,-1.6369,-0.1268,-0.2967,1.6895,
2.317905,-0.0765,1.2313,-0.2472,-0.1874,2.4422,-0.6280,-0.1268,-0.2967,1.6895,
2.319459,-0.0765,1.2313,-0.2472,-0.1874,2.4422,-0.6280,-0.1529,-0.6237,1.5888,
2.334492,-0.0765,1.2313,-0.2472,-0.1874,2.4422,-0.6280,-0.2120,-0.4996,1.1633,
2.354701,0.0757,1.3102,-0.1417,-0.1874,2.4422,-0.6280,-0.2120,-0.4996,1.1633,
2.357282,0.0757,1.3102,-0.1417,0.8138,3.1853,0.3291,-0.2120,-0.4996,1.1633,
2.359066,0.0757,1.3102,-0.1417,0.8138,3.1853,0.3291,-0.1241,0.0847,0.4341,
2.375098,0.0757,1.3102,-0.1417,0.8138,3.1853,0.3291,0.0192,0.5422,-0.1246,
2.394538,0.4366,1.2157,-0.2231,0.8138,3.1853,0.3291,0.0192,0.5422,-0.1246,
2.397526,0.4366,1.2157,-0.2231,4.2692,2.2549,-0.4885,0.0192,0.5422,-0.1246,
2.399169,0.4366,1.2157,-0.2231,4.2692,2.2549,-0.4885,0.0197,0.8352,-0.9550,
2.415903,0.4366,1.2157,-0.2231,4.2692,2.2549,-0.4885,-0.2578,0.7169,-1.8392,
2.434209,-0.3034,0.5793,-0.2384,4.2692,2.2549,-0.4885,-0.2578,0.7169,-1.8392,
2.436192,-0.3034,0.5793,-0.2384,-2.4994,-3.9752,-0.6674,-0.2578,0.7169,-1.8392,
2.438153,-0.3034,0.5793,-0.2384,-2.4994,-3.9752,-0.6674,-0.0996,1.2112,-1.2208,
2.454994,-0.3034,0.5793,-0.2384,-2.4994,-3.9752,-0.6674,-0.0719,0.7473,-0.4975,
2.474404,-0.2577,0.6569,-0.3552,-2.4994,-3.9752,-0.6674,-0.0719,0.7473,-0.4975,
2.477071,-0.2577,0.6569,-0.3552,-1.7860,-3.1986,-1.8205,-0.0719,0.7473,-0.4975,
2.479101,-0.2577,0.6569,-0.3552,-1.7860,-3.1986,-1.8205,-0.3814,0.1145,-0.0426,
2.494210,-0.2577,0.6569,-0.3552,-1.7860,-3.1986,-1.8205,-0.8725,-0.1257,-0.0325,
2.514297,-0.1153,0.9113,-0.2233,-1.7860,-3.1986,-1.8205,-0.8725,-0.1257,-0.0325,
2.516422,-0.1153,0.9113,-0.2233,-0.3757,-0.7437,-0.7695,-0.8725,-0.1257,-0.0325,
2.518928,-0.1153,0.9113,-0.2233,-0.3757,-0.7437,-0.7695,-1.2693,-0.1731,-0.1704,
2.534067,-0.1153,0.9113,-0.2233,-0.3757,-0.7437,-0.7695,-1.4386,0.0234,-0.2573,
2.554779,-0.1261,0.9513,0.0789,-0.3757,-0.7437,-0.7695,-1.4386,0.0234,-0.2573,
2.556759,-0.1261,0.9513,0.0789,-0.3922,-0.4064,1.6662,-1.4386,0.0234,-0.2573,
2.558657,-0.1261,0.9513,0.0789,-0.3922,-0.4064,1.6662,-1.3342,-0.3739,-0.3180,
2.574966,-0.1261,0.9513,0.0789,-0.3922,-0.4064,1.6662,-1.0866,-0.6072,-0.1917,
2.594331,-0.1505,0.9352,0.0794,-0.3922,-0.4064,1.6662,-1.0866,-0.6072,-0.1917,
2.596490,-0.1505,0.9352,0.0794,-0.5163,-0.5864,1.1813,-1.0866,-0.6072,-0.1917,
2.598585,-0.1505,0.9352,0.0794,-0.5163,-0.5864,1.1813,-0.9268,-0.3883,-0.0410,
2.613999,-0.1505,0.9352,0.0794,-0.5163,-0.5864,1.1813,-0.8245,-0.2365,0.0453,
2.634438,-0.0897,0.9027,0.0748,-0.5163,-0.5864,1.1813,-0.8245,-0.2365,0.0453,
2.638085,-0.0897,0.9027,0.0748,0.0837,-0.9126,0.7813,-0.8245,-0.2365,0.0453,
2.639863,-0.0897,0.9027,0.0748,0.0837,-0.9126,0.7813,-0.8250,-0.3792,0.1017,
2.654068,-0.0897,0.9027,0.0748,0.0837,-0.9126,0.7813,-0.8256,-0.6168,0.2248,
2.673894,-0.0288,0.9882,0.0911,0.0837,-0.9126,0.7813,-0.8256,-0.6168,0.2248,
2.676179,-0.0288,0.9882,0.0911,0.6125,-0.0768,0.5992,-0.8256,-0.6168,0.2248,
2.677769,-0.0288,0.9882,0.0911,0.6125,-0.0768,0.5992,-0.7824,-0.7915,0.4021,
2.694281,-0.0288,0.9882,0.0911,0.6125,-0.0768,0.5992,-0.6732,-0.8687,0.6088,
2.714730,0.0415,1.1944,0.1190,0.6125,-0.0768,0.5992,-0.6732,-0.8687,0.6088,
2.716538,0.0415,1.1944,0.1190,1.0817,1.9407,0.5595,-0.6732,-0.8687,0.6088,
2.718152,0.0415,1.1944,0.1190,1.0817,1.9407,0.5595,-0.4804,-0.9257,0.8069,
2.734546,0.0415,1.1944,0.1190,1.0817,1.9407,0.5595,-0.0842,-0.6258,0.9561,
2.754318,0.1329,1.2054,0.0787,1.0817,1.9407,0.5595,-0.0842,-0.6258,0.9561,
2.756090,0.1329,1.2054,0.0787,1.6119,2.0386,0.0384,-0.0842,-0.6258,0.9561,
2.757625,0.1329,1.2054,0.0787,1.6119,2.0386,0.0384,0.7111,0.7995,0.7265,
2.774774,0.1329,1.2054,0.0787,1.6119,2.0386,0.0384,1.3683,1.9558,0.1220,
2.794059,-0.0704,0.9699,-0.2309,1.6119,2.0386,0.0384,1.3683,1.9558,0.1220,
2.796343,-0.0704,0.9699,-0.2309,-0.5196,-0.2956,-2.5628,1.3683,1.9558,0.1220,
2.798361,-0.0704,0.9699,-0.2309,-0.5196,-0.2956,-2.5628,1.6799,2.4160,-0.2913,
2.814198,-0.0704,0.9699,-0.2309,-0.5196,-0.2956,-2.5628,1.1212,2.1561,-0.4570,
2.834483,-0.2751,1.0139,-0.7187,-0.5196,-0.2956,-2.5628,1.1212,2.1561,-0.4570,
2.836529,-0.2751,1.0139,-0.7187,-2.3789,0.1382,-6.7714,1.1212,2.1561,-0.4570,
2.838401,-0.2751,1.0139,-0.7187,-2.3789,0.1382,-6.7714,0.1119,1.8882,-0.4096,
2.853628,-0.2751,1.0139,-0.7187,-2.3789,0.1382,-6.7714,-0.5167,1.4898,-0.2471,
2.873543,0.0721,1.0119,-0.2318,-2.3789,0.1382,-6.7714,-0.5167,1.4898,-0.2471,
2.876367,0.0721,1.0119,-0.2318,1.1322,0.1226,-2.0223,-0.5167,1.4898,-0.2471,
2.878387,0.0721,1.0119,-0.2318,1.1322,0.1226,-2.0223,-0.5545,0.8187,-0.1784,
2.894371,0.0721,1.0119,-0.2318,1.1322,0.1226,-2.0223,-0.3020,0.1012,-0.1699,
2.914399,0.2905,1.0471,-0.1371,1.1322,0.1226,-2.0223,-0.3020,0.1012,-0.1699,
2.916298,0.2905,1.0471,-0.1371,3.3172,0.4669,-1.2244,-0.3020,0.1012,-0.1699,
2.917968,0.2905,1.0471,-0.1371,3.3172,0.4669,-1.2244,-0.0724,-0.3388,-0.3079,
2.934795,0.2905,1.0471,-0.1371,3.3172,0.4669,-1.2244,-0.0746,-0.4224,-0.4740,
2.954416,0.2424,1.0412,-0.1698,3.3172,0.4669,-1.2244,-0.0746,-0.4224,-0.4740,
2.956312,0.2424,1.0412,-0.1698,2.9773,0.4165,-1.5631,-0.0746,-0.4224,-0.4740,
2.957967,0.2424,1.0412,-0.1698,2.9773,0.4165,-1.5631,-0.2349,-0.2743,-0.5305,
2.973495,0.2424,1.0412,-0.1698,2.9773,0.4165,-1.5631,-0.3931,-0.2312,-0.5151,
2.993645,0.1903,1.0014,-0.0662,2.9773,0.4165,-1.5631,-0.3931,-0.2312,-0.5151,
2.996380,0.1903,1.0014,-0.0662,2.6273,0.0369,-0.6522,-0.3931,-0.2312,-0.5151,
2.998345,0.1903,1.0014,-0.0662,2.6273,0.0369,-0.6522,-0.4389,-0.2439,-0.4969,
3.013610,0.1903,1.0014,-0.0662,2.6273,0.0369,-0.6522,-0.3425,-0.2019,-0.5252,
3.034765,0.1517,1.0107,-0.0498,2.6273,0.0369,-0.6522,-0.3425,-0.2019,-0.5252,
3.037413,0.1517,1.0107,-0.0498,2.3913,0.1409,-0.6261,-0.3425,-0.2019,-0.5252,
3.039418,0.1517,1.0107,-0.0498,2.3913,0.1409,-0.6261,-0.1875,-0.1129,-0.5577,
3.054029,0.1517,1.0107,-0.0498,2.3913,0.1409,-0.6261,-0.0357,0.0059,-0.5880,
3.073577,0.1256,1.0749,-0.0945,2.3913,0.1409,-0.6261,-0.0357,0.0059,-0.5880,
3.076254,0.1256,1.0749,-0.0945,2.3202,0.7900,-1.0928,-0.0357,0.0059,-0.5880,
3.077963,0.1256,1.0749,-0.0945,2.3202,0.7900,-1.0928,0.0682,0.0746,-0.5630,
3.094186,0.1256,1.0749,-0.0945,2.3202,0.7900,-1.0928,0.0943,-0.0330,-0.4288,
3.115096,0.0958,1.0056,-0.0772,2.3202,0.7900,-1.0928,0.0943,-0.0330,-0.4288,
3.117030,0.0958,1.0056,-0.0772,2.1657,0.1256,-0.8680,0.0943,-0.0330,-0.4288,
3.118773,0.0958,1.0056,-0.0772,2.1657,0.1256,-0.8680,-0.0660,-0.1832,-0.3212,
3.133496,0.0958,1.0056,-0.0772,2.1657,0.1256,-0.8680,-0.3755,-0.2125,-0.3766,
3.154301,-0.0955,1.1160,0.0266,2.1657,0.1256,-0.8680,-0.3755,-0.2125,-0.3766,
3.156270,-0.0955,1.1160,0.0266,0.4028,1.2239,0.0615,-0.3755,-0.2125,-0.3766,
3.157599,-0.0955,1.1160,0.0266,0.4028,1.2239,0.0615,-0.6392,-0.2796,-0.3244,
3.173587,-0.0955,1.1160,0.0266,0.4028,1.2239,0.0615,-0.8480,-0.2844,-0.3276,
3.194866,-0.3276,1.1204,0.1141,0.4028,1.2239,0.0615,-0.8480,-0.2844,-0.3276,
3.196642,-0.3276,1.1204,0.1141,-1.7499,1.2956,0.6153,-0.8480,-0.2844,-0.3276,
3.198667,-0.3276,1.1204,0.1141,-1.7499,1.2956,0.6153,-1.1606,-0.1683,-0.3361,
3.213332,-0.3276,1.1204,0.1141,-1.7499,1.2956,0.6153,-1.5105,-0.3638,-0.1726,
3.233577,-0.4823,0.8240,0.4485,-1.7499,1.2956,0.6153,-1.5105,-0.3638,-0.1726,
3.236203,-0.4823,0.8240,0.4485,-3.1468,-1.5449,3.3366,-1.5105,-0.3638,-0.1726,
3.238146,-0.4823,0.8240,0.4485,-3.1468,-1.5449,3.3366,-1.7348,-0.6418,0.1065,
3.253205,-0.4823,0.8240,0.4485,-3.1468,-1.5449,3.3366,-1.4786,0.0607,0.3633,
3.273076,-0.4454,0.7715,0.6931,-3.1468,-1.5449,3.3366,-1.4786,0.0607,0.3633,
3.273949,-0.4454,0.7715,0.6931,-2.8538,-1.9720,5.0568,-1.4786,0.0607,0.3633,
3.275209,-0.4454,0.7715,0.6931,-2.8538,-1.9720,5.0568,-0.9140,1.1372,0.2461,
3.293345,-0.4454,0.7715,0.6931,-2.8538,-1.9720,5.0568,-0.3276,1.2581,-0.0261,
3.312954,-0.4908,0.9440,0.4705,-2.8538,-1.9720,5.0568,-0.3276,1.2581,-0.0261,
3.315044,-0.4908,0.9440,0.4705,-3.2468,-0.2410,2.7070,-0.3276,1.2581,-0.0261,
3.316638,-0.4908,0.9440,0.4705,-3.2468,-0.2410,2.7070,0.0772,0.6599,-0.1225,
3.333025,-0.4908,0.9440,0.4705,-3.2468,-0.2410,2.7070,0.2381,0.0634,-0.0858,
3.353198,-0.3916,0.9034,0.2033,-3.2468,-0.2410,2.7070,0.2381,0.0634,-0.0858,
3.355271,-0.3916,0.9034,0.2033,-2.1679,-0.6314,0.1447,0.2381,0.0634,-0.0858,
3.357126,-0.3916,0.9034,0.2033,-2.1679,-0.6314,0.1447,0.2637,-0.1561,0.0474,
3.374067,-0.3916,0.9034,0.2033,-2.1679,-0.6314,0.1447,0.2029,-0.1662,0.1188,
3.393116,-0.3227,0.8651,0.0826,-2.1679,-0.6314,0.1447,0.2029,-0.1662,0.1188,
3.396373,-0.3227,0.8651,0.0826,-1.4621,-1.0131,-0.9794,0.2029,-0.1662,0.1188,
3.398606,-0.3227,0.8651,0.0826,-1.4621,-1.0131,-0.9794,0.1140,-0.0336,0.1220,
3.415521,-0.3227,0.8651,0.0826,-1.4621,-1.0131,-0.9794,0.0149,-0.0863,0.1209,
3.433983,-0.3296,0.9025,0.1302,-1.4621,-1.0131,-0.9794,0.0149,-0.0863,0.1209,
3.437461,-0.3296,0.9025,0.1302,0.2895,-0.1175,-0.5877,0.0149,-0.0863,0.1209,
3.439896,-0.3296,0.9025,0.1302,0.2895,-0.1175,-0.5877,-0.0181,-0.3127,0.1507,
3.454499,-0.3296,0.9025,0.1302,0.2895,-0.1175,-0.5877,0.0847,-0.5513,0.2509,
3.473029,-0.2336,0.9157,0.2309,0.2895,-0.1175,-0.5877,0.0847,-0.5513,0.2509,
3.476066,-0.2336,0.9157,0.2309,1.1144,-0.0219,0.3463,0.0847,-0.5513,0.2509,
3.477849,-0.2336,0.9157,0.2309,1.1144,-0.0219,0.3463,0.2466,-0.8064,0.3712,
3.493556,-0.2336,0.9157,0.2309,1.1144,-0.0219,0.3463,0.4357,-1.0493,0.5289,
3.513463,-0.0779,0.9821,0.2934,1.1144,-0.0219,0.3463,0.4357,-1.0493,0.5289,
3.515707,-0.0779,0.9821,0.2934,2.3660,0.5341,0.9423,0.4357,-1.0493,0.5289,
3.517823,-0.0779,0.9821,0.2934,2.3660,0.5341,0.9423,0.6306,-1.3018,0.7254,
3.533517,-0.0779,0.9821,0.2934,2.3660,0.5341,0.9423,0.9225,-1.1718,0.9539,
3.552835,0.0711,1.0698,0.2504,2.3660,0.5341,0.9423,0.9225,-1.1718,0.9539,
3.555802,0.0711,1.0698,0.2504,3.3719,1.2250,0.6426,0.9225,-1.1718,0.9539,
3.557858,0.0711,1.0698,0.2504,3.3719,1.2250,0.6426,1.2788,-0.5167,1.0780,
3.572978,0.0711,1.0698,0.2504,3.3719,1.2250,0.6426,1.3918,0.2413,1.0104,
3.593645,-0.0647,1.1651,0.0555,3.3719,1.2250,0.6426,1.3918,0.2413,1.0104,
3.596600,-0.0647,1.1651,0.0555,1.6290,1.9690,-0.7852,1.3918,0.2413,1.0104,
3.598623,-0.0647,1.1651,0.0555,1.6290,1.9690,-0.7852,1.1079,1.1457,0.8730,
3.617214,-0.0647,1.1651,0.0555,1.6290,1.9690,-0.7852,0.3537,2.5385,0.8527,
3.632824,-0.3943,1.1355,0.1156,1.6290,1.9690,-0.7852,0.3537,2.5385,0.8527,
3.635849,-0.3943,1.1355,0.1156,-1.8513,1.5724,0.2361,0.3537,2.5385,0.8527,
3.637735,-0.3943,1.1355,0.1156,-1.8513,1.5724,0.2361,0.0495,4.9727,0.5838,
3.653220,-0.3943,1.1355,0.1156,-1.8513,1.5724,0.2361,0.6088,5.5921,0.4133,
3.673788,-0.2343,0.9262,0.0054,-1.8513,1.5724,0.2361,0.6088,5.5921,0.4133,
3.675980,-0.2343,0.9262,0.0054,-0.3347,-0.5253,-0.3080,0.6088,5.5921,0.4133,
3.677899,-0.2343,0.9262,0.0054,-0.3347,-0.5253,-0.3080,1.1713,4.0150,0.7915,
3.692738,-0.2343,0.9262,0.0054,-0.3347,-0.5253,-0.3080,1.6346,1.6245,1.2330,
3.712840,0.1449,0.8521,-0.3147,-0.3347,-0.5253,-0.3080,1.6346,1.6245,1.2330,
3.715391,0.1449,0.8521,-0.3147,2.9785,-1.3228,-2.6860,1.6346,1.6245,1.2330,
3.717203,0.1449,0.8521,-0.3147,2.9785,-1.3228,-2.6860,1.5942,-1.0067,1.5867,
3.733589,0.1449,0.8521,-0.3147,2.9785,-1.3228,-2.6860,1.1686,-2.1678,1.6336,
3.752996,0.4224,0.9633,-0.4859,2.9785,-1.3228,-2.6860,1.1686,-2.1678,1.6336,
3.755368,0.4224,0.9633,-0.4859,5.0414,-0.2821,-3.8498,1.1686,-2.1678,1.6336,
3.757171,0.4224,0.9633,-0.4859,5.0414,-0.2821,-3.8498,0.4991,-1.4562,1.2970,
3.772725,0.4224,0.9633,-0.4859,5.0414,-0.2821,-3.8498,-0.3638,-0.3686,0.7015,
3.792703,0.2314,0.8604,-0.1160,5.0414,-0.2821,-3.8498,-0.3638,-0.3686,0.7015,
3.795422,0.2314,0.8604,-0.1160,2.7697,-1.3169,-0.2043,-0.3638,-0.3686,0.7015,
3.797091,0.2314,0.8604,-0.1160,2.7697,-1.3169,-0.2043,-1.0205,0.0138,0.3579,
3.813304,0.2314,0.8604,-0.1160,2.7697,-1.3169,-0.2043,-1.3811,-0.3712,0.2727,
3.832699,0.1424,0.9821,0.1104,2.7697,-1.3169,-0.2043,-1.3811,-0.3712,0.2727,
3.835555,0.1424,0.9821,0.1104,1.7300,-0.1652,1.5487,-1.3811,-0.3712,0.2727,
3.837052,0.1424,0.9821,0.1104,1.7300,-0.1652,1.5487,-1.3635,-0.8325,0.3787,
3.853109,0.1424,0.9821,0.1104,1.7300,-0.1652,1.5487,-0.8895,-0.6956,0.5342,
3.872680,0.2467,1.0195,0.1187,1.7300,-0.1652,1.5487,-0.8895,-0.6956,0.5342,
3.875962,0.2467,1.0195,0.1187,2.4984,0.1847,1.1752,-0.8895,-0.6956,0.5342,
3.877459,0.2467,1.0195,0.1187,2.4984,0.1847,1.1752,-0.2258,-0.3143,0.4629,
3.892409,0.2467,1.0195,0.1187,2.4984,0.1847,1.1752,-0.0655,-0.2258,0.2455,
3.912686,0.1016,0.8761,-0.0159,2.4984,0.1847,1.1752,-0.0655,-0.2258,0.2455,
3.915798,0.1016,0.8761,-0.0159,0.9082,-1.2205,-0.2006,-0.0655,-0.2258,0.2455,
3.917608,0.1016,0.8761,-0.0159,0.9082,-1.2205,-0.2006,-0.2205,-0.2988,0.0490,
3.933126,0.1016,0.8761,-0.0159,0.9082,-1.2205,-0.2006,-0.4053,-0.4186,-0.0011,
3.952769,0.0452,0.9440,-0.0064,0.9082,-1.2205,-0.2006,-0.4053,-0.4186,-0.0011,
3.955026,0.0452,0.9440,-0.0064,0.3262,-0.5534,-0.2251,-0.4053,-0.4186,-0.0011,
3.956816,0.0452,0.9440,-0.0064,0.3262,-0.5534,-0.2251,-0.4879,-0.5124,0.1300,
3.973047,0.0452,0.9440,-0.0064,0.3262,-0.5534,-0.2251,-0.4655,-0.5971,0.3015,
3.992391,0.2482,0.9704,0.0107,0.3262,-0.5534,-0.2251,-0.4655,-0.5971,0.3015,
3.995352,0.2482,0.9704,0.0107,2.1855,-0.2879,-0.2327,-0.4655,-0.5971,0.3015,
3.997395,0.2482,0.9704,0.0107,2.1855,-0.2879,-0.2327,-0.4256,-0.6770,0.3233,
4.013663,0.2482,0.9704,0.0107,2.1855,-0.2879,-0.2327,-0.3143,-0.5262,0.1177,
4.032735,0.2008,0.9017,-0.0286,2.1855,-0.2879,-0.2327,-0.3143,-0.5262,0.1177,
4.035035,0.2008,0.9017,-0.0286,1.5954,-0.9516,-0.7447,-0.3143,-0.5262,0.1177,
4.036822,0.2008,0.9017,-0.0286,1.5954,-0.9516,-0.7447,-0.0714,-0.1422,-0.1039,
4.052345,0.2008,0.9017,-0.0286,1.5954,-0.9516,-0.7447,0.1316,0.0341,-0.3089,
4.072711,0.0244,0.9076,-0.1893,1.5954,-0.9516,-0.7447,0.1316,0.0341,-0.3089,
4.076670,0.0244,0.9076,-0.1893,-0.0650,-0.8978,-2.2904,0.1316,0.0341,-0.3089,
4.078939,0.0244,0.9076,-0.1893,-0.0650,-0.8978,-2.2904,0.0740,-0.0272,-0.4831,
4.092503,0.0244,0.9076,-0.1893,-0.0650,-0.8978,-2.2904,-0.3526,-0.1720,-0.4469,
4.111981,0.0770,0.9780,-0.1065,-0.0650,-0.8978,-2.2904,-0.3526,-0.1720,-0.4469,
4.115053,0.0770,0.9780,-0.1065,0.6105,-0.2110,-1.5006,-0.3526,-0.1720,-0.4469,
4.116690,0.0770,0.9780,-0.1065,0.6105,-0.2110,-1.5006,-0.6828,-0.1007,-0.4202,
4.133177,0.0770,0.9780,-0.1065,0.6105,-0.2110,-1.5006,-0.6434,0.0474,-0.5156,
4.151997,0.1415,1.0202,0.0540,0.6105,-0.2110,-1.5006,-0.6434,0.0474,-0.5156,
4.154910,0.1415,1.0202,0.0540,1.3844,0.2152,-0.1523,-0.6434,0.0474,-0.5156,
4.156501,0.1415,1.0202,0.0540,1.3844,0.2152,-0.1523,-0.3196,0.1150,-0.5784,
4.172099,0.1415,1.0202,0.0540,1.3844,0.2152,-0.1523,0.1076,0.2594,-0.6977,
4.192256,0.1749,0.9882,-0.0188,1.3844,0.2152,-0.1523,0.1076,0.2594,-0.6977,
4.195358,0.1749,0.9882,-0.0188,1.9062,-0.0962,-0.8704,0.1076,0.2594,-0.6977,
4.197060,0.1749,0.9882,-0.0188,1.9062,-0.0962,-0.8704,0.4059,0.2205,-0.8533,
4.216484,0.1749,0.9882,-0.0188,1.9062,-0.0962,-0.8704,0.3404,-0.2455,-0.9497,
4.232240,0.1549,1.0566,-0.0999,1.9062,-0.0962,-0.8704,0.3404,-0.2455,-0.9497,
4.234593,0.1549,1.0566,-0.0999,2.0040,0.5736,-1.4882,0.3404,-0.2455,-0.9497,
4.236233,0.1549,1.0566,-0.0999,2.0040,0.5736,-1.4882,-0.0277,-0.8293,-0.8932,
4.252652,0.1549,1.0566,-0.0999,2.0040,0.5736,-1.4882,-0.3670,-1.0461,-0.7984,
4.272279,0.1461,1.1326,0.0149,2.0040,0.5736,-1.4882,-0.3670,-1.0461,-0.7984,
4.275128,0.1461,1.1326,0.0149,2.2059,1.3420,-0.4560,-0.3670,-1.0461,-0.7984,
4.276710,0.1461,1.1326,0.0149,2.2059,1.3420,-0.4560,-0.5561,-0.9699,-0.7015,
4.292146,0.1461,1.1326,0.0149,2.2059,1.3420,-0.4560,-0.5422,-0.7324,-0.5827,
4.312601,0.0882,0.9946,0.0862,2.2059,1.3420,-0.4560,-0.5422,-0.7324,-0.5827,
4.314744,0.0882,0.9946,0.0862,1.8139,0.0217,0.0140,-0.5422,-0.7324,-0.5827,
4.316249,0.0882,0.9946,0.0862,1.8139,0.0217,0.0140,-0.3462,-0.4293,-0.4953,
4.332992,0.0882,0.9946,0.0862,1.8139,0.0217,0.0140,-0.0602,-0.2562,-0.5539,
4.352295,-0.0420,0.8575,0.0369,1.8139,0.0217,0.0140,-0.0602,-0.2562,-0.5539,
4.354331,-0.0420,0.8575,0.0369,0.6896,-1.2984,-0.5477,-0.0602,-0.2562,-0.5539,
4.356072,-0.0420,0.8575,0.0369,0.6896,-1.2984,-0.5477,0.1561,-0.2668,-0.6306,
4.371737,-0.0420,0.8575,0.0369,0.6896,-1.2984,-0.5477,0.2045,-0.2365,-0.6716,
4.392195,-0.0528,0.8873,-0.0608,0.6896,-1.2984,-0.5477,0.2045,-0.2365,-0.6716,
4.394085,-0.0528,0.8873,-0.0608,0.8120,-0.9839,-1.4374,0.2045,-0.2365,-0.6716,
4.395476,-0.0528,0.8873,-0.0608,0.8120,-0.9839,-1.4374,0.1028,-0.1310,-0.7340,
4.414853,-0.0528,0.8873,-0.0608,0.8120,-0.9839,-1.4374,-0.0751,-0.0581,-0.9204,
4.433028,-0.0919,0.9042,-0.0677,0.8120,-0.9839,-1.4374,-0.0751,-0.0581,-0.9204,
4.437127,-0.0919,0.9042,-0.0677,0.7357,-0.7724,-1.4956,-0.0751,-0.0581,-0.9204,
4.439794,-0.0919,0.9042,-0.0677,0.7357,-0.7724,-1.4956,-0.3270,-0.1609,-1.2613,
4.451870,-0.0919,0.9042,-0.0677,0.7357,-0.7724,-1.4956,-0.5880,-0.4874,-1.5015,
4.472511,-0.2573,1.0999,-0.0474,0.7357,-0.7724,-1.4956,-0.5880,-0.4874,-1.5015,
4.474834,-0.2573,1.0999,-0.0474,-0.4014,1.2540,-1.4430,-0.5880,-0.4874,-1.5015,
4.476651,-0.2573,1.0999,-0.0474,-0.4014,1.2540,-1.4430,-0.9193,-0.7771,-1.5867,
4.491989,-0.2573,1.0999,-0.0474,-0.4014,1.2540,-1.4430,-1.1388,-0.8714,-1.4552,
4.511782,-0.2194,1.0991,0.2458,-0.4014,1.2540,-1.4430,-1.1388,-0.8714,-1.4552,
4.514850,-0.2194,1.0991,0.2458,0.4845,1.4348,0.9751,-1.1388,-0.8714,-1.4552,
4.516785,-0.2194,1.0991,0.2458,0.4845,1.4348,0.9751,-1.1041,-1.1713,-1.1926,
4.531931,-0.2194,1.0991,0.2458,0.4845,1.4348,0.9751,-0.9060,-1.8259,-0.7883,
4.552088,0.0423,1.0036,0.3359,0.4845,1.4348,0.9751,-0.9060,-1.8259,-0.7883,
4.555389,0.0423,1.0036,0.3359,3.2644,0.6612,1.3222,-0.9060,-1.8259,-0.7883,
4.556906,0.0423,1.0036,0.3359,3.2644,0.6612,1.3222,-0.5902,-2.0682,-0.3132,
4.571614,0.0423,1.0036,0.3359,3.2644,0.6612,1.3222,-0.1545,-0.9864,-0.0911,
4.591619,0.0464,0.8025,0.2463,3.2644,0.6612,1.3222,-0.1545,-0.9864,-0.0911,
4.594785,0.0464,0.8025,0.2463,3.1999,-1.2698,0.1347,-0.1545,-0.9864,-0.0911,
4.596728,0.0464,0.8025,0.2463,3.1999,-1.2698,0.1347,0.3249,0.5342,-0.3569,
4.615244,0.0464,0.8025,0.2463,3.1999,-1.2698,0.1347,0.5699,0.8581,-0.5129,
4.631503,-0.2946,1.0046,0.1673,3.1999,-1.2698,0.1347,0.5699,0.8581,-0.5129,
4.633608,-0.2946,1.0046,0.1673,0.0207,0.7027,-0.3929,0.5699,0.8581,-0.5129,
4.635278,-0.2946,1.0046,0.1673,0.0207,0.7027,-0.3929,0.5593,0.6924,-0.7052,
4.651422,-0.2946,1.0046,0.1673,0.0207,0.7027,-0.3929,0.3515,0.6461,-0.8836,
4.671330,-0.6489,0.9943,-0.0010,0.0207,0.7027,-0.3929,0.3515,0.6461,-0.8836,
4.673773,-0.6489,0.9943,-0.0010,-3.1080,0.6629,-1.7782,0.3515,0.6461,-0.8836,
4.675666,-0.6489,0.9943,-0.0010,-3.1080,0.6629,-1.7782,-0.1433,0.8469,-0.7878,
4.691736,-0.6489,0.9943,-0.0010,-3.1080,0.6629,-1.7782,-0.7814,1.2165,-0.4064,
4.711581,-0.5719,0.9110,0.2160,-3.1080,0.6629,-1.7782,-0.7814,1.2165,-0.4064,
4.714610,-0.5719,0.9110,0.2160,-2.0557,-0.0373,0.3281,-0.7814,1.2165,-0.4064,
4.716333,-0.5719,0.9110,0.2160,-2.0557,-0.0373,0.3281,-1.1665,1.0621,-0.1454,
4.731933,-0.5719,0.9110,0.2160,-2.0557,-0.0373,0.3281,-0.9928,0.3633,-0.1300,
4.751483,-0.3403,0.9975,0.2800,-2.0557,-0.0373,0.3281,-0.9928,0.3633,-0.1300,
4.754729,-0.3403,0.9975,0.2800,0.3171,0.9128,0.6741,-0.9928,0.3633,-0.1300,
4.756362,-0.3403,0.9975,0.2800,0.3171,0.9128,0.6741,-0.5459,-0.2551,-0.1566,
4.771654,-0.3403,0.9975,0.2800,0.3171,0.9128,0.6741,-0.0975,-0.4107,-0.2322,
4.793737,-0.2822,0.8592,0.1004,0.3171,0.9128,0.6741,-0.0975,-0.4107,-0.2322,
4.795873,-0.2822,0.8592,0.1004,0.9171,-0.3966,-1.2231,-0.0975,-0.4107,-0.2322,
4.797732,-0.2822,0.8592,0.1004,0.9171,-0.3966,-1.2231,0.1257,-0.2040,-0.2498,
4.813168,-0.2822,0.8592,0.1004,0.9171,-0.3966,-1.2231,0.1305,-0.1337,-0.1880,
4.831220,-0.2841,0.8678,0.1341,0.9171,-0.3966,-1.2231,0.1305,-0.1337,-0.1880,
4.834490,-0.2841,0.8678,0.1341,0.9480,-0.3010,-0.8554,0.1305,-0.1337,-0.1880,
4.836760,-0.2841,0.8678,0.1341,0.9480,-0.3010,-0.8554,0.0368,-0.2605,-0.1065,
4.851566,-0.2841,0.8678,0.1341,0.9480,-0.3010,-0.8554,-0.0378,-0.2924,-0.0570,
4.872034,-0.3601,0.8990,0.2568,0.9480,-0.3010,-0.8554,-0.0378,-0.2924,-0.0570,
4.875050,-0.3601,0.8990,0.2568,-0.1419,-0.1811,0.5553,-0.0378,-0.2924,-0.0570,
4.876809,-0.3601,0.8990,0.2568,-0.1419,-0.1811,0.5553,-0.0655,-0.3004,0.0011,
4.891492,-0.3601,0.8990,0.2568,-0.1419,-0.1811,0.5553,-0.0282,-0.2157,0.0570,
4.911464,-0.3904,0.8954,0.2629,-0.1419,-0.1811,0.5553,-0.0282,-0.2157,0.0570,
4.913968,-0.3904,0.8954,0.2629,-0.2622,-0.0878,0.3566,-0.0282,-0.2157,0.0570,
4.915755,-0.3904,0.8954,0.2629,-0.2622,-0.0878,0.3566,0.0591,-0.1193,0.0884,
4.931560,-0.3904,0.8954,0.2629,-0.2622,-0.0878,0.3566,0.0991,-0.1971,0.1103,
4.951434,-0.3836,0.9166,0.1813,-0.2622,-0.0878,0.3566,0.0991,-0.1971,0.1103,
4.953618,-0.3836,0.9166,0.1813,-0.1245,0.1017,-0.2444,0.0991,-0.1971,0.1103,
4.955473,-0.3836,0.9166,0.1813,-0.1245,0.1017,-0.2444,0.0905,-0.2679,0.1273,
4.972028,-0.3836,0.9166,0.1813,-0.1245,0.1017,-0.2444,0.0980,-0.2541,0.1300,
4.991827,-0.3990,0.9030,0.1605,-0.1245,0.1017,-0.2444,0.0980,-0.2541,0.1300,
4.994370,-0.3990,0.9030,0.1605,-0.3124,-0.0534,-0.4212,0.0980,-0.2541,0.1300,
4.996324,-0.3990,0.9030,0.1605,-0.3124,-0.0534,-0.4212,0.1198,-0.2860,0.1305,
5.014200,-0.3990,0.9030,0.1605,-0.3124,-0.0534,-0.4212,0.1449,-0.3782,0.1491,
5.031000,-0.4317,0.8983,0.1522,-0.3124,-0.0534,-0.4212,0.1449,-0.3782,0.1491,
5.033392,-0.4317,0.8983,0.1522,-0.6252,-0.1091,-0.4416,0.1449,-0.3782,0.1491,
5.035452,-0.4317,0.8983,0.1522,-0.6252,-0.1091,-0.4416,0.1806,-0.4256,0.1710,
5.051295,-0.4317,0.8983,0.1522,-0.6252,-0.1091,-0.4416,0.2162,-0.4362,0.1779,
5.071556,-0.4439,0.9049,0.1478,-0.6252,-0.1091,-0.4416,0.2162,-0.4362,0.1779,
5.074892,-0.4439,0.9049,0.1478,-0.7332,-0.0554,-0.4112,0.2162,-0.4362,0.1779,
5.076886,-0.4439,0.9049,0.1478,-0.7332,-0.0554,-0.4112,0.2418,-0.4400,0.1870,
5.091044,-0.4439,0.9049,0.1478,-0.7332,-0.0554,-0.4112,0.2535,-0.4325,0.1965,
5.111031,-0.4324,0.8995,0.1546,-0.7332,-0.0554,-0.4112,0.2535,-0.4325,0.1965,
5.113502,-0.4324,0.8995,0.1546,-0.6071,-0.1186,-0.2651,0.2535,-0.4325,0.1965,
5.115427,-0.4324,0.8995,0.1546,-0.6071,-0.1186,-0.2651,0.2807,-0.4565,0.1864,
5.131132,-0.4324,0.8995,0.1546,-0.6071,-0.1186,-0.2651,0.3265,-0.5103,0.1651,
5.150966,-0.4141,0.9345,0.1695,-0.6071,-0.1186,-0.2651,0.3265,-0.5103,0.1651,
5.153823,-0.4141,0.9345,0.1695,-0.4426,0.2046,-0.0524,0.3265,-0.5103,0.1651,
5.155561,-0.4141,0.9345,0.1695,-0.4426,0.2046,-0.0524,0.3542,-0.6003,0.1513,
5.171368,-0.4141,0.9345,0.1695,-0.4426,0.2046,-0.0524,0.3494,-0.6120,0.1188,
5.190821,-0.4718,1.1016,0.1986,-0.4426,0.2046,-0.0524,0.3494,-0.6120,0.1188,
5.193512,-0.4718,1.1016,0.1986,-1.0970,1.7992,0.2722,0.3494,-0.6120,0.1188,
5.195070,-0.4718,1.1016,0.1986,-1.0970,1.7992,0.2722,0.3276,-0.5183,0.0943,
5.214523,-0.4718,1.1016,0.1986,-1.0970,1.7992,0.2722,0.3260,-0.3121,0.1284,
5.231438,-0.5292,0.9919,0.0760,-1.0970,1.7992,0.2722,0.3260,-0.3121,0.1284,
5.233542,-0.5292,0.9919,0.0760,-1.7271,0.6871,-0.8700,0.3260,-0.3121,0.1284,
5.235466,-0.5292,0.9919,0.0760,-1.7271,0.6871,-0.8700,0.2269,0.1113,0.1907,
5.251254,-0.5292,0.9919,0.0760,-1.7271,0.6871,-0.8700,-0.0218,0.4895,0.1694,
5.270756,-0.4974,0.9499,-0.0144,-1.7271,0.6871,-0.8700,-0.0218,0.4895,0.1694,
5.273108,-0.4974,0.9499,-0.0144,-1.4589,0.2449,-1.6748,-0.0218,0.4895,0.1694,
5.274960,-0.4974,0.9499,-0.0144,-1.4589,0.2449,-1.6748,-0.2056,0.5806,0.0698,
5.290817,-0.4974,0.9499,-0.0144,-1.4589,0.2449,-1.6748,-0.2748,0.4719,-0.1262,
5.310377,-0.4698,1.0124,0.1043,-1.4589,0.2449,-1.6748,-0.2748,0.4719,-0.1262,
5.312646,-0.4698,1.0124,0.1043,-1.1458,0.8765,-0.5261,-0.2748,0.4719,-0.1262,
5.314639,-0.4698,1.0124,0.1043,-1.1458,0.8765,-0.5261,-0.2887,0.3441,-0.2940,
5.330306,-0.4698,1.0124,0.1043,-1.1458,0.8765,-0.5261,-0.2977,0.0320,-0.3324,
5.350079,-0.2839,0.9118,0.3633,-1.1458,0.8765,-0.5261,-0.2977,0.0320,-0.3324,
5.351763,-0.2839,0.9118,0.3633,0.8021,-0.0460,1.9281,-0.2977,0.0320,-0.3324,
5.352823,-0.2839,0.9118,0.3633,0.8021,-0.0460,1.9281,-0.1651,-0.6232,-0.2221,
5.369967,-0.2839,0.9118,0.3633,0.8021,-0.0460,1.9281,0.1294,-1.2522,-0.1188,
5.390752,-0.0305,0.8866,0.3819,0.8021,-0.0460,1.9281,0.1294,-1.2522,-0.1188,
5.394362,-0.0305,0.8866,0.3819,3.2356,-0.2775,1.9299,0.1294,-1.2522,-0.1188,
5.396388,-0.0305,0.8866,0.3819,3.2356,-0.2775,1.9299,0.4282,-1.3976,-0.0991,
5.410955,-0.0305,0.8866,0.3819,3.2356,-0.2775,1.9299,0.6003,-1.2037,-0.1001,
5.430622,0.1021,1.0625,0.2094,3.2356,-0.2775,1.9299,0.6003,-1.2037,-0.1001,
5.432775,0.1021,1.0625,0.2094,4.4059,1.3996,0.2230,0.6003,-1.2037,-0.1001,
5.434467,0.1021,1.0625,0.2094,4.4059,1.3996,0.2230,0.5944,-0.8085,-0.0810,
5.450947,0.1021,1.0625,0.2094,4.4059,1.3996,0.2230,0.4416,-0.1374,-0.0314,
5.470495,0.0039,1.0517,-0.0252,4.4059,1.3996,0.2230,0.4416,-0.1374,-0.0314,
5.473084,0.0039,1.0517,-0.0252,3.3617,1.2381,-1.9439,0.4416,-0.1374,-0.0314,
5.474999,0.0039,1.0517,-0.0252,3.3617,1.2381,-1.9439,0.2264,0.7904,0.0128,
5.490790,0.0039,1.0517,-0.0252,3.3617,1.2381,-1.9439,-0.0064,1.3822,0.0192,
5.510934,-0.1783,0.9425,0.0198,3.3617,1.2381,-1.9439,-0.0064,1.3822,0.0192,
5.514875,-0.1783,0.9425,0.0198,1.5605,0.1260,-1.2956,-0.0064,1.3822,0.0192,
5.517178,-0.1783,0.9425,0.0198,1.5605,0.1260,-1.2956,-0.1230,1.4663,-0.0490,
5.531553,-0.1783,0.9425,0.0198,1.5605,0.1260,-1.2956,-0.0261,1.6325,-0.3457,
5.550714,-0.4874,1.0170,0.1124,1.5605,0.1260,-1.2956,-0.0261,1.6325,-0.3457,
5.552815,-0.4874,1.0170,0.1124,-1.3322,0.8773,-0.1965,-0.0261,1.6325,-0.3457,
5.554718,-0.4874,1.0170,0.1124,-1.3322,0.8773,-0.1965,0.2642,1.6607,-0.8400,
5.570351,-0.4874,1.0170,0.1124,-1.3322,0.8773,-0.1965,0.4298,0.9268,-0.9151,
5.590377,-0.4964,0.7776,0.1522,-1.3322,0.8773,-0.1965,0.4298,0.9268,-0.9151,
5.593498,-0.4964,0.7776,0.1522,-1.0479,-1.3580,0.5002,0.4298,0.9268,-0.9151,
5.595496,-0.4964,0.7776,0.1522,-1.0479,-1.3580,0.5002,0.4288,0.1119,-0.6514,
5.615144,-0.4964,0.7776,0.1522,-1.0479,-1.3580,0.5002,0.4133,-0.0586,-0.2290,
5.630960,-0.4095,0.9044,0.1608,-1.0479,-1.3580,0.5002,0.4133,-0.0586,-0.2290,
5.634247,-0.4095,0.9044,0.1608,-0.0430,-0.0630,0.7193,0.4133,-0.0586,-0.2290,
5.636673,-0.4095,0.9044,0.1608,-0.0430,-0.0630,0.7193,0.3595,0.2573,0.1209,
5.650563,-0.4095,0.9044,0.1608,-0.0430,-0.0630,0.7193,0.2115,0.6019,0.3100,
5.670623,-0.3711,0.9369,0.1422,-0.0430,-0.0630,0.7193,0.2115,0.6019,0.3100,
5.673636,-0.3711,0.9369,0.1422,0.2614,0.2115,0.6803,0.2115,0.6019,0.3100,
5.675064,-0.3711,0.9369,0.1422,0.2614,0.2115,0.6803,0.0309,0.9012,0.4900,
5.690627,-0.3711,0.9369,0.1422,0.2614,0.2115,0.6803,-0.0453,1.3193,0.5731,
5.710050,-0.1754,0.6660,0.0694,0.2614,0.2115,0.6803,-0.0453,1.3193,0.5731,
5.712145,-0.1754,0.6660,0.0694,2.0156,-2.5246,0.1333,-0.0453,1.3193,0.5731,
5.713910,-0.1754,0.6660,0.0694,2.0156,-2.5246,0.1333,-0.1486,1.5164,0.5396,
5.730345,-0.1754,0.6660,0.0694,2.0156,-2.5246,0.1333,-0.2024,1.6309,0.4469,
5.749957,-0.0789,0.7339,-0.0899,2.0156,-2.5246,0.1333,-0.2024,1.6309,0.4469,
5.752101,-0.0789,0.7339,-0.0899,2.8113,-1.9279,-1.2617,-0.2024,1.6309,0.4469,
5.752941,-0.0789,0.7339,-0.0899,2.8113,-1.9279,-1.2617,-0.2642,1.7129,0.2029,
5.769930,-0.0789,0.7339,-0.0899,2.8113,-1.9279,-1.2617,-0.4517,1.7896,-0.1891,
5.790088,-0.0960,0.7801,-0.1840,2.8113,-1.9279,-1.2617,-0.4517,1.7896,-0.1891,
5.792395,-0.0960,0.7801,-0.1840,2.6631,-1.4720,-2.0637,-0.4517,1.7896,-0.1891,
5.794302,-0.0960,0.7801,-0.1840,2.6631,-1.4720,-2.0637,-0.4762,2.0895,-0.7515,
5.809966,-0.0960,0.7801,-0.1840,2.6631,-1.4720,-2.0637,-0.4410,2.4980,-1.2421,
5.830350,-0.6547,0.9850,-0.4112,2.6631,-1.4720,-2.0637,-0.4410,2.4980,-1.2421,
5.832635,-0.6547,0.9850,-0.4112,-2.4393,0.6895,-4.0499,-0.4410,2.4980,-1.2421,
5.834557,-0.6547,0.9850,-0.4112,-2.4393,0.6895,-4.0499,-0.5209,2.8656,-1.3939,
5.849993,-0.6547,0.9850,-0.4112,-2.4393,0.6895,-4.0499,-0.6946,2.8709,-0.8394,
5.869794,-0.5621,1.0078,-0.0315,-2.4393,0.6895,-4.0499,-0.6946,2.8709,-0.8394,
5.872180,-0.5621,1.0078,-0.0315,-1.1516,1.0949,-0.0391,-0.6946,2.8709,-0.8394,
5.873976,-0.5621,1.0078,-0.0315,-1.1516,1.0949,-0.0391,-0.5827,2.0853,-0.3515,
5.889761,-0.5621,1.0078,-0.0315,-1.1516,1.0949,-0.0391,-0.2679,1.2575,-0.2913,
5.909977,-0.5275,0.9890,0.0428,-1.1516,1.0949,-0.0391,-0.2679,1.2575,-0.2913,
5.912271,-0.5275,0.9890,0.0428,-0.7217,0.9614,0.8342,-0.2679,1.2575,-0.2913,
5.913938,-0.5275,0.9890,0.0428,-0.7217,0.9614,0.8342,0.0543,0.7132,-0.3638,
5.929974,-0.5275,0.9890,0.0428,-0.7217,0.9614,0.8342,0.3377,0.3036,-0.2988,
5.949897,-0.3579,1.0532,0.1046,-0.7217,0.9614,0.8342,0.3377,0.3036,-0.2988,
5.952607,-0.3579,1.0532,0.1046,1.0414,1.6524,1.5950,0.3377,0.3036,-0.2988,
5.954567,-0.3579,1.0532,0.1046,1.0414,1.6524,1.5950,0.4511,-0.4746,-0.0889,
5.969411,-0.3579,1.0532,0.1046,1.0414,1.6524,1.5950,0.3856,-1.7343,0.1656,
5.989497,-0.2028,1.3131,0.3286,1.0414,1.6524,1.5950,0.3856,-1.7343,0.1656,
5.992042,-0.2028,1.3131,0.3286,2.5735,4.2024,3.7340,0.3856,-1.7343,0.1656,
5.993598,-0.2028,1.3131,0.3286,2.5735,4.2024,3.7340,0.3121,-3.1250,0.3494,
6.009463,-0.2028,1.3131,0.3286,2.5735,4.2024,3.7340,0.3372,-4.1678,0.6802,
6.029502,-0.0037,1.2408,0.5529,2.5735,4.2024,3.7340,0.3372,-4.1678,0.6802,
6.031641,-0.0037,1.2408,0.5529,4.3812,3.4047,5.3891,0.3372,-4.1678,0.6802,
6.033202,-0.0037,1.2408,0.5529,4.3812,3.4047,5.3891,0.8394,-3.1942,0.7649,
6.050206,-0.0037,1.2408,0.5529,4.3812,3.4047,5.3891,0.9273,-2.0549,0.5071,
6.069665,-0.1402,0.9560,0.3826,4.3812,3.4047,5.3891,0.9273,-2.0549,0.5071,
6.072708,-0.1402,0.9560,0.3826,2.8062,0.4992,3.5806,0.9273,-2.0549,0.5071,
6.074549,-0.1402,0.9560,0.3826,2.8062,0.4992,3.5806,0.9241,-0.3728,0.4953,
6.089582,-0.1402,0.9560,0.3826,2.8062,0.4992,3.5806,0.8187,1.0445,0.4282,
6.111336,-0.2998,0.9049,0.2819,2.8062,0.4992,3.5806,0.8187,1.0445,0.4282,
6.113291,-0.2998,0.9049,0.2819,1.0667,-0.0819,2.9409,0.8187,1.0445,0.4282,
6.115076,-0.2998,0.9049,0.2819,1.0667,-0.0819,2.9409,0.6184,1.5382,0.3878,
6.129120,-0.2998,0.9049,0.2819,1.0667,-0.0819,2.9409,0.3137,1.2666,0.3425,
6.149752,-0.4283,0.7977,0.0945,1.0667,-0.0819,2.9409,0.3137,1.2666,0.3425,
6.152596,-0.4283,0.7977,0.0945,-0.3641,-1.1968,1.4056,0.3137,1.2666,0.3425,
6.154454,-0.4283,0.7977,0.0945,-0.3641,-1.1968,1.4056,-0.0229,0.8421,0.3867,
6.169803,-0.4283,0.7977,0.0945,-0.3641,-1.1968,1.4056,-0.3451,0.7505,0.3888,
6.189361,-0.4031,0.6867,0.0217,-0.3641,-1.1968,1.4056,-0.3451,0.7505,0.3888,
6.192051,-0.4031,0.6867,0.0217,-0.2742,-2.3458,0.7450,-0.3451,0.7505,0.3888,
6.193584,-0.4031,0.6867,0.0217,-0.2742,-2.3458,0.7450,-0.5784,0.9374,0.2929,
6.209223,-0.4031,0.6867,0.0217,-0.2742,-2.3458,0.7450,-0.7057,1.2346,0.1896,
6.229817,-0.4722,0.7273,0.0083,-0.2742,-2.3458,0.7450,-0.7057,1.2346,0.1896,
6.232024,-0.4722,0.7273,0.0083,-1.0608,-1.9960,0.5367,-0.7057,1.2346,0.1896,
6.233824,-0.4722,0.7273,0.0083,-1.0608,-1.9960,0.5367,-0.7563,1.4637,0.1374,
6.250250,-0.4722,0.7273,0.0083,-1.0608,-1.9960,0.5367,-0.6860,1.3550,0.1316,
6.269231,-0.4263,0.8873,0.0303,-1.0608,-1.9960,0.5367,-0.6860,1.3550,0.1316,
6.272196,-0.4263,0.8873,0.0303,-0.6745,-0.4559,0.6777,-0.6860,1.3550,0.1316,
6.274098,-0.4263,0.8873,0.0303,-0.6745,-0.4559,0.6777,-0.4772,1.0376,0.1182,
6.289424,-0.4263,0.8873,0.0303,-0.6745,-0.4559,0.6777,-0.2562,0.6908,0.0629,
6.309552,-0.3037,0.8910,-0.0594,-0.6745,-0.4559,0.6777,-0.2562,0.6908,0.0629,
6.311897,-0.3037,0.8910,-0.0594,0.4861,-0.4364,-0.2202,-0.2562,0.6908,0.0629,
6.313737,-0.3037,0.8910,-0.0594,0.4861,-0.4364,-0.2202,-0.0618,0.4559,0.0405,
6.329430,-0.3037,0.8910,-0.0594,0.4861,-0.4364,-0.2202,0.0842,0.4016,0.0256,
6.349339,-0.3225,0.9359,-0.1656,0.4861,-0.4364,-0.2202,0.0842,0.4016,0.0256,
6.352895,-0.3225,0.9359,-0.1656,0.2853,0.0008,-1.1937,0.0842,0.4016,0.0256,
6.354599,-0.3225,0.9359,-0.1656,0.2853,0.0008,-1.1937,0.0346,0.2131,0.0234,
6.369821,-0.3225,0.9359,-0.1656,0.2853,0.0008,-1.1937,-0.0858,0.1092,0.0373,
6.389731,-0.4136,0.8526,-0.0589,0.2853,0.0008,-1.1937,-0.0858,0.1092,0.0373,
6.392496,-0.4136,0.8526,-0.0589,-0.6125,-0.8165,-0.1303,-0.0858,0.1092,0.0373,
6.394570,-0.4136,0.8526,-0.0589,-0.6125,-0.8165,-0.1303,-0.1571,0.1486,0.0037,
6.414159,-0.4136,0.8526,-0.0589,-0.6125,-0.8165,-0.1303,-0.1992,0.1140,-0.0533,
6.428941,-0.4358,0.8773,0.0750,-0.6125,-0.8165,-0.1303,-0.1992,0.1140,-0.0533,
6.431422,-0.4358,0.8773,0.0750,-0.8073,-0.5686,1.1256,-0.1992,0.1140,-0.0533,
6.433242,-0.4358,0.8773,0.0750,-0.8073,-0.5686,1.1256,-0.1427,0.2312,-0.0591,
6.448873,-0.4358,0.8773,0.0750,-0.8073,-0.5686,1.1256,0.0186,0.2722,-0.0767,
6.469090,-0.3845,0.8553,0.1202,-0.8073,-0.5686,1.1256,0.0186,0.2722,-0.0767,
6.473019,-0.3845,0.8553,0.1202,0.2873,-0.5321,0.6691,0.0186,0.2722,-0.0767,
6.474548,-0.3845,0.8553,0.1202,0.2873,-0.5321,0.6691,0.1720,0.1039,-0.1246,
6.489556,-0.3845,0.8553,0.1202,0.2873,-0.5321,0.6691,0.2120,-0.0368,-0.1667,
6.509800,-0.3958,0.8956,0.1099,0.2873,-0.5321,0.6691,0.2120,-0.0368,-0.1667,
6.513312,-0.3958,0.8956,0.1099,0.2271,-0.1176,0.6336,0.2120,-0.0368,-0.1667,
6.517105,-0.3958,0.8956,0.1099,0.2271,-0.1176,0.6336,0.1795,-0.0858,-0.1635,
6.528593,-0.3958,0.8956,0.1099,0.2271,-0.1176,0.6336,0.1374,-0.0708,-0.1454,
6.548948,-0.4754,1.0491,0.0989,0.2271,-0.1176,0.6336,0.1374,-0.0708,-0.1454,
6.552011,-0.4754,1.0491,0.0989,-0.5028,1.4078,0.5607,0.1374,-0.0708,-0.1454,
6.554031,-0.4754,1.0491,0.0989,-0.5028,1.4078,0.5607,0.0304,0.0117,-0.0921,
6.568919,-0.4754,1.0491,0.0989,-0.5028,1.4078,0.5607,-0.1625,0.1976,-0.0330,
6.589273,-0.4092,0.9909,0.0750,-0.5028,1.4078,0.5607,-0.1625,0.1976,-0.0330,
6.591466,-0.4092,0.9909,0.0750,0.1652,0.8475,0.3146,-0.1625,0.1976,-0.0330,
6.592958,-0.4092,0.9909,0.0750,0.1652,0.8475,0.3146,-0.3462,0.3670,-0.0112,
6.609434,-0.4092,0.9909,0.0750,0.1652,0.8475,0.3146,-0.3910,0.3968,-0.0101,
6.628640,-0.3833,0.9623,0.0181,0.1652,0.8475,0.3146,-0.3910,0.3968,-0.0101,
6.631648,-0.3833,0.9623,0.0181,0.4214,0.5720,-0.3103,-0.3910,0.3968,-0.0101,
6.633426,-0.3833,0.9623,0.0181,0.4214,0.5720,-0.3103,-0.3435,0.3372,0.0096,
6.649198,-0.3833,0.9623,0.0181,0.4214,0.5720,-0.3103,-0.2344,0.3217,0.0234,
6.668746,-0.4625,1.0913,-0.0493,0.4214,0.5720,-0.3103,-0.2344,0.3217,0.0234,
6.671586,-0.4625,1.0913,-0.0493,-0.3533,1.8393,-1.0183,-0.2344,0.3217,0.0234,
6.673546,-0.4625,1.0913,-0.0493,-0.3533,1.8393,-1.0183,-0.0618,0.3537,0.0447,
6.688826,-0.4625,1.0913,-0.0493,-0.3533,1.8393,-1.0183,0.1268,0.4400,0.0884,
6.709140,-0.4529,1.0092,-0.0318,-0.3533,1.8393,-1.0183,0.1268,0.4400,0.0884,
6.711551,-0.4529,1.0092,-0.0318,-0.2755,1.0232,-0.7683,0.1268,0.4400,0.0884,
6.713351,-0.4529,1.0092,-0.0318,-0.2755,1.0232,-0.7683,0.2535,0.2679,0.1577,
6.729002,-0.4529,1.0092,-0.0318,-0.2755,1.0232,-0.7683,0.2157,-0.1380,0.2194,
6.749085,-0.3061,0.9809,0.0513,-0.2755,1.0232,-0.7683,0.2157,-0.1380,0.2194,
6.751474,-0.3061,0.9809,0.0513,1.0907,0.7073,0.1423,0.2157,-0.1380,0.2194,
6.753017,-0.3061,0.9809,0.0513,1.0907,0.7073,0.1423,0.0985,-0.4810,0.2019,
6.768453,-0.3061,0.9809,0.0513,1.0907,0.7073,0.1423,0.0826,-0.7409,0.1731,
6.789265,-0.1437,0.8529,0.1752,1.0907,0.7073,0.1423,0.0826,-0.7409,0.1731,
6.791429,-0.1437,0.8529,0.1752,2.5681,-0.5955,1.2757,0.0826,-0.7409,0.1731,
6.793156,-0.1437,0.8529,0.1752,2.5681,-0.5955,1.2757,0.1763,-0.9816,0.1380,
6.812230,-0.1437,0.8529,0.1752,2.5681,-0.5955,1.2757,0.2631,-1.0690,0.1401,
6.828979,-0.0831,0.9166,0.1639,2.5681,-0.5955,1.2757,0.2631,-1.0690,0.1401,
6.831128,-0.0831,0.9166,0.1639,3.0517,-0.0134,1.0671,0.2631,-1.0690,0.1401,
6.832822,-0.0831,0.9166,0.1639,3.0517,-0.0134,1.0671,0.2882,-0.8629,0.1284,
6.849144,-0.0831,0.9166,0.1639,3.0517,-0.0134,1.0671,0.2392,-0.1870,0.1182,
6.868581,-0.1766,1.0517,0.0814,3.0517,-0.0134,1.0671,0.2392,-0.1870,0.1182,
6.871760,-0.1766,1.0517,0.0814,2.0053,1.2564,0.2531,0.2392,-0.1870,0.1182,
6.873481,-0.1766,1.0517,0.0814,2.0053,1.2564,0.2531,0.0660,0.6360,0.1204,
6.888629,-0.1766,1.0517,0.0814,2.0053,1.2564,0.2531,-0.1406,1.1004,0.1742,
6.908937,-0.2387,0.9687,0.0484,2.0053,1.2564,0.2531,-0.1406,1.1004,0.1742,
6.911106,-0.2387,0.9687,0.0484,1.2969,0.3961,0.0311,-0.1406,1.1004,0.1742,
6.912664,-0.2387,0.9687,0.0484,1.2969,0.3961,0.0311,-0.2557,1.2757,0.1459,
6.928555,-0.2387,0.9687,0.0484,1.2969,0.3961,0.0311,0.2711,2.0666,-0.1422,
6.948942,-0.4569,0.9328,-0.1178,1.2969,0.3961,0.0311,0.2711,2.0666,-0.1422,
6.951009,-0.4569,0.9328,-0.1178,-0.8403,0.0357,-1.3422,0.2711,2.0666,-0.1422,
6.952732,-0.4569,0.9328,-0.1178,-0.8403,0.0357,-1.3422,1.2320,3.1367,-0.3100,
6.968267,-0.4569,0.9328,-0.1178,-0.8403,0.0357,-1.3422,1.2448,2.8522,-0.1683,
6.988523,-0.3694,0.8790,-0.3413,-0.8403,0.0357,-1.3422,1.2448,2.8522,-0.1683,
6.991242,-0.3694,0.8790,-0.3413,0.0608,-0.4459,-2.6144,1.2448,2.8522,-0.1683,
6.993079,-0.3694,0.8790,-0.3413,0.0608,-0.4459,-2.6144,0.7393,1.6645,-0.2008,
7.008320,-0.3694,0.8790,-0.3413,0.0608,-0.4459,-2.6144,0.4948,0.9646,-0.1715,
7.029007,-0.3164,0.8451,-0.2609,0.0608,-0.4459,-2.6144,0.4948,0.9646,-0.1715,
7.034439,-0.3164,0.8451,-0.2609,0.5888,-0.7290,-1.3870,0.4948,0.9646,-0.1715,
7.036698,-0.3164,0.8451,-0.2609,0.5888,-0.7290,-1.3870,0.3233,0.6935,-0.0804,
7.048920,-0.3164,0.8451,-0.2609,0.5888,-0.7290,-1.3870,0.0778,0.6573,-0.0591,
7.069001,-0.2331,0.8282,-0.2292,0.5888,-0.7290,-1.3870,0.0778,0.6573,-0.0591,
7.071232,-0.2331,0.8282,-0.2292,1.3875,-0.8758,-0.8923,0.0778,0.6573,-0.0591,
7.072650,-0.2331,0.8282,-0.2292,1.3875,-0.8758,-0.8923,-0.2088,0.6834,-0.0655,
7.088307,-0.2331,0.8282,-0.2292,1.3875,-0.8758,-0.8923,-0.4256,0.7872,-0.1012,
7.108829,-0.2243,0.7400,-0.1947,1.3875,-0.8758,-0.8923,-0.4256,0.7872,-0.1012,
7.113289,-0.2243,0.7400,-0.1947,1.4638,-1.7451,-0.5610,-0.4256,0.7872,-0.1012,
7.115386,-0.2243,0.7400,-0.1947,1.4638,-1.7451,-0.5610,-0.6067,0.8629,-0.1364,
7.128788,-0.2243,0.7400,-0.1947,1.4638,-1.7451,-0.5610,-0.8309,0.9151,-0.1641,
7.148130,-0.2788,0.8595,-0.2426,1.4638,-1.7451,-0.5610,-0.8309,0.9151,-0.1641,
7.151125,-0.2788,0.8595,-0.2426,0.9379,-0.5893,-1.1585,-0.8309,0.9151,-0.1641,
7.153818,-0.2788,0.8595,-0.2426,0.9379,-0.5893,-1.1585,-0.9406,0.9231,-0.2471,
7.168277,-0.2788,0.8595,-0.2426,0.9379,-0.5893,-1.1585,-0.9252,0.6317,-0.2972,
7.188521,-0.3090,0.8817,-0.1808,0.9379,-0.5893,-1.1585,-0.9252,0.6317,-0.2972,
7.191633,-0.3090,0.8817,-0.1808,0.6984,-0.3739,-0.7637,-0.9252,0.6317,-0.2972,
7.193781,-0.3090,0.8817,-0.1808,0.6984,-0.3739,-0.7637,-0.8943,0.2605,-0.2056,
7.209149,-0.3090,0.8817,-0.1808,0.6984,-0.3739,-0.7637,-0.7569,0.2541,-0.2205,
7.228611,-0.3042,0.9594,-0.1375,0.6984,-0.3739,-0.7637,-0.7569,0.2541,-0.2205,
7.231115,-0.3042,0.9594,-0.1375,0.7954,0.3848,-0.5731,-0.7569,0.2541,-0.2205,
7.232832,-0.3042,0.9594,-0.1375,0.7954,0.3848,-0.5731,-0.5183,0.4868,-0.2525,
7.248476,-0.3042,0.9594,-0.1375,0.7954,0.3848,-0.5731,-0.0932,1.1579,-0.2999,
7.267964,-0.4764,0.9990,-0.2253,0.7954,0.3848,-0.5731,-0.0932,1.1579,-0.2999,
7.271649,-0.4764,0.9990,-0.2253,-0.8259,0.8049,-1.3870,-0.0932,1.1579,-0.2999,
7.273547,-0.4764,0.9990,-0.2253,-0.8259,0.8049,-1.3870,0.2722,1.5185,-0.4282,
7.287803,-0.4764,0.9990,-0.2253,-0.8259,0.8049,-1.3870,0.3361,1.0594,-0.5987,
7.308397,-0.5421,0.8223,-0.4126,-0.8259,0.8049,-1.3870,0.3361,1.0594,-0.5987,
7.310847,-0.5421,0.8223,-0.4126,-1.3289,-0.8252,-2.8725,0.3361,1.0594,-0.5987,
7.312782,-0.5421,0.8223,-0.4126,-1.3289,-0.8252,-2.8725,0.2940,0.8123,-0.7579,
7.328970,-0.5421,0.8223,-0.4126,-1.3289,-0.8252,-2.8725,0.1561,0.8432,-0.7750,
7.347636,-0.5372,1.0549,-0.2819,-1.3289,-0.8252,-2.8725,0.1561,0.8432,-0.7750,
7.350213,-0.5372,1.0549,-0.2819,-1.0536,1.5909,-1.3768,0.1561,0.8432,-0.7750,
7.351656,-0.5372,1.0549,-0.2819,-1.0536,1.5909,-1.3768,-0.2860,0.2136,-0.5736,
7.367586,-0.5372,1.0549,-0.2819,-1.0536,1.5909,-1.3768,-0.7707,-0.9113,-0.2929,
7.388050,-0.3049,1.3752,0.3501,-1.0536,1.5909,-1.3768,-0.7707,-0.9113,-0.2929,
7.390381,-0.3049,1.3752,0.3501,1.3911,4.7769,4.5722,-0.7707,-0.9113,-0.2929,
7.391887,-0.3049,1.3752,0.3501,1.3911,4.7769,4.5722,-0.6701,-2.2855,-0.0948,
7.407490,-0.3049,1.3752,0.3501,1.3911,4.7769,4.5722,-0.0762,-3.6272,-0.0415,
7.427458,-0.0652,1.3801,0.4881,1.3911,4.7769,4.5722,-0.0762,-3.6272,-0.0415,
7.429328,-0.0652,1.3801,0.4881,3.8558,4.8227,5.2702,-0.0762,-3.6272,-0.0415,
7.430960,-0.0652,1.3801,0.4881,3.8558,4.8227,5.2702,0.5662,-3.8941,0.1129,
7.447488,-0.0652,1.3801,0.4881,3.8558,4.8227,5.2702,1.5324,-1.2288,0.2392,
7.467703,0.0200,1.0437,0.0281,3.8558,4.8227,5.2702,1.5324,-1.2288,0.2392,
7.469803,0.0200,1.0437,0.0281,4.6659,1.5079,0.6667,1.5324,-1.2288,0.2392,
7.471375,0.0200,1.0437,0.0281,4.6659,1.5079,0.6667,1.0898,0.0362,-0.1124,
7.487882,0.0200,1.0437,0.0281,4.6659,1.5079,0.6667,0.3808,0.9806,-0.1630,
7.508183,-0.3848,0.9938,0.0679,4.6659,1.5079,0.6667,0.3808,0.9806,-0.1630,
7.511900,-0.3848,0.9938,0.0679,0.7333,1.0599,1.4039,0.3808,0.9806,-0.1630,
7.514783,-0.3848,0.9938,0.0679,0.7333,1.0599,1.4039,-0.1081,1.5350,-0.0852,
7.527988,-0.3848,0.9938,0.0679,0.7333,1.0599,1.4039,-0.3787,1.8605,0.0623,
7.548472,-0.4483,0.6921,0.0667,0.7333,1.0599,1.4039,-0.3787,1.8605,0.0623,
7.550737,-0.4483,0.6921,0.0667,0.0243,-1.9260,1.5543,-0.3787,1.8605,0.0623,
7.552443,-0.4483,0.6921,0.0667,0.0243,-1.9260,1.5543,-0.5156,1.8967,0.0831,
7.568466,-0.4483,0.6921,0.0667,0.0243,-1.9260,1.5543,-0.6722,1.6730,0.0000,
7.587750,-0.4737,0.5209,-0.0801,0.0243,-1.9260,1.5543,-0.6722,1.6730,0.0000,
7.590275,-0.4737,0.5209,-0.0801,-0.3079,-3.6347,0.2202,-0.6722,1.6730,0.0000,
7.591858,-0.4737,0.5209,-0.0801,-0.3079,-3.6347,0.2202,-0.8922,1.3875,-0.0469,
7.608554,-0.4737,0.5209,-0.0801,-0.3079,-3.6347,0.2202,-1.0386,1.2863,-0.0724,
7.627288,-0.4488,0.6237,-0.1016,-0.3079,-3.6347,0.2202,-1.0386,1.2863,-0.0724,
7.629897,-0.4488,0.6237,-0.1016,-0.0942,-2.6534,-0.0974,-1.0386,1.2863,-0.0724,
7.631567,-0.4488,0.6237,-0.1016,-0.0942,-2.6534,-0.0974,-1.1010,1.1489,-0.1422,
7.647683,-0.4488,0.6237,-0.1016,-0.0942,-2.6534,-0.0974,-1.1031,0.9374,-0.1822,
7.667281,-0.3660,0.8397,-0.1070,-0.0942,-2.6534,-0.0974,-1.1031,0.9374,-0.1822,
7.670621,-0.3660,0.8397,-0.1070,0.7407,-0.5442,-0.3565,-1.1031,0.9374,-0.1822,
7.673085,-0.3660,0.8397,-0.1070,0.7407,-0.5442,-0.3565,-0.9486,0.5348,-0.1348,
7.687635,-0.3660,0.8397,-0.1070,0.7407,-0.5442,-0.3565,-0.6312,0.0874,-0.0272,
7.707455,-0.2639,0.9098,-0.1485,0.7407,-0.5442,-0.3565,-0.6312,0.0874,-0.0272,
7.710495,-0.2639,0.9098,-0.1485,1.7622,0.1384,-0.9865,-0.6312,0.0874,-0.0272,
7.712055,-0.2639,0.9098,-0.1485,1.7622,0.1384,-0.9865,-0.2605,-0.1348,0.0575,
7.727689,-0.2639,0.9098,-0.1485,1.7622,0.1384,-0.9865,-0.0474,-0.2434,0.1257,
7.748378,-0.3012,0.9227,-0.2299,1.7622,0.1384,-0.9865,-0.0474,-0.2434,0.1257,
7.752496,-0.3012,0.9227,-0.2299,1.3540,0.2413,-1.8522,-0.0474,-0.2434,0.1257,
7.754372,-0.3012,0.9227,-0.2299,1.3540,0.2413,-1.8522,0.0107,-0.1023,0.2402,
7.767953,-0.3012,0.9227,-0.2299,1.3540,0.2413,-1.8522,0.0969,0.0559,0.3127,
7.787328,-0.3723,0.8771,-0.1578,1.3540,0.2413,-1.8522,0.0969,0.0559,0.3127,
7.789415,-0.3723,0.8771,-0.1578,0.5483,-0.2571,-1.1074,0.0969,0.0559,0.3127,
7.791324,-0.3723,0.8771,-0.1578,0.5483,-0.2571,-1.1074,0.2562,-0.0085,0.3547,
7.807481,-0.3723,0.8771,-0.1578,0.5483,-0.2571,-1.1074,0.3430,-0.1001,0.3409,
7.827343,-0.4788,0.9599,-0.1168,0.5483,-0.2571,-1.1074,0.3430,-0.1001,0.3409,
7.830698,-0.4788,0.9599,-0.1168,-0.6230,0.5026,-0.5755,0.3430,-0.1001,0.3409,
7.832706,-0.4788,0.9599,-0.1168,-0.6230,0.5026,-0.5755,0.2945,-0.1182,0.2567,
7.847408,-0.4788,0.9599,-0.1168,-0.6230,0.5026,-0.5755,0.1491,-0.0549,0.1816,
7.867347,-0.5885,1.0708,-0.1415,-0.6230,0.5026,-0.5755,0.1491,-0.0549,0.1816,
7.869564,-0.5885,1.0708,-0.1415,-1.7678,1.5633,-0.7399,0.1491,-0.0549,0.1816,
7.871408,-0.5885,1.0708,-0.1415,-1.7678,1.5633,-0.7399,-0.0788,0.0724,0.1284,
7.887469,-0.5885,1.0708,-0.1415,-1.7678,1.5633,-0.7399,-0.2285,0.1332,0.1374,
7.907615,-0.4385,0.8971,-0.1783,-1.7678,1.5633,-0.7399,-0.2285,0.1332,0.1374,
7.909481,-0.4385,0.8971,-0.1783,-0.3426,-0.1608,-1.1273,-0.2285,0.1332,0.1374,
7.911085,-0.4385,0.8971,-0.1783,-0.3426,-0.1608,-1.1273,-0.0655,0.0458,0.1257,
7.928824,-0.4385,0.8971,-0.1783,-0.3426,-0.1608,-1.1273,0.3867,-0.0868,0.1140,
7.947677,-0.5443,1.2555,-0.2248,-0.3426,-0.1608,-1.1273,0.3867,-0.0868,0.1140,
7.950753,-0.5443,1.2555,-0.2248,-1.4216,3.3369,-1.5279,0.3867,-0.0868,0.1140,
7.953018,-0.5443,1.2555,-0.2248,-1.4216,3.3369,-1.5279,0.7201,-0.0847,0.0442,
7.967468,-0.5443,1.2555,-0.2248,-1.4216,3.3369,-1.5279,0.6131,-0.2338,-0.1332,
7.987461,-0.4410,1.0085,-0.0535,-1.4216,3.3369,-1.5279,0.6131,-0.2338,-0.1332,
7.989878,-0.4410,1.0085,-0.0535,-0.3878,0.9442,0.3641,0.6131,-0.2338,-0.1332,
7.991559,-0.4410,1.0085,-0.0535,-0.3878,0.9442,0.3641,0.2754,-0.5060,-0.2120,
8.008104,-0.4410,1.0085,-0.0535,-0.3878,0.9442,0.3641,-0.0708,-0.6898,-0.2450,
8.027012,-0.3105,0.8358,0.1082,-0.3878,0.9442,0.3641,-0.0708,-0.6898,-0.2450,
8.029992,-0.3105,0.8358,0.1082,0.9876,-0.7122,1.8762,-0.0708,-0.6898,-0.2450,
8.031652,-0.3105,0.8358,0.1082,0.9876,-0.7122,1.8762,-0.3995,-0.6818,-0.2498,
8.047242,-0.3105,0.8358,0.1082,0.9876,-0.7122,1.8762,-0.6599,-0.6147,-0.2253,
8.067111,-0.2507,1.2738,0.4412,0.9876,-0.7122,1.8762,-0.6599,-0.6147,-0.2253,
8.070495,-0.2507,1.2738,0.4412,1.6762,3.6054,4.8458,-0.6599,-0.6147,-0.2253,
8.072230,-0.2507,1.2738,0.4412,1.6762,3.6054,4.8458,-0.5768,-0.4836,-0.1992,
8.086814,-0.2507,1.2738,0.4412,1.6762,3.6054,4.8458,-0.1044,-0.3100,-0.2754,
8.107409,-0.1766,1.1228,0.2648,1.6762,3.6054,4.8458,-0.1044,-0.3100,-0.2754,
8.109316,-0.1766,1.1228,0.2648,2.4922,2.1594,2.9303,-0.1044,-0.3100,-0.2754,
8.110952,-0.1766,1.1228,0.2648,2.4922,2.1594,2.9303,0.2487,0.1875,-0.2168,
8.126742,-0.1766,1.1228,0.2648,2.4922,2.1594,2.9303,0.2866,0.8538,-0.0485,
8.147925,-0.1400,0.8651,-0.0232,2.4922,2.1594,2.9303,0.2866,0.8538,-0.0485,
8.149956,-0.1400,0.8651,-0.0232,2.8399,-0.3653,0.2532,0.2866,0.8538,-0.0485,
8.151611,-0.1400,0.8651,-0.0232,2.8399,-0.3653,0.2532,0.1316,1.4818,0.1214,
8.166639,-0.1400,0.8651,-0.0232,2.8399,-0.3653,0.2532,-0.0410,1.9643,0.2184,
8.187032,-0.1693,0.7801,-0.0880,2.8399,-0.3653,0.2532,-0.0410,1.9643,0.2184,
8.189998,-0.1693,0.7801,-0.0880,2.4274,-1.2365,-0.0900,-0.0410,1.9643,0.2184,
8.191827,-0.1693,0.7801,-0.0880,2.4274,-1.2365,-0.0900,-0.1092,2.3180,0.2461,
8.210093,-0.1693,0.7801,-0.0880,2.4274,-1.2365,-0.0900,-0.0160,2.6664,0.1949,
8.226561,-0.2729,0.7896,-0.1419,2.4274,-1.2365,-0.0900,-0.0160,2.6664,0.1949,
8.228741,-0.2729,0.7896,-0.1419,1.2386,-1.1806,-0.2432,-0.0160,2.6664,0.1949,
8.230654,-0.2729,0.7896,-0.1419,1.2386,-1.1806,-0.2432,0.1454,2.6988,0.0570,
8.247340,-0.2729,0.7896,-0.1419,1.2386,-1.1806,-0.2432,0.1784,2.0075,-0.0666,
8.266721,-0.2729,0.6841,-0.2140,1.2386,-1.1806,-0.2432,0.1784,2.0075,-0.0666,
8.270666,-0.2729,0.6841,-0.2140,1.1130,-2.2053,-0.5303,0.1784,2.0075,-0.0666,
8.272502,-0.2729,0.6841,-0.2140,1.1130,-2.2053,-0.5303,0.0117,0.9262,-0.1300,
8.287081,-0.2729,0.6841,-0.2140,1.1130,-2.2053,-0.5303,-0.2493,0.1614,-0.1539,
8.306581,-0.1212,0.6718,-0.1801,1.1130,-2.2053,-0.5303,-0.2493,0.1614,-0.1539,
8.308878,-0.1212,0.6718,-0.1801,2.6154,-2.3112,-0.1575,-0.2493,0.1614,-0.1539,
8.310930,-0.1212,0.6718,-0.1801,2.6154,-2.3112,-0.1575,-0.4538,-0.2514,-0.2402,
8.326463,-0.1212,0.6718,-0.1801,2.6154,-2.3112,-0.1575,-0.6109,-0.4756,-0.3297,
8.347254,-0.1490,0.8827,-0.2133,2.6154,-2.3112,-0.1575,-0.6109,-0.4756,-0.3297,
8.349538,-0.1490,0.8827,-0.2133,2.4651,-0.2327,-0.7283,-0.6109,-0.4756,-0.3297,
8.351418,-0.1490,0.8827,-0.2133,2.4651,-0.2327,-0.7283,-0.6834,-0.3185,-0.3904,
8.366957,-0.1490,0.8827,-0.2133,2.4651,-0.2327,-0.7283,-0.6195,0.1715,-0.4373,
8.386969,-0.2636,0.9499,-0.2766,2.4651,-0.2327,-0.7283,-0.6195,0.1715,-0.4373,
8.390814,-0.2636,0.9499,-0.2766,1.4827,0.4561,-1.5830,-0.6195,0.1715,-0.4373,
8.392583,-0.2636,0.9499,-0.2766,1.4827,0.4561,-1.5830,-0.3212,1.0328,-0.4671,
8.409616,-0.2636,0.9499,-0.2766,1.4827,0.4561,-1.5830,0.1880,1.5468,-0.4858,
8.426767,-0.5460,1.1573,-0.2687,1.4827,0.4561,-1.5830,0.1880,1.5468,-0.4858,
8.428976,-0.5460,1.1573,-0.2687,-1.1869,2.5620,-1.3096,0.1880,1.5468,-0.4858,
8.430934,-0.5460,1.1573,-0.2687,-1.1869,2.5620,-1.3096,0.4538,0.5518,-0.2333,
8.446872,-0.5460,1.1573,-0.2687,-1.1869,2.5620,-1.3096,0.2929,-0.7643,0.2679,
8.466183,-0.4395,1.1106,-0.3547,-1.1869,2.5620,-1.3096,0.2929,-0.7643,0.2679,
8.468518,-0.4395,1.1106,-0.3547,-0.1423,2.1228,-2.0395,0.2929,-0.7643,0.2679,
8.470396,-0.4395,1.1106,-0.3547,-0.1423,2.1228,-2.0395,0.5161,0.3366,0.0927,
8.486121,-0.4395,1.1106,-0.3547,-0.1423,2.1228,-2.0395,1.1563,1.5015,-0.4575,
8.505846,-0.6437,1.1236,-0.4742,-0.1423,2.1228,-2.0395,1.1563,1.5015,-0.4575,
8.508251,-0.6437,1.1236,-0.4742,-2.1420,2.3350,-2.7666,1.1563,1.5015,-0.4575,
8.510596,-0.6437,1.1236,-0.4742,-2.1420,2.3350,-2.7666,1.6538,1.3172,-0.6658,
8.525923,-0.6437,1.1236,-0.4742,-2.1420,2.3350,-2.7666,1.4935,0.0245,-0.3686,
8.546309,-0.3994,1.1155,-0.1522,-2.1420,2.3350,-2.7666,1.4935,0.0245,-0.3686,
8.549413,-0.3994,1.1155,-0.1522,0.3735,2.4834,1.0395,1.4935,0.0245,-0.3686,
8.551139,-0.3994,1.1155,-0.1522,0.3735,2.4834,1.0395,0.6381,-2.4650,0.1683,
8.566524,-0.3994,1.1155,-0.1522,0.3735,2.4834,1.0395,-0.2802,-4.4240,0.7846,
8.585969,-0.0467,1.2039,0.0315,0.3735,2.4834,1.0395,-0.2802,-4.4240,0.7846,
8.588611,-0.0467,1.2039,0.0315,3.9865,3.2857,2.2971,-0.2802,-4.4240,0.7846,
8.590392,-0.0467,1.2039,0.0315,3.9865,3.2857,2.2971,-0.6812,-3.6491,0.9667,
8.607388,-0.0467,1.2039,0.0315,3.9865,3.2857,2.2971,-0.3324,-0.9902,0.5332,
8.626796,-0.2558,1.0835,0.4551,3.9865,3.2857,2.2971,-0.3324,-0.9902,0.5332,
8.628903,-0.2558,1.0835,0.4551,1.8376,1.9395,5.8658,-0.3324,-0.9902,0.5332,
8.630585,-0.2558,1.0835,0.4551,1.8376,1.9395,5.8658,0.1305,-0.6019,0.1481,
8.646360,-0.2558,1.0835,0.4551,1.8376,1.9395,5.8658,0.0879,-1.0466,0.2690,
8.666421,-0.4490,1.0029,0.3200,1.8376,1.9395,5.8658,0.0879,-1.0466,0.2690,
8.670672,-0.4490,1.0029,0.3200,-0.0839,1.1193,4.4372,0.0879,-1.0466,0.2690,
8.672730,-0.4490,1.0029,0.3200,-0.0839,1.1193,4.4372,-0.1055,-0.2264,0.2184,
8.686518,-0.4490,1.0029,0.3200,-0.0839,1.1193,4.4372,-0.1859,0.8954,0.0623,
8.706399,-0.4485,0.8265,0.1490,-0.0839,1.1193,4.4372,-0.1859,0.8954,0.0623,
8.708631,-0.4485,0.8265,0.1490,-0.1512,-0.6500,2.7253,-0.1859,0.8954,0.0623,
8.710463,-0.4485,0.8265,0.1490,-0.1512,-0.6500,2.7253,-0.2115,1.2235,-0.1795,
8.726806,-0.4485,0.8265,0.1490,-0.1512,-0.6500,2.7253,-0.3105,0.9193,-0.2615,
8.746826,-0.4608,0.6467,-0.0296,-0.1512,-0.6500,2.7253,-0.3105,0.9193,-0.2615,
8.751003,-0.4608,0.6467,-0.0296,-0.2468,-2.3912,1.0366,-0.3105,0.9193,-0.2615,
8.752912,-0.4608,0.6467,-0.0296,-0.2468,-2.3912,1.0366,-0.4282,0.5811,-0.2131,
8.766184,-0.4608,0.6467,-0.0296,-0.2468,-2.3912,1.0366,-0.5071,0.4357,-0.1587,
8.786015,-0.3770,0.6545,-0.2040,-0.2468,-2.3912,1.0366,-0.5071,0.4357,-0.1587,
8.788540,-0.3770,0.6545,-0.2040,0.6128,-2.3069,-0.7487,-0.5071,0.4357,-0.1587,
8.790152,-0.3770,0.6545,-0.2040,0.6128,-2.3069,-0.7487,-0.5017,0.3984,-0.1076,
8.807467,-0.3770,0.6545,-0.2040,0.6128,-2.3069,-0.7487,-0.3894,0.5140,-0.0240,
8.826251,-0.3371,0.6535,-0.2736,0.6128,-2.3069,-0.7487,-0.3894,0.5140,-0.0240,
8.829553,-0.3371,0.6535,-0.2736,1.0041,-2.3267,-1.5078,-0.3894,0.5140,-0.0240,
8.831908,-0.3371,0.6535,-0.2736,1.0041,-2.3267,-1.5078,-0.2722,0.5140,0.0927,
8.845519,-0.3371,0.6535,-0.2736,1.0041,-2.3267,-1.5078,-0.2040,0.0719,0.1577,
8.865841,-0.3833,0.8123,-0.1766,1.0041,-2.3267,-1.5078,-0.2040,0.0719,0.1577,
8.868393,-0.3833,0.8123,-0.1766,0.4942,-0.8029,-0.5903,-0.2040,0.0719,0.1577,
8.870350,-0.3833,0.8123,-0.1766,0.4942,-0.8029,-0.5903,-0.1965,-0.4575,0.1076,
8.885510,-0.3833,0.8123,-0.1766,0.4942,-0.8029,-0.5903,-0.2067,-0.5955,0.0517,
8.905888,-0.3924,0.8221,-0.0870,0.4942,-0.8029,-0.5903,-0.2067,-0.5955,0.0517,
8.907615,-0.3924,0.8221,-0.0870,0.3999,-0.7292,0.1284,-0.2067,-0.5955,0.0517,
8.908739,-0.3924,0.8221,-0.0870,0.3999,-0.7292,0.1284,-0.1891,-0.3739,0.1140,
8.925919,-0.3924,0.8221,-0.0870,0.3999,-0.7292,0.1284,-0.1150,-0.0575,0.2258,
8.945754,-0.3467,0.8512,-0.1664,0.3999,-0.7292,0.1284,-0.1150,-0.0575,0.2258,
8.948069,-0.3467,0.8512,-0.1664,0.7958,-0.4786,-0.7389,-0.1150,-0.0575,0.2258,
8.949903,-0.3467,0.8512,-0.1664,0.7958,-0.4786,-0.7389,-0.0549,0.0133,0.2818,
8.965622,-0.3467,0.8512,-0.1664,0.7958,-0.4786,-0.7389,-0.0511,-0.1156,0.3031,
8.985664,-0.3425,1.0163,-0.2636,0.7958,-0.4786,-0.7389,-0.0511,-0.1156,0.3031,
8.988297,-0.3425,1.0163,-0.2636,0.7170,1.0851,-1.6813,-0.0511,-0.1156,0.3031,
8.989880,-0.3425,1.0163,-0.2636,0.7170,1.0851,-1.6813,-0.0969,-0.2679,0.2988,
9.007350,-0.3425,1.0163,-0.2636,0.7170,1.0851,-1.6813,-0.0959,-0.3196,0.2525,
9.025280,-0.4827,1.1162,-0.0454,0.7170,1.0851,-1.6813,-0.0959,-0.3196,0.2525,
9.027400,-0.4827,1.1162,-0.0454,-0.7470,2.0160,0.3778,-0.0959,-0.3196,0.2525,
9.029127,-0.4827,1.1162,-0.0454,-0.7470,2.0160,0.3778,-0.0256,-0.3973,0.1779,
9.045153,-0.4827,1.1162,-0.0454,-0.7470,2.0160,0.3778,0.0330,-0.3941,0.1188,
9.064920,-0.5235,1.0808,-0.1666,-0.7470,2.0160,0.3778,0.0330,-0.3941,0.1188,
9.066905,-0.5235,1.0808,-0.1666,-1.1873,1.6455,-0.8710,0.0330,-0.3941,0.1188,
9.068042,-0.5235,1.0808,-0.1666,-1.1873,1.6455,-0.8710,-0.0085,-0.2029,0.0969,
9.085235,-0.5235,1.0808,-0.1666,-1.1873,1.6455,-0.8710,0.0213,-0.0772,0.0815,
9.106019,-0.4989,1.2885,-0.2348,-1.1873,1.6455,-0.8710,0.0213,-0.0772,0.0815,
9.109631,-0.4989,1.2885,-0.2348,-0.9732,3.6667,-1.5587,0.0213,-0.0772,0.0815,
9.111727,-0.4989,1.2885,-0.2348,-0.9732,3.6667,-1.5587,0.3308,-0.1641,0.0831,
9.125140,-0.4989,1.2885,-0.2348,-0.9732,3.6667,-1.5587,0.6312,-0.3398,0.0591,
9.145057,-0.4569,1.0273,-0.0682,-0.9732,3.6667,-1.5587,0.6312,-0.3398,0.0591,
9.147273,-0.4569,1.0273,-0.0682,-0.5787,1.1118,0.2070,0.6312,-0.3398,0.0591,
9.148977,-0.4569,1.0273,-0.0682,-0.5787,1.1118,0.2070,0.6424,-0.6163,-0.0629,
9.165766,-0.4569,1.0273,-0.0682,-0.5787,1.1118,0.2070,0.5380,-0.7238,-0.1523,
9.185763,-0.3103,0.7771,0.0381,-0.5787,1.1118,0.2070,0.5380,-0.7238,-0.1523,
9.187934,-0.3103,0.7771,0.0381,0.9168,-1.3041,1.3440,0.5380,-0.7238,-0.1523,
9.189407,-0.3103,0.7771,0.0381,0.9168,-1.3041,1.3440,0.4400,-0.7670,-0.1880,
9.206105,-0.3103,0.7771,0.0381,0.9168,-1.3041,1.3440,0.2828,-0.6748,-0.1870,
9.225172,-0.2905,1.1138,0.1830,0.9168,-1.3041,1.3440,0.2828,-0.6748,-0.1870,
9.227996,-0.2905,1.1138,0.1830,1.2005,2.0360,2.7679,0.2828,-0.6748,-0.1870,
9.229713,-0.2905,1.1138,0.1830,1.2005,2.0360,2.7679,0.1374,-0.6397,-0.1790,
9.245906,-0.2905,1.1138,0.1830,1.2005,2.0360,2.7679,0.1119,-0.7894,-0.2684,
9.265023,-0.2419,1.0962,0.2167,1.2005,2.0360,2.7679,0.1119,-0.7894,-0.2684,
9.267799,-0.2419,1.0962,0.2167,1.7830,1.9049,3.0255,0.1119,-0.7894,-0.2684,
9.269306,-0.2419,1.0962,0.2167,1.7830,1.9049,3.0255,0.1928,-0.7840,-0.2834,
9.285179,-0.2419,1.0962,0.2167,1.7830,1.9049,3.0255,0.2397,-0.2413,-0.1715,
9.305530,-0.1761,0.8314,0.0147,1.7830,1.9049,3.0255,0.2397,-0.2413,-0.1715,
9.307740,-0.1761,0.8314,0.0147,2.4659,-0.6786,0.9785,0.2397,-0.2413,-0.1715,
9.309408,-0.1761,0.8314,0.0147,2.4659,-0.6786,0.9785,0.1987,0.5550,-0.0575,
9.325142,-0.1761,0.8314,0.0147,2.4659,-0.6786,0.9785,0.0858,1.1974,0.0405,
9.345244,-0.2040,0.6762,-0.0862,2.4659,-0.6786,0.9785,0.0858,1.1974,0.0405,
9.347226,-0.2040,0.6762,-0.0862,2.1629,-2.1924,0.1862,0.0858,1.1974,0.0405,
9.348925,-0.2040,0.6762,-0.0862,2.1629,-2.1924,0.1862,-0.0618,1.5851,0.1316,
9.365144,-0.2040,0.6762,-0.0862,2.1629,-2.1924,0.1862,-0.2264,1.7343,0.2013,
9.385217,-0.2516,0.6919,-0.1082,2.1629,-2.1924,0.1862,-0.2264,1.7343,0.2013,
9.388257,-0.2516,0.6919,-0.1082,1.5611,-2.0731,0.1915,-0.2264,1.7343,0.2013,
9.389943,-0.2516,0.6919,-0.1082,1.5611,-2.0731,0.1915,-0.3755,1.6437,0.2242,
9.405285,-0.2516,0.6919,-0.1082,1.5611,-2.0731,0.1915,-0.3217,1.6693,0.1119,
9.425060,-0.4051,0.8072,-0.1305,1.5611,-2.0731,0.1915,-0.3217,1.6693,0.1119,
9.427363,-0.4051,0.8072,-0.1305,-0.0893,-0.9880,0.1114,-0.3217,1.6693,0.1119,
9.429277,-0.4051,0.8072,-0.1305,-0.0893,-0.9880,0.1114,0.1241,2.1518,-0.1625,
9.445462,-0.4051,0.8072,-0.1305,-0.0893,-0.9880,0.1114,0.3393,1.7369,-0.1688,
9.464982,-0.2927,0.7766,-0.2753,-0.0893,-0.9880,0.1114,0.3393,1.7369,-0.1688,
9.467441,-0.2927,0.7766,-0.2753,0.9490,-1.2468,-0.9273,0.3393,1.7369,-0.1688,
9.469241,-0.2927,0.7766,-0.2753,0.9490,-1.2468,-0.9273,0.1976,0.6163,-0.0415,
9.484510,-0.2927,0.7766,-0.2753,0.9490,-1.2468,-0.9273,-0.0543,-0.2003,-0.0852,
9.504731,-0.1331,0.7720,-0.3342,0.9490,-1.2468,-0.9273,-0.0543,-0.2003,-0.0852,
9.506622,-0.1331,0.7720,-0.3342,2.5199,-1.2775,-1.4474,-0.0543,-0.2003,-0.0852,
9.508227,-0.1331,0.7720,-0.3342,2.5199,-1.2775,-1.4474,-0.2594,-0.4171,-0.2706,
9.524581,-0.1331,0.7720,-0.3342,2.5199,-1.2775,-1.4474,-0.5731,-0.4554,-0.3105,
9.545527,-0.2367,0.9191,-0.3550,2.5199,-1.2775,-1.4474,-0.5731,-0.4554,-0.3105,
9.549357,-0.2367,0.9191,-0.3550,1.6282,0.1782,-1.8555,-0.5731,-0.4554,-0.3105,
9.551434,-0.2367,0.9191,-0.3550,1.6282,0.1782,-1.8555,-0.7872,-0.1449,-0.2887,
9.565282,-0.2367,0.9191,-0.3550,1.6282,0.1782,-1.8555,-0.6381,0.5465,-0.3132,
9.584958,-0.4688,1.0488,-0.2042,1.6282,0.1782,-1.8555,-0.6381,0.5465,-0.3132,
9.588158,-0.4688,1.0488,-0.2042,-0.5772,1.4486,-0.5635,-0.6381,0.5465,-0.3132,
9.590778,-0.4688,1.0488,-0.2042,-0.5772,1.4486,-0.5635,-0.0959,0.9555,-0.3276,
9.604573,-0.4688,1.0488,-0.2042,-0.5772,1.4486,-0.5635,0.3057,0.3270,-0.1028,
9.623931,-0.5016,1.2438,-0.2773,-0.5772,1.4486,-0.5635,0.3057,0.3270,-0.1028,
9.624978,-0.5016,1.2438,-0.2773,-0.8604,3.4004,-1.1392,0.3057,0.3270,-0.1028,
9.625620,-0.5016,1.2438,-0.2773,-0.8604,3.4004,-1.1392,0.3164,-0.4341,0.2716,
9.644611,-0.5016,1.2438,-0.2773,-0.8604,3.4004,-1.1392,0.8000,1.2671,-0.0501,
9.664794,-0.5272,0.9081,-0.5013,-0.8604,3.4004,-1.1392,0.8000,1.2671,-0.0501,
9.666816,-0.5272,0.9081,-0.5013,-1.1805,0.1304,-3.0722,0.8000,1.2671,-0.0501,
9.668598,-0.5272,0.9081,-0.5013,-1.1805,0.1304,-3.0722,1.2341,1.7076,-0.4980,
9.684962,-0.5272,0.9081,-0.5013,-1.1805,0.1304,-3.0722,1.3705,1.1302,-0.5619,
9.704824,-0.4344,1.1380,-0.5179,-1.1805,0.1304,-3.0722,1.3705,1.1302,-0.5619,
9.708870,-0.4344,1.1380,-0.5179,-0.2091,2.5823,-2.5573,1.3705,1.1302,-0.5619,
9.710929,-0.4344,1.1380,-0.5179,-0.2091,2.5823,-2.5573,0.9215,-0.0751,-0.1742,
9.724988,-0.4344,1.1380,-0.5179,-0.2091,2.5823,-2.5573,0.2413,-2.3367,0.2802,
9.745084,-0.2013,1.2042,0.1134,-0.2091,2.5823,-2.5573,0.2413,-2.3367,0.2802,
9.750414,-0.2013,1.2042,0.1134,2.1820,3.2824,3.6290,0.2413,-2.3367,0.2802,
9.752331,-0.2013,1.2042,0.1134,2.1820,3.2824,3.6290,-0.3601,-4.8171,0.8549,
9.764490,-0.2013,1.2042,0.1134,2.1820,3.2824,3.6290,-0.7015,-5.0765,1.0354,
9.785054,0.1024,1.2386,0.1908,2.1820,3.2824,3.6290,-0.7015,-5.0765,1.0354,
9.788513,0.1024,1.2386,0.1908,5.2329,3.4197,3.3737,-0.7015,-5.0765,1.0354,
9.789939,0.1024,1.2386,0.1908,5.2329,3.4197,3.3737,-0.8373,-3.1798,1.0179,
9.804857,0.1024,1.2386,0.1908,5.2329,3.4197,3.3737,0.2573,0.3542,0.6157,
9.824194,-0.2238,1.0576,0.4336,5.2329,3.4197,3.3737,0.2573,0.3542,0.6157,
9.827076,-0.2238,1.0576,0.4336,1.8239,1.4946,5.4151,0.2573,0.3542,0.6157,
9.829174,-0.2238,1.0576,0.4336,1.8239,1.4946,5.4151,0.7702,0.6195,0.3696,
9.844658,-0.2238,1.0576,0.4336,1.8239,1.4946,5.4151,0.6828,0.2045,0.0879,
9.864378,-0.4551,0.9946,0.1114,1.8239,1.4946,5.4151,0.6828,0.2045,0.0879,
9.866422,-0.4551,0.9946,0.1114,-0.5459,0.8793,2.5800,0.6828,0.2045,0.0879,
9.868083,-0.4551,0.9946,0.1114,-0.5459,0.8793,2.5800,0.3670,0.1886,-0.2301,
9.884262,-0.4551,0.9946,0.1114,-0.5459,0.8793,2.5800,-0.0826,0.4852,-0.1571,
9.905755,-0.4551,0.6579,-0.0589,-0.5459,0.8793,2.5800,-0.0826,0.4852,-0.1571,
9.909310,-0.4551,0.6579,-0.0589,-0.5023,-2.3924,0.9590,-0.0826,0.4852,-0.1571,
9.911413,-0.4551,0.6579,-0.0589,-0.5023,-2.3924,0.9590,-0.5438,0.5742,-0.0506,
9.924795,-0.4551,0.6579,-0.0589,-0.5023,-2.3924,0.9590,-0.8250,0.3808,-0.0884,
9.945034,-0.3594,0.4918,-0.0533,-0.5023,-2.3924,0.9590,-0.8250,0.3808,-0.0884,
9.947875,-0.3594,0.4918,-0.0533,0.4326,-4.0494,0.8474,-0.8250,0.3808,-0.0884,
9.949484,-0.3594,0.4918,-0.0533,0.4326,-4.0494,0.8474,-0.9294,0.1912,-0.1843,
9.964926,-0.3594,0.4918,-0.0533,0.4326,-4.0494,0.8474,-0.8906,0.1619,-0.1891,
9.983911,-0.3701,0.6056,-0.1202,0.4326,-4.0494,0.8474,-0.8906,0.1619,-0.1891,
9.985596,-0.3701,0.6056,-0.1202,0.3848,-2.9484,-0.1032,-0.8906,0.1619,-0.1891,
9.987329,-0.3701,0.6056,-0.1202,0.3848,-2.9484,-0.1032,-0.6935,0.2455,-0.0613,
10.004354,-0.3701,0.6056,-0.1202,0.3848,-2.9484,-0.1032,-0.4298,0.3025,0.0671,
10.024439,-0.2695,0.8253,-0.2419,0.3848,-2.9484,-0.1032,-0.4298,0.3025,0.0671,
10.027788,-0.2695,0.8253,-0.2419,1.3594,-0.8188,-1.4511,-0.4298,0.3025,0.0671,
10.030084,-0.2695,0.8253,-0.2419,1.3594,-0.8188,-1.4511,-0.2232,0.0314,0.0858,
10.044236,-0.2695,0.8253,-0.2419,1.3594,-0.8188,-1.4511,-0.1273,-0.4559,0.0820,
10.064297,-0.3767,0.9623,-0.2292,1.3594,-0.8188,-1.4511,-0.1273,-0.4559,0.0820,
10.067445,-0.3767,0.9623,-0.2292,0.2837,0.5047,-1.4150,-0.1273,-0.4559,0.0820,
10.069313,-0.3767,0.9623,-0.2292,0.2837,0.5047,-1.4150,-0.1023,-0.7659,0.1401,
10.084354,-0.3767,0.9623,-0.2292,0.2837,0.5047,-1.4150,-0.1204,-0.5545,0.1965,
10.103984,-0.4566,0.8358,-0.1710,0.2837,0.5047,-1.4150,-0.1204,-0.5545,0.1965,
10.107164,-0.4566,0.8358,-0.1710,-0.5360,-0.7627,-0.9722,-0.1204,-0.5545,0.1965,
10.109322,-0.4566,0.8358,-0.1710,-0.5360,-0.7627,-0.9722,-0.1017,-0.1758,0.2147,
10.125410,-0.4566,0.8358,-0.1710,-0.5360,-0.7627,-0.9722,0.0314,-0.0123,0.2573,
10.144563,-0.4300,0.8614,-0.1649,-0.5360,-0.7627,-0.9722,0.0314,-0.0123,0.2573,
10.147038,-0.4300,0.8614,-0.1649,-0.3489,-0.5438,-0.9165,0.0314,-0.0123,0.2573,
10.148851,-0.4300,0.8614,-0.1649,-0.3489,-0.5438,-0.9165,0.1534,-0.0485,0.3004,
10.163979,-0.4300,0.8614,-0.1649,-0.3489,-0.5438,-0.9165,0.1593,-0.2333,0.2940,
10.183767,-0.4244,1.1109,-0.1898,-0.3489,-0.5438,-0.9165,0.1593,-0.2333,0.2940,
10.186594,-0.4244,1.1109,-0.1898,-0.3951,1.8618,-1.1114,0.1593,-0.2333,0.2940,
10.188238,-0.4244,1.1109,-0.1898,-0.3951,1.8618,-1.1114,0.0597,-0.4139,0.2136,
10.204272,-0.4244,1.1109,-0.1898,-0.3951,1.8618,-1.1114,-0.0383,-0.5065,0.1241,
10.223346,-0.6007,1.2606,-0.1835,-0.3951,1.8618,-1.1114,-0.0383,-0.5065,0.1241,
10.225524,-0.6007,1.2606,-0.1835,-2.1714,3.3046,-1.1139,-0.0383,-0.5065,0.1241,
10.227351,-0.6007,1.2606,-0.1835,-2.1714,3.3046,-1.1139,-0.0959,-0.2301,-0.0005,
10.243523,-0.6007,1.2606,-0.1835,-2.1714,3.3046,-1.1139,-0.0719,0.1001,-0.0256,
10.263854,-0.5861,1.0122,-0.2253,-2.1714,3.3046,-1.1139,-0.0719,0.1001,-0.0256,
10.266929,-0.5861,1.0122,-0.2253,-2.0212,0.8694,-1.5633,-0.0719,0.1001,-0.0256,
10.269008,-0.5861,1.0122,-0.2253,-2.0212,0.8694,-1.5633,0.1433,0.1316,0.0266,
10.283612,-0.5861,1.0122,-0.2253,-2.0212,0.8694,-1.5633,0.4112,-0.0107,-0.0005,
10.304640,-0.4967,1.2826,-0.0726,-2.0212,0.8694,-1.5633,0.4112,-0.0107,-0.0005,
10.306987,-0.4967,1.2826,-0.0726,-1.1512,3.5256,0.0422,0.4112,-0.0107,-0.0005,
10.308693,-0.4967,1.2826,-0.0726,-1.1512,3.5256,0.0422,0.4591,-0.2280,-0.0783,
10.326667,-0.4967,1.2826,-0.0726,-1.1512,3.5256,0.0422,0.4421,-0.4304,-0.2173,
10.344062,-0.2866,0.9088,0.0657,-1.1512,3.5256,0.0422,0.4421,-0.4304,-0.2173,
10.347140,-0.2866,0.9088,0.0657,0.9719,-0.1007,1.5106,0.4421,-0.4304,-0.2173,
10.349308,-0.2866,0.9088,0.0657,0.9719,-0.1007,1.5106,0.3984,-0.6871,-0.2898,
10.364170,-0.2866,0.9088,0.0657,0.9719,-0.1007,1.5106,0.3185,-0.8735,-0.2892,
10.383538,-0.1994,0.9589,0.1422,0.9719,-0.1007,1.5106,0.3185,-0.8735,-0.2892,
10.386302,-0.1994,0.9589,0.1422,1.9440,0.4393,2.2505,0.3185,-0.8735,-0.2892,
10.388088,-0.1994,0.9589,0.1422,1.9440,0.4393,2.2505,0.2317,-0.9726,-0.2748,
10.405400,-0.1994,0.9589,0.1422,1.9440,0.4393,2.2505,0.1838,-0.9816,-0.3505,
10.424106,-0.1397,1.1192,0.2150,1.9440,0.4393,2.2505,0.1838,-0.9816,-0.3505,
10.426233,-0.1397,1.1192,0.2150,2.6652,2.0628,2.8766,0.1838,-0.9816,-0.3505,
10.427806,-0.1397,1.1192,0.2150,2.6652,2.0628,2.8766,0.1822,-0.9529,-0.4091,
10.444405,-0.1397,1.1192,0.2150,2.6652,2.0628,2.8766,0.1843,-0.6685,-0.2743,
10.463457,-0.0958,0.9799,0.0774,2.6652,2.0628,2.8766,0.1843,-0.6685,-0.2743,
10.466528,-0.0958,0.9799,0.0774,3.2000,0.7381,1.4324,0.1843,-0.6685,-0.2743,
10.468329,-0.0958,0.9799,0.0774,3.2000,0.7381,1.4324,0.1577,0.0320,-0.1150,
10.483624,-0.0958,0.9799,0.0774,3.2000,0.7381,1.4324,0.1135,0.8203,-0.0107,
10.503261,-0.1261,0.7400,-0.0303,3.2000,0.7381,1.4324,0.1135,0.8203,-0.0107,
10.505220,-0.1261,0.7400,-0.0303,2.9004,-1.6050,0.4888,0.1135,0.8203,-0.0107,
10.507260,-0.1261,0.7400,-0.0303,2.9004,-1.6050,0.4888,0.0735,1.3145,0.1135,
10.524406,-0.1261,0.7400,-0.0303,2.9004,-1.6050,0.4888,0.0186,1.5505,0.2370,
10.544005,-0.1578,0.6288,-0.1185,2.9004,-1.6050,0.4888,0.0186,1.5505,0.2370,
10.546153,-0.1578,0.6288,-0.1185,2.4749,-2.7213,-0.1257,0.0186,1.5505,0.2370,
10.547905,-0.1578,0.6288,-0.1185,2.4749,-2.7213,-0.1257,-0.0751,1.7119,0.2770,
10.563303,-0.1578,0.6288,-0.1185,2.4749,-2.7213,-0.1257,-0.1944,1.7864,0.1901,
10.583831,-0.3237,0.8096,-0.1388,2.4749,-2.7213,-0.1257,-0.1944,1.7864,0.1901,
10.586266,-0.3237,0.8096,-0.1388,0.6854,-0.9928,-0.0973,-0.1944,1.7864,0.1901,
10.588025,-0.3237,0.8096,-0.1388,0.6854,-0.9928,-0.0973,-0.0479,2.1215,-0.1587,
10.603720,-0.3237,0.8096,-0.1388,0.6854,-0.9928,-0.0973,0.3084,2.2850,-0.4186,
10.623788,-0.4412,0.7429,-0.1925,0.6854,-0.9928,-0.0973,0.3084,2.2850,-0.4186,
10.626033,-0.4412,0.7429,-0.1925,-0.4902,-1.5940,-0.2401,0.3084,2.2850,-0.4186,
10.627961,-0.4412,0.7429,-0.1925,-0.4902,-1.5940,-0.2401,0.3366,1.4386,-0.2253,
10.643401,-0.4412,0.7429,-0.1925,-0.4902,-1.5940,-0.2401,0.2029,0.2578,-0.0229,
10.663479,-0.1930,0.7420,-0.2866,-0.4902,-1.5940,-0.2401,0.2029,0.2578,-0.0229,
10.666604,-0.1930,0.7420,-0.2866,1.9270,-1.5655,-0.9367,0.2029,0.2578,-0.0229,
10.668484,-0.1930,0.7420,-0.2866,1.9270,-1.5655,-0.9367,0.0330,-0.5337,-0.0692,
10.683394,-0.1930,0.7420,-0.2866,1.9270,-1.5655,-0.9367,-0.1561,-0.6541,-0.2455,
10.703323,-0.1879,0.8863,-0.4784,1.9270,-1.5655,-0.9367,-0.1561,-0.6541,-0.2455,
10.707348,-0.1879,0.8863,-0.4784,2.0743,-0.1309,-2.9272,-0.1561,-0.6541,-0.2455,
10.709298,-0.1879,0.8863,-0.4784,2.0743,-0.1309,-2.9272,-0.5310,-0.4453,-0.2700,
10.723566,-0.1879,0.8863,-0.4784,2.0743,-0.1309,-2.9272,-0.8123,0.1316,-0.2610,
10.744012,-0.3362,0.9995,-0.3105,2.0743,-0.1309,-2.9272,-0.8123,0.1316,-0.2610,
10.746365,-0.3362,0.9995,-0.3105,0.6845,0.9677,-1.4862,-0.8123,0.1316,-0.2610,
10.748335,-0.3362,0.9995,-0.3105,0.6845,0.9677,-1.4862,-0.5678,0.9438,-0.3526,
10.763203,-0.3362,0.9995,-0.3105,0.6845,0.9677,-1.4862,0.0538,1.1441,-0.4666,
10.783262,-0.6525,1.2709,-0.3117,0.6845,0.9677,-1.4862,0.0538,1.1441,-0.4666,
10.786688,-0.6525,1.2709,-0.3117,-2.3372,3.6776,-1.4212,0.0538,1.1441,-0.4666,
10.788518,-0.6525,1.2709,-0.3117,-2.3372,3.6776,-1.4212,0.3569,0.1662,-0.1049,
10.804163,-0.6525,1.2709,-0.3117,-2.3372,3.6776,-1.4212,0.5332,0.3675,0.0522,
10.823106,-0.5353,0.9628,-0.4569,-2.3372,3.6776,-1.4212,0.5332,0.3675,0.0522,
10.825028,-0.5353,0.9628,-0.4569,-1.1973,0.6936,-2.6443,0.5332,0.3675,0.0522,
10.826236,-0.5353,0.9628,-0.4569,-1.1973,0.6936,-2.6443,1.0509,1.5798,-0.4416,
10.842998,-0.5353,0.9628,-0.4569,-1.1973,0.6936,-2.6443,1.4189,1.3369,-0.7446,
10.862829,-0.4720,1.0811,-0.5067,-1.1973,0.6936,-2.6443,1.4189,1.3369,-0.7446,
10.865940,-0.4720,1.0811,-0.5067,-0.4971,2.0566,-2.4690,1.4189,1.3369,-0.7446,
10.867658,-0.4720,1.0811,-0.5067,-0.4971,2.0566,-2.4690,1.1824,-0.2115,-0.3356,
10.882944,-0.4720,1.0811,-0.5067,-0.4971,2.0566,-2.4690,0.2850,-2.4666,0.2157,
10.902719,-0.1495,1.1788,0.0257,-0.4971,2.0566,-2.4690,0.2850,-2.4666,0.2157,
10.905636,-0.1495,1.1788,0.0257,2.8226,3.0997,2.7701,0.2850,-2.4666,0.2157,
10.907455,-0.1495,1.1788,0.0257,2.8226,3.0997,2.7701,-0.5609,-4.7537,0.8368,
10.923436,-0.1495,1.1788,0.0257,2.8226,3.0997,2.7701,-0.7888,-4.8443,1.0594,
10.943399,0.1791,1.2232,0.1695,2.8226,3.0997,2.7701,-0.7888,-4.8443,1.0594,
10.945474,0.1791,1.2232,0.1695,6.1015,3.3184,3.1176,-0.7888,-4.8443,1.0594,
10.947226,0.1791,1.2232,0.1695,6.1015,3.3184,3.1176,-0.3372,-1.9963,0.8117,
10.962691,0.1791,1.2232,0.1695,6.1015,3.3184,3.1176,0.3143,-0.4953,0.1491,
10.982928,-0.2424,1.0720,0.3032,6.1015,3.3184,3.1176,0.3143,-0.4953,0.1491,
10.985615,-0.2424,1.0720,0.3032,1.8698,1.7526,4.2097,0.3143,-0.4953,0.1491,
10.987245,-0.2424,1.0720,0.3032,1.8698,1.7526,4.2097,0.3180,-1.2069,0.1529,
11.002916,-0.2424,1.0720,0.3032,1.8698,1.7526,4.2097,0.0964,-1.1750,0.0501,
11.022229,-0.5639,0.9711,0.2209,1.8698,1.7526,4.2097,0.0964,-1.1750,0.0501,
11.024604,-0.5639,0.9711,0.2209,-1.2602,0.7565,3.2732,0.0964,-1.1750,0.0501,
11.026499,-0.5639,0.9711,0.2209,-1.2602,0.7565,3.2732,-0.0655,-0.1348,0.0266,
11.043065,-0.5639,0.9711,0.2209,-1.2602,0.7565,3.2732,-0.1997,0.9502,0.0980,
11.063433,-0.4197,0.7642,0.0870,-1.2602,0.7565,3.2732,-0.1997,0.9502,0.0980,
11.065753,-0.4197,0.7642,0.0870,0.0953,-1.3063,1.9008,-0.1997,0.9502,0.0980,
11.067486,-0.4197,0.7642,0.0870,0.0953,-1.3063,1.9008,-0.3238,1.0029,0.0160,
11.083016,-0.4197,0.7642,0.0870,0.0953,-1.3063,1.9008,-0.4527,0.4692,-0.0943,
11.103208,-0.3819,0.5548,-0.0352,0.0953,-1.3063,1.9008,-0.4527,0.4692,-0.0943,
11.105398,-0.3819,0.5548,-0.0352,0.4490,-3.3681,0.6905,-0.4527,0.4692,-0.0943,
11.107170,-0.3819,0.5548,-0.0352,0.4490,-3.3681,0.6905,-0.5523,-0.0096,-0.1593,
11.123026,-0.3819,0.5548,-0.0352,0.4490,-3.3681,0.6905,-0.6573,-0.0655,-0.1411,
11.142422,-0.4151,0.5199,-0.1319,0.4490,-3.3681,0.6905,-0.6573,-0.0655,-0.1411,
11.145192,-0.4151,0.5199,-0.1319,0.1775,-3.7075,-0.4765,-0.6573,-0.0655,-0.1411,
11.147046,-0.4151,0.5199,-0.1319,0.1775,-3.7075,-0.4765,-0.7164,0.2573,-0.0373,
11.162443,-0.4151,0.5199,-0.1319,0.1775,-3.7075,-0.4765,-0.6993,0.5422,0.0123,
11.182715,-0.3584,0.7222,-0.1449,0.1775,-3.7075,-0.4765,-0.6993,0.5422,0.0123,
11.185612,-0.3584,0.7222,-0.1449,0.7261,-1.7433,-0.7848,-0.6993,0.5422,0.0123,
11.187583,-0.3584,0.7222,-0.1449,0.7261,-1.7433,-0.7848,-0.5971,0.5028,-0.0266,
11.203531,-0.3584,0.7222,-0.1449,0.7261,-1.7433,-0.7848,-0.4304,0.1172,-0.0059,
11.222201,-0.3569,0.8287,-0.1266,0.7261,-1.7433,-0.7848,-0.4304,0.1172,-0.0059,
11.224958,-0.3569,0.8287,-0.1266,0.7389,-0.7085,-0.7338,-0.4304,0.1172,-0.0059,
11.227721,-0.3569,0.8287,-0.1266,0.7389,-0.7085,-0.7338,-0.2232,-0.3638,0.0826,
11.242427,-0.3569,0.8287,-0.1266,0.7389,-0.7085,-0.7338,-0.0421,-0.6029,0.0804,
11.262322,-0.3618,0.8739,-0.2128,0.7389,-0.7085,-0.7338,-0.0421,-0.6029,0.0804,
11.264579,-0.3618,0.8739,-0.2128,0.6706,-0.2818,-1.7073,-0.0421,-0.6029,0.0804,
11.266380,-0.3618,0.8739,-0.2128,0.6706,-0.2818,-1.7073,0.0383,-0.4852,0.0985,
11.282711,-0.3618,0.8739,-0.2128,0.6706,-0.2818,-1.7073,0.0282,-0.2615,0.2748,
11.304915,-0.3789,0.9340,-0.2849,0.6706,-0.2818,-1.7073,0.0282,-0.2615,0.2748,
11.307445,-0.3789,0.9340,-0.2849,0.4356,0.2749,-2.4230,0.0282,-0.2615,0.2748,
11.309085,-0.3789,0.9340,-0.2849,0.4356,0.2749,-2.4230,0.0085,-0.0714,0.3915,
11.323434,-0.3789,0.9340,-0.2849,0.4356,0.2749,-2.4230,0.0011,-0.1124,0.3180,
11.343404,-0.5414,1.0170,-0.1087,0.4356,0.2749,-2.4230,0.0011,-0.1124,0.3180,
11.346624,-0.5414,1.0170,-0.1087,-1.2768,1.0344,-0.6814,0.0011,-0.1124,0.3180,
11.349049,-0.5414,1.0170,-0.1087,-1.2768,1.0344,-0.6814,0.0149,-0.5300,0.1587,
11.362789,-0.5414,1.0170,-0.1087,-1.2768,1.0344,-0.6814,0.0474,-0.5944,0.1097,
11.381582,-0.5607,1.2501,-0.0440,-1.2768,1.0344,-0.6814,0.0474,-0.5944,0.1097,
11.383847,-0.5607,1.2501,-0.0440,-1.5062,3.2974,-0.1258,0.0474,-0.5944,0.1097,
11.385088,-0.5607,1.2501,-0.0440,-1.5062,3.2974,-0.1258,0.0634,-0.3425,0.0847,
11.402869,-0.5607,1.2501,-0.0440,-1.5062,3.2974,-0.1258,0.0517,-0.0389,0.1007,
11.421747,-0.3938,1.0395,-0.3086,-1.5062,3.2974,-0.1258,0.0517,-0.0389,0.1007,
11.424455,-0.3938,1.0395,-0.3086,0.0981,1.2196,-2.7284,0.0517,-0.0389,0.1007,
11.426385,-0.3938,1.0395,-0.3086,0.0981,1.2196,-2.7284,0.0964,0.1694,0.1933,
11.442380,-0.3938,1.0395,-0.3086,0.0981,1.2196,-2.7284,0.3521,0.2551,0.2328,
11.462146,-0.6166,1.3366,-0.1600,0.0981,1.2196,-2.7284,0.3521,0.2551,0.2328,
11.465018,-0.6166,1.3366,-0.1600,-2.1648,4.1008,-1.1590,0.3521,0.2551,0.2328,
11.466949,-0.6166,1.3366,-0.1600,-2.1648,4.1008,-1.1590,0.6589,-0.1987,0.1129,
11.482081,-0.6166,1.3366,-0.1600,-2.1648,4.1008,-1.1590,0.8623,-0.5736,-0.0932,
11.502240,-0.4109,0.9511,0.0017,-2.1648,4.1008,-1.1590,0.8623,-0.5736,-0.0932,
11.504532,-0.4109,0.9511,0.0017,-0.1440,0.3370,0.6396,0.8623,-0.5736,-0.0932,
11.506573,-0.4109,0.9511,0.0017,-0.1440,0.3370,0.6396,0.9300,-0.7862,-0.1688,
11.523346,-0.4109,0.9511,0.0017,-0.1440,0.3370,0.6396,0.8384,-0.8730,-0.2019,
11.542213,-0.3523,0.7911,-0.0015,-0.1440,0.3370,0.6396,0.8384,-0.8730,-0.2019,
11.545648,-0.3523,0.7911,-0.0015,0.5206,-1.1771,0.7905,0.8384,-0.8730,-0.2019,
11.547679,-0.3523,0.7911,-0.0015,0.5206,-1.1771,0.7905,0.5577,-0.7052,-0.1731,
11.561801,-0.3523,0.7911,-0.0015,0.5206,-1.1771,0.7905,0.1321,-0.4453,-0.0810,
11.581988,-0.3049,1.1644,0.2426,0.5206,-1.1771,0.7905,0.1321,-0.4453,-0.0810,
11.584681,-0.3049,1.1644,0.2426,1.0495,2.5129,3.2130,0.1321,-0.4453,-0.0810,
11.586287,-0.3049,1.1644,0.2426,1.0495,2.5129,3.2130,-0.2525,-0.3968,-0.1039,
11.603965,-0.3049,1.1644,0.2426,1.0495,2.5129,3.2130,-0.3286,-0.4250,-0.2115,
11.621837,-0.2348,1.0503,0.3425,1.0495,2.5129,3.2130,-0.3286,-0.4250,-0.2115,
11.623821,-0.2348,1.0503,0.3425,1.8049,1.4118,4.0223,-0.3286,-0.4250,-0.2115,
11.625385,-0.2348,1.0503,0.3425,1.8049,1.4118,4.0223,-0.0676,-0.1220,-0.2162,
11.641576,-0.2348,1.0503,0.3425,1.8049,1.4118,4.0223,0.1342,0.4799,-0.1177,
11.661830,-0.1415,0.7884,0.1393,1.8049,1.4118,4.0223,0.1342,0.4799,-0.1177,
11.664417,-0.1415,0.7884,0.1393,2.7332,-1.1499,2.0116,0.1342,0.4799,-0.1177,
11.666313,-0.1415,0.7884,0.1393,2.7332,-1.1499,2.0116,0.1577,0.8980,-0.0213,
11.682140,-0.1415,0.7884,0.1393,2.7332,-1.1499,2.0116,0.0474,1.2650,0.0660,
11.702124,-0.1688,0.6447,-0.0528,2.7332,-1.1499,2.0116,0.0474,1.2650,0.0660,
11.704167,-0.1688,0.6447,-0.0528,2.4242,-2.5583,0.3434,0.0474,1.2650,0.0660,
11.705930,-0.1688,0.6447,-0.0528,2.4242,-2.5583,0.3434,-0.1182,1.7497,0.1928,
11.722426,-0.1688,0.6447,-0.0528,2.4242,-2.5583,0.3434,-0.2610,2.1556,0.2370,
11.742516,-0.2836,0.7698,-0.1143,2.4242,-2.5583,0.3434,-0.2610,2.1556,0.2370,
11.745538,-0.2836,0.7698,-0.1143,1.1455,-1.3745,-0.0151,-0.2610,2.1556,0.2370,
11.747575,-0.2836,0.7698,-0.1143,1.1455,-1.3745,-0.0151,-0.1736,2.7644,0.1289,
11.761880,-0.2836,0.7698,-0.1143,1.1455,-1.3745,-0.0151,0.4458,3.9654,-0.3143,
11.782007,-0.4214,0.7341,-0.3200,1.1455,-1.3745,-0.0151,0.4458,3.9654,-0.3143,
11.784286,-0.4214,0.7341,-0.3200,-0.3551,-1.7011,-1.4668,0.4458,3.9654,-0.3143,
11.786251,-0.4214,0.7341,-0.3200,-0.3551,-1.7011,-1.4668,0.6157,3.5804,-0.3718,
11.801855,-0.4214,0.7341,-0.3200,-0.3551,-1.7011,-1.4668,0.3217,2.0517,-0.2216,
11.821369,-0.2187,0.6779,-0.3831,-0.3551,-1.7011,-1.4668,0.3217,2.0517,-0.2216,
11.823849,-0.2187,0.6779,-0.3831,1.5161,-2.1710,-1.5003,0.3217,2.0517,-0.2216,
11.825622,-0.2187,0.6779,-0.3831,1.5161,-2.1710,-1.5003,-0.0629,0.5912,-0.1209,
11.842554,-0.2187,0.6779,-0.3831,1.5161,-2.1710,-1.5003,-0.3079,-0.3143,-0.0921,
11.861243,-0.0943,0.8023,-0.3154,1.5161,-2.1710,-1.5003,-0.3079,-0.3143,-0.0921,
11.863577,-0.0943,0.8023,-0.3154,2.7596,-0.9535,-0.8823,-0.3079,-0.3143,-0.0921,
11.865341,-0.0943,0.8023,-0.3154,2.7596,-0.9535,-0.8823,-0.4778,-0.8208,-0.0991,
11.881167,-0.0943,0.8023,-0.3154,2.7596,-0.9535,-0.8823,-0.7356,-0.8911,-0.1997,
11.901636,-0.1749,0.9670,-0.3257,2.7596,-0.9535,-0.8823,-0.7356,-0.8911,-0.1997,
11.904018,-0.1749,0.9670,-0.3257,2.0795,0.6300,-1.3147,-0.7356,-0.8911,-0.1997,
11.905645,-0.1749,0.9670,-0.3257,2.0795,0.6300,-1.3147,-0.9199,-0.3228,-0.3611,
11.921593,-0.1749,0.9670,-0.3257,2.0795,0.6300,-1.3147,-0.6567,0.7084,-0.4346,
11.941493,-0.4925,1.0185,-0.1930,2.0795,0.6300,-1.3147,-0.6567,0.7084,-0.4346,
11.944560,-0.4925,1.0185,-0.1930,-0.9340,1.1349,-0.2314,-0.6567,0.7084,-0.4346,
11.946602,-0.4925,1.0185,-0.1930,-0.9340,1.1349,-0.2314,-0.0570,1.1691,-0.3238,
11.961772,-0.4925,1.0185,-0.1930,-0.9340,1.1349,-0.2314,0.3009,0.3808,-0.1246,
11.981054,-0.5042,1.1912,-0.3403,-0.9340,1.1349,-0.2314,0.3009,0.3808,-0.1246,
11.983903,-0.5042,1.1912,-0.3403,-1.0231,2.8714,-1.5112,0.3009,0.3808,-0.1246,
11.985630,-0.5042,1.1912,-0.3403,-1.0231,2.8714,-1.5112,0.1907,-0.4218,0.1880,
12.001520,-0.5042,1.1912,-0.3403,-1.0231,2.8714,-1.5112,0.5768,1.0067,-0.0383,
12.020528,-0.6205,0.9877,-0.4520,-1.0231,2.8714,-1.5112,0.5768,1.0067,-0.0383,
12.022341,-0.6205,0.9877,-0.4520,-2.2122,0.8943,-2.4252,0.5768,1.0067,-0.0383,
12.023392,-0.6205,0.9877,-0.4520,-2.2122,0.8943,-2.4252,1.4466,2.0671,-0.5774,
12.041137,-0.6205,0.9877,-0.4520,-2.2122,0.8943,-2.4252,1.8946,1.1595,-0.5145,
12.061512,-0.4292,1.2164,-0.3838,-2.2122,0.8943,-2.4252,1.8946,1.1595,-0.5145,
12.064965,-0.4292,1.2164,-0.3838,-0.3004,3.3829,-0.9297,1.8946,1.1595,-0.5145,
12.067102,-0.4292,1.2164,-0.3838,-0.3004,3.3829,-0.9297,1.3167,-1.0424,0.1023,
12.081882,-0.4292,1.2164,-0.3838,-0.3004,3.3829,-0.9297,0.2040,-3.2235,0.5278,
12.101785,-0.0393,1.1328,-0.0506,-0.3004,3.3829,-0.9297,0.2040,-3.2235,0.5278,
12.104164,-0.0393,1.1328,-0.0506,3.6587,2.6020,2.2550,0.2040,-3.2235,0.5278,
12.105734,-0.0393,1.1328,-0.0506,3.6587,2.6020,2.2550,-0.7254,-4.1125,0.8559,
12.122327,-0.0393,1.1328,-0.0506,3.6587,2.6020,2.2550,-1.1356,-2.8176,0.8032,
12.141773,0.0628,1.0759,0.3933,3.6587,2.6020,2.2550,-1.1356,-2.8176,0.8032,
12.143805,0.0628,1.0759,0.3933,4.6983,1.8251,5.7198,-1.1356,-2.8176,0.8032,
12.145453,0.0628,1.0759,0.3933,4.6983,1.8251,5.7198,-0.1933,0.2338,0.1502,
12.161113,0.0628,1.0759,0.3933,4.6983,1.8251,5.7198,0.3334,-0.4091,0.0101,
12.180796,-0.3618,1.0283,0.1625,4.6983,1.8251,5.7198,0.3334,-0.4091,0.0101,
12.183456,-0.3618,1.0283,0.1625,0.5140,1.3490,3.4649,0.3334,-0.4091,0.0101,
12.184961,-0.3618,1.0283,0.1625,0.5140,1.3490,3.4649,-0.0618,-1.4248,0.1465,
12.201624,-0.3618,1.0283,0.1625,0.5140,1.3490,3.4649,-0.4879,-0.9539,-0.0144,
12.220669,-0.4644,0.8876,0.1446,0.5140,1.3490,3.4649,-0.4879,-0.9539,-0.0144,
12.223215,-0.4644,0.8876,0.1446,-0.4456,-0.0736,2.9568,-0.4879,-0.9539,-0.0144,
12.225227,-0.4644,0.8876,0.1446,-0.4456,-0.0736,2.9568,-0.6866,0.0613,-0.0383,
12.241263,-0.4644,0.8876,0.1446,-0.4456,-0.0736,2.9568,-0.6589,0.6812,-0.1092,
12.260974,-0.4244,0.7368,0.0293,-0.4456,-0.0736,2.9568,-0.6589,0.6812,-0.1092,
12.263832,-0.4244,0.7368,0.0293,-0.0530,-1.5875,1.6010,-0.6589,0.6812,-0.1092,
12.265459,-0.4244,0.7368,0.0293,-0.0530,-1.5875,1.6010,-0.5481,0.8772,-0.2200,
12.281450,-0.4244,0.7368,0.0293,-0.0530,-1.5875,1.6010,-0.5358,0.8970,-0.2594,
12.301039,-0.3965,0.6027,-0.1649,-0.0530,-1.5875,1.6010,-0.5358,0.8970,-0.2594,
12.303508,-0.3965,0.6027,-0.1649,0.2585,-2.8903,-0.3469,-0.5358,0.8970,-0.2594,
12.305291,-0.3965,0.6027,-0.1649,0.2585,-2.8903,-0.3469,-0.5822,0.7356,-0.1795,
12.322098,-0.3965,0.6027,-0.1649,0.2585,-2.8903,-0.3469,-0.5923,0.5321,-0.0570,
12.340668,-0.2981,0.6205,-0.2507,0.2585,-2.8903,-0.3469,-0.5923,0.5321,-0.0570,
12.343465,-0.2981,0.6205,-0.2507,1.2339,-2.7246,-1.2885,-0.5923,0.5321,-0.0570,
12.345423,-0.2981,0.6205,-0.2507,1.2339,-2.7246,-1.2885,-0.4416,0.2738,0.0309,
12.360833,-0.2981,0.6205,-0.2507,1.2339,-2.7246,-1.2885,-0.2898,-0.1896,0.0618,
12.380450,-0.3481,0.7351,-0.1559,1.2339,-2.7246,-1.2885,-0.2898,-0.1896,0.0618,
12.381891,-0.3481,0.7351,-0.1559,0.7246,-1.6257,-0.4813,-0.2898,-0.1896,0.0618,
12.382828,-0.3481,0.7351,-0.1559,0.7246,-1.6257,-0.4813,-0.1273,-0.6775,0.0703,
12.400749,-0.3481,0.7351,-0.1559,0.7246,-1.6257,-0.4813,-0.0096,-0.9076,0.0469,
12.420228,-0.3904,0.8399,-0.1654,0.7246,-1.6257,-0.4813,-0.0096,-0.9076,0.0469,
12.422212,-0.3904,0.8399,-0.1654,0.3202,-0.6110,-0.7300,-0.0096,-0.9076,0.0469,
12.423405,-0.3904,0.8399,-0.1654,0.3202,-0.6110,-0.7300,-0.0117,-0.8474,0.0383,
12.440952,-0.3904,0.8399,-0.1654,0.3202,-0.6110,-0.7300,-0.1076,-0.5907,0.1246,
12.461236,-0.3924,0.8465,-0.1884,0.3202,-0.6110,-0.7300,-0.1076,-0.5907,0.1246,
12.464806,-0.3924,0.8465,-0.1884,0.2959,-0.5617,-1.0946,-0.1076,-0.5907,0.1246,
12.466833,-0.3924,0.8465,-0.1884,0.2959,-0.5617,-1.0946,-0.1358,-0.2940,0.2668,
12.480916,-0.3924,0.8465,-0.1884,0.2959,-0.5617,-1.0946,-0.0394,-0.0852,0.3537,
12.501100,-0.3845,0.8900,-0.2409,0.2959,-0.5617,-1.0946,-0.0394,-0.0852,0.3537,
12.503480,-0.3845,0.8900,-0.2409,0.2667,-0.1875,-1.6485,-0.0394,-0.0852,0.3537,
12.505474,-0.3845,0.8900,-0.2409,0.2667,-0.1875,-1.6485,0.0815,-0.0932,0.3585,
12.521360,-0.3845,0.8900,-0.2409,0.2667,-0.1875,-1.6485,0.1135,-0.3489,0.2674,
12.540596,-0.5680,1.0393,-0.1625,0.2667,-0.1875,-1.6485,0.1135,-0.3489,0.2674,
12.544054,-0.5680,1.0393,-0.1625,-1.6286,1.2336,-0.8599,0.1135,-0.3489,0.2674,
12.546493,-0.5680,1.0393,-0.1625,-1.6286,1.2336,-0.8599,-0.0218,-0.5396,0.1188,
12.560994,-0.5680,1.0393,-0.1625,-1.6286,1.2336,-0.8599,-0.1582,-0.4059,0.0320,
12.580377,-0.5436,1.1563,-0.0904,-1.6286,1.2336,-0.8599,-0.1582,-0.4059,0.0320,
12.583435,-0.5436,1.1563,-0.0904,-1.4032,2.3662,-0.2600,-0.1582,-0.4059,0.0320,
12.585599,-0.5436,1.1563,-0.0904,-1.4032,2.3662,-0.2600,-0.2162,-0.1625,0.0570,
12.600200,-0.5436,1.1563,-0.0904,-1.4032,2.3662,-0.2600,-0.1289,0.0746,0.1417,
12.620027,-0.4481,1.1453,-0.3125,-1.4032,2.3662,-0.2600,-0.1289,0.0746,0.1417,
12.622351,-0.4481,1.1453,-0.3125,-0.5015,2.2389,-2.5051,-0.1289,0.0746,0.1417,
12.624113,-0.4481,1.1453,-0.3125,-0.5015,2.2389,-2.5051,0.1310,0.1380,0.1763,
12.640317,-0.4481,1.1453,-0.3125,-0.5015,2.2389,-2.5051,0.3920,-0.1822,0.0905,
12.660588,-0.6455,1.3224,-0.1058,-0.5015,2.2389,-2.5051,0.3920,-0.1822,0.0905,
12.663650,-0.6455,1.3224,-0.1058,-2.4833,3.9604,-0.3890,0.3920,-0.1822,0.0905,
12.665109,-0.6455,1.3224,-0.1058,-2.4833,3.9604,-0.3890,0.4309,-0.5662,-0.1124,
12.680695,-0.6455,1.3224,-0.1058,-2.4833,3.9604,-0.3890,0.3995,-0.7436,-0.1896,
12.701452,-0.3689,0.7999,0.0503,-2.4833,3.9604,-0.3890,0.3995,-0.7436,-0.1896,
12.703822,-0.3689,0.7999,0.0503,0.2988,-1.1262,1.1885,0.3995,-0.7436,-0.1896,
12.705456,-0.3689,0.7999,0.0503,0.2988,-1.1262,1.1885,0.3814,-0.8282,-0.1736,
12.721268,-0.3689,0.7999,0.0503,0.2988,-1.1262,1.1885,0.3318,-0.7569,-0.1161,
12.741293,-0.3371,0.8658,0.0594,0.2988,-1.1262,1.1885,0.3318,-0.7569,-0.1161,
12.745259,-0.3371,0.8658,0.0594,0.6820,-0.4488,1.2662,0.3318,-0.7569,-0.1161,
12.747209,-0.3371,0.8658,0.0594,0.6820,-0.4488,1.2662,0.1236,-0.4112,-0.0895,
12.760186,-0.3371,0.8658,0.0594,0.6820,-0.4488,1.2662,-0.1816,-0.1252,-0.1523,
12.780574,-0.2927,1.2372,0.3191,0.6820,-0.4488,1.2662,-0.1816,-0.1252,-0.1523,
12.783504,-0.2927,1.2372,0.3191,1.1681,3.2091,3.7580,-0.1816,-0.1252,-0.1523,
12.785295,-0.2927,1.2372,0.3191,1.1681,3.2091,3.7580,-0.3308,-0.2684,-0.2471,
12.802148,-0.2927,1.2372,0.3191,1.1681,3.2091,3.7580,-0.0714,-0.5433,-0.3089,
12.820769,-0.2265,1.0310,0.2519,1.1681,3.2091,3.7580,-0.0714,-0.5433,-0.3089,
12.822976,-0.2265,1.0310,0.2519,1.9245,1.2291,2.9617,-0.0714,-0.5433,-0.3089,
12.824543,-0.2265,1.0310,0.2519,1.9245,1.2291,2.9617,0.2690,-0.3595,-0.2631,
12.840546,-0.2265,1.0310,0.2519,1.9245,1.2291,2.9617,0.4346,0.1688,-0.0570,
12.860546,-0.1539,0.7376,-0.0002,1.9245,1.2291,2.9617,0.4346,0.1688,-0.0570,
12.863772,-0.1539,0.7376,-0.0002,2.6596,-1.6306,0.5645,0.4346,0.1688,-0.0570,
12.865382,-0.1539,0.7376,-0.0002,2.6596,-1.6306,0.5645,0.4149,0.9321,0.1571,
12.881041,-0.1539,0.7376,-0.0002,2.6596,-1.6306,0.5645,0.2711,1.6474,0.2525,
12.899985,-0.2045,0.7109,-0.1229,2.6596,-1.6306,0.5645,0.2711,1.6474,0.2525,
12.902806,-0.2045,0.7109,-0.1229,2.0529,-1.9156,-0.3040,0.2711,1.6474,0.2525,
12.904777,-0.2045,0.7109,-0.1229,2.0529,-1.9156,-0.3040,0.1710,2.2184,0.2530,
12.922008,-0.2045,0.7109,-0.1229,2.0529,-1.9156,-0.3040,0.4677,3.1745,-0.0112,
12.940855,-0.4324,0.7354,-0.2111,2.0529,-1.9156,-0.3040,0.4677,3.1745,-0.0112,
12.943626,-0.4324,0.7354,-0.2111,-0.3492,-1.6802,-0.6282,0.4677,3.1745,-0.0112,
12.945196,-0.4324,0.7354,-0.2111,-0.3492,-1.6802,-0.6282,0.8282,3.3955,-0.2333,
12.959667,-0.4324,0.7354,-0.2111,-0.3492,-1.6802,-0.6282,0.7185,2.2594,-0.1907,
12.980157,-0.3867,0.6056,-0.3323,-0.3492,-1.6802,-0.6282,0.7185,2.2594,-0.1907,
12.982124,-0.3867,0.6056,-0.3323,-0.0282,-2.8633,-1.1100,0.7185,2.2594,-0.1907,
12.983552,-0.3867,0.6056,-0.3323,-0.0282,-2.8633,-1.1100,0.4272,1.0280,-0.1198,
13.000338,-0.3867,0.6056,-0.3323,-0.0282,-2.8633,-1.1100,0.0581,0.2296,-0.0501,
13.021256,-0.1781,0.6130,-0.2919,-0.0282,-2.8633,-1.1100,0.0581,0.2296,-0.0501,
13.023691,-0.1781,0.6130,-0.2919,1.9900,-2.7571,-0.5357,0.0581,0.2296,-0.0501,
13.025576,-0.1781,0.6130,-0.2919,1.9900,-2.7571,-0.5357,-0.3302,-0.2386,-0.0437,
13.040448,-0.1781,0.6130,-0.2919,1.9900,-2.7571,-0.5357,-0.5965,-0.5912,-0.1087,
13.060708,-0.1358,0.8727,-0.3301,1.9900,-2.7571,-0.5357,-0.5965,-0.5912,-0.1087,
13.062990,-0.1358,0.8727,-0.3301,2.4674,-0.2416,-1.1341,-0.5965,-0.5912,-0.1087,
13.064800,-0.1358,0.8727,-0.3301,2.4674,-0.2416,-1.1341,-0.7979,-0.6482,-0.1848,
13.080468,-0.1358,0.8727,-0.3301,2.4674,-0.2416,-1.1341,-0.8373,0.0197,-0.2690,
13.099974,-0.2805,0.9596,-0.3650,2.4674,-0.2416,-1.1341,-0.8373,0.0197,-0.2690,
13.102339,-0.2805,0.9596,-0.3650,1.1390,0.5799,-1.7921,-0.8373,0.0197,-0.2690,
13.104037,-0.2805,0.9596,-0.3650,1.1390,0.5799,-1.7921,-0.5790,1.0179,-0.3201,
13.121061,-0.2805,0.9596,-0.3650,1.1390,0.5799,-1.7921,-0.0836,1.3428,-0.4000,
13.140348,-0.6418,1.1627,-0.2966,1.1390,0.5799,-1.7921,-0.0836,1.3428,-0.4000,
13.143006,-0.6418,1.1627,-0.2966,-2.3598,2.6022,-1.0542,-0.0836,1.3428,-0.4000,
13.144859,-0.6418,1.1627,-0.2966,-2.3598,2.6022,-1.0542,0.2732,0.1933,-0.2173,
13.160418,-0.6418,1.1627,-0.2966,-2.3598,2.6022,-1.0542,0.2035,-0.5800,0.2418,
13.179679,-0.5626,1.1148,-0.3877,-2.3598,2.6022,-1.0542,0.2035,-0.5800,0.2418,
13.182356,-0.5626,1.1148,-0.3877,-1.5734,2.1491,-1.8941,0.2035,-0.5800,0.2418,
13.183989,-0.5626,1.1148,-0.3877,-1.5734,2.1491,-1.8941,0.7270,1.2373,-0.0703,
13.200816,-0.5626,1.1148,-0.3877,-1.5734,2.1491,-1.8941,1.3204,1.6586,-0.6115,
13.220282,-0.7942,1.2899,-0.5157,-1.5734,2.1491,-1.8941,1.3204,1.6586,-0.6115,
13.222614,-0.7942,1.2899,-0.5157,-3.8511,4.0092,-2.5658,1.3204,1.6586,-0.6115,
13.224370,-0.7942,1.2899,-0.5157,-3.8511,4.0092,-2.5658,1.5382,0.6003,-0.4538,
13.240280,-0.7942,1.2899,-0.5157,-3.8511,4.0092,-2.5658,0.9364,-1.2975,0.3121,
13.259698,-0.2682,1.1157,-0.1705,-3.8511,4.0092,-2.5658,0.9364,-1.2975,0.3121,
13.263590,-0.2682,1.1157,-0.1705,1.3699,2.4473,1.1838,0.9364,-1.2975,0.3121,
13.265385,-0.2682,1.1157,-0.1705,1.3699,2.4473,1.1838,-0.0714,-3.2826,0.8581,
13.279603,-0.2682,1.1157,-0.1705,1.3699,2.4473,1.1838,-0.7430,-3.6006,1.0440,
13.300227,0.1664,0.9880,0.0071,1.3699,2.4473,1.1838,-0.7430,-3.6006,1.0440,
13.302415,0.1664,0.9880,0.0071,5.6521,1.0033,2.2317,-0.7430,-3.6006,1.0440,
13.303999,0.1664,0.9880,0.0071,5.6521,1.0033,2.2317,-0.9193,-1.9457,0.7100,
13.319537,0.1664,0.9880,0.0071,5.6521,1.0033,2.2317,0.0559,0.6189,0.1124,
13.340633,-0.3806,1.0254,0.2350,5.6521,1.0033,2.2317,0.0559,0.6189,0.1124,
13.342806,-0.3806,1.0254,0.2350,0.1954,1.2638,4.1981,0.0559,0.6189,0.1124,
13.344363,-0.3806,1.0254,0.2350,0.1954,1.2638,4.1981,0.4096,0.0378,0.1981,
13.360081,-0.3806,1.0254,0.2350,0.1954,1.2638,4.1981,-0.0368,-0.9987,0.4719,
13.379865,-0.4647,1.0136,0.0950,0.1954,1.2638,4.1981,-0.0368,-0.9987,0.4719,
13.383370,-0.4647,1.0136,0.0950,-0.7101,1.1099,2.8128,-0.0368,-0.9987,0.4719,
13.385244,-0.4647,1.0136,0.0950,-0.7101,1.1099,2.8128,-0.5316,-0.8634,0.3260,
13.399414,-0.4647,1.0136,0.0950,-0.7101,1.1099,2.8128,-0.8325,-0.1475,0.1555,
13.419807,-0.4351,0.7862,0.1510,-0.7101,1.1099,2.8128,-0.8325,-0.1475,0.1555,
13.422227,-0.4351,0.7862,0.1510,-0.4661,-1.2153,2.9570,-0.8325,-0.1475,0.1555,
13.424047,-0.4351,0.7862,0.1510,-0.4661,-1.2153,2.9570,-0.8107,0.3398,0.0474,
13.439812,-0.4351,0.7862,0.1510,-0.4661,-1.2153,2.9570,-0.6408,0.5795,-0.0639,
13.459618,-0.3701,0.6503,0.0032,-0.4661,-1.2153,2.9570,-0.6408,0.5795,-0.0639,
13.461932,-0.3701,0.6503,0.0032,0.1488,-2.5851,1.3187,-0.6408,0.5795,-0.0639,
13.463651,-0.3701,0.6503,0.0032,0.1488,-2.5851,1.3187,-0.5183,0.6322,-0.1529,
13.480136,-0.3701,0.6503,0.0032,0.1488,-2.5851,1.3187,-0.5193,0.5518,-0.1997,
13.499215,-0.3413,0.6157,-0.1986,0.1488,-2.5851,1.3187,-0.5193,0.5518,-0.1997,
13.501289,-0.3413,0.6157,-0.1986,0.4650,-2.9241,-0.7549,-0.5193,0.5518,-0.1997,
13.503435,-0.3413,0.6157,-0.1986,0.4650,-2.9241,-0.7549,-0.6232,0.4224,-0.1502,
13.520770,-0.3413,0.6157,-0.1986,0.4650,-2.9241,-0.7549,-0.6956,0.2972,-0.0453,
13.540347,-0.2807,0.7122,-0.2169,0.4650,-2.9241,-0.7549,-0.6956,0.2972,-0.0453,
13.543937,-0.2807,0.7122,-0.2169,1.0778,-1.9925,-1.1156,-0.6956,0.2972,-0.0453,
13.545581,-0.2807,0.7122,-0.2169,1.0778,-1.9925,-1.1156,-0.6381,0.2024,0.0383,
13.559837,-0.2807,0.7122,-0.2169,1.0778,-1.9925,-1.1156,-0.4730,-0.1550,0.0549,
13.579907,-0.3379,0.8793,-0.1375,1.0778,-1.9925,-1.1156,-0.4730,-0.1550,0.0549,
13.582811,-0.3379,0.8793,-0.1375,0.4996,-0.3824,-0.5333,-0.4730,-0.1550,0.0549,
13.584786,-0.3379,0.8793,-0.1375,0.4996,-0.3824,-0.5333,-0.2594,-0.6370,0.0543,
13.599617,-0.3379,0.8793,-0.1375,0.4996,-0.3824,-0.5333,-0.0948,-0.8346,0.1188,
13.619596,-0.3518,0.8578,-0.2040,0.4996,-0.3824,-0.5333,-0.0948,-0.8346,0.1188,
13.622681,-0.3518,0.8578,-0.2040,0.3531,-0.6115,-1.3600,-0.0948,-0.8346,0.1188,
13.624983,-0.3518,0.8578,-0.2040,0.3531,-0.6115,-1.3600,-0.0229,-0.6189,0.2562,
13.639362,-0.3518,0.8578,-0.2040,0.3531,-0.6115,-1.3600,0.0501,-0.1907,0.3627,
13.660036,-0.4522,0.8429,-0.2626,0.3531,-0.6115,-1.3600,0.0501,-0.1907,0.3627,
13.662446,-0.4522,0.8429,-0.2626,-0.7266,-0.7995,-1.9670,0.0501,-0.1907,0.3627,
13.664374,-0.4522,0.8429,-0.2626,-0.7266,-0.7995,-1.9670,0.1795,-0.0607,0.3867,
13.678997,-0.4522,0.8429,-0.2626,-0.7266,-0.7995,-1.9670,0.3467,-0.1699,0.3808,
13.698952,-0.4490,0.9499,-0.2047,-0.7266,-0.7995,-1.9670,0.3467,-0.1699,0.3808,
13.702123,-0.4490,0.9499,-0.2047,-0.8107,0.2124,-1.2700,0.3467,-0.1699,0.3808,
13.704140,-0.4490,0.9499,-0.2047,-0.8107,0.2124,-1.2700,0.4133,-0.3931,0.3212,
13.720586,-0.4490,0.9499,-0.2047,-0.8107,0.2124,-1.2700,0.2716,-0.4096,0.2024,
13.738927,-0.5995,1.1766,-0.1827,-0.8107,0.2124,-1.2700,0.2716,-0.4096,0.2024,
13.740874,-0.5995,1.1766,-0.1827,-2.3684,2.4077,-0.9867,0.2716,-0.4096,0.2024,
13.742344,-0.5995,1.1766,-0.1827,-2.3684,2.4077,-0.9867,0.0474,-0.2338,0.0879,
13.759248,-0.5995,1.1766,-0.1827,-2.3684,2.4077,-0.9867,-0.0676,-0.0107,-0.0218,
13.779156,-0.6210,0.9210,-0.2292,-2.3684,2.4077,-0.9867,-0.0676,-0.0107,-0.0218,
13.781898,-0.6210,0.9210,-0.2292,-2.5872,-0.1016,-1.4624,-0.0676,-0.0107,-0.0218,
13.784252,-0.6210,0.9210,-0.2292,-2.5872,-0.1016,-1.4624,-0.0138,0.2599,-0.0154,
13.801160,-0.6210,0.9210,-0.2292,-2.5872,-0.1016,-1.4624,0.2695,0.1944,0.0117,
13.819525,-0.5367,1.3774,-0.0958,-2.5872,-0.1016,-1.4624,0.2695,0.1944,0.0117,
13.821852,-0.5367,1.3774,-0.0958,-1.7679,4.3753,-0.0769,0.2695,0.1944,0.0117,
13.823637,-0.5367,1.3774,-0.0958,-1.7679,4.3753,-0.0769,0.5007,0.0176,-0.1172,
13.839381,-0.5367,1.3774,-0.0958,-1.7679,4.3753,-0.0769,0.5449,-0.2898,-0.2019,
13.858974,-0.2922,0.9552,0.0496,-1.7679,4.3753,-0.0769,0.5449,-0.2898,-0.2019,
13.861258,-0.2922,0.9552,0.0496,0.6921,0.2805,1.5186,0.5449,-0.2898,-0.2019,
13.862823,-0.2922,0.9552,0.0496,0.6921,0.2805,1.5186,0.5598,-0.6695,-0.3057,
13.879444,-0.2922,0.9552,0.0496,0.6921,0.2805,1.5186,0.4996,-0.8895,-0.3244,
13.899446,-0.2641,0.9657,0.0484,0.6921,0.2805,1.5186,0.4996,-0.8895,-0.3244,
13.901508,-0.2641,0.9657,0.0484,1.1123,0.4500,1.5788,0.4996,-0.8895,-0.3244,
13.903129,-0.2641,0.9657,0.0484,1.1123,0.4500,1.5788,0.3222,-0.9433,-0.2519,
13.920388,-0.2641,0.9657,0.0484,1.1123,0.4500,1.5788,0.0186,-0.8219,-0.1838,
13.939104,-0.1649,1.2699,0.1849,1.1123,0.4500,1.5788,0.0186,-0.8219,-0.1838,
13.941555,-0.1649,1.2699,0.1849,2.2008,3.4710,2.8458,0.0186,-0.8219,-0.1838,
13.943203,-0.1649,1.2699,0.1849,2.2008,3.4710,2.8458,-0.2759,-0.6450,-0.2280,
13.959358,-0.1649,1.2699,0.1849,2.2008,3.4710,2.8458,-0.2477,-0.6008,-0.2498,
13.978935,-0.1334,0.9938,0.1752,2.2008,3.4710,2.8458,-0.2477,-0.6008,-0.2498,
13.981450,-0.1334,0.9938,0.1752,2.6167,0.7917,2.5582,-0.2477,-0.6008,-0.2498,
13.983365,-0.1334,0.9938,0.1752,2.6167,0.7917,2.5582,-0.0016,-0.2344,-0.0772,
13.998793,-0.1334,0.9938,0.1752,2.6167,0.7917,2.5582,0.2381,0.7233,0.0410,
14.018685,-0.1385,0.7569,-0.0220,2.6167,0.7917,2.5582,0.2381,0.7233,0.0410,
14.020676,-0.1385,0.7569,-0.0220,2.5259,-1.5433,0.6775,0.2381,0.7233,0.0410,
14.022476,-0.1385,0.7569,-0.0220,2.5259,-1.5433,0.6775,0.3819,1.7641,0.0959,
14.040133,-0.1385,0.7569,-0.0220,2.5259,-1.5433,0.6775,0.4336,2.5582,0.1726,
14.058866,-0.2448,0.6677,-0.1937,2.5259,-1.5433,0.6775,0.4336,2.5582,0.1726,
14.062058,-0.2448,0.6677,-0.1937,1.3383,-2.4194,-0.5303,0.4336,2.5582,0.1726,
14.063838,-0.2448,0.6677,-0.1937,1.3383,-2.4194,-0.5303,0.3446,3.0110,0.2722,
14.079075,-0.2448,0.6677,-0.1937,1.3383,-2.4194,-0.5303,0.1811,2.9135,0.2061,
14.099205,-0.2697,0.6525,-0.2042,1.3383,-2.4194,-0.5303,0.1811,2.9135,0.2061,
14.102703,-0.2697,0.6525,-0.2042,0.8147,-2.5855,-0.1132,0.1811,2.9135,0.2061,
14.104381,-0.2697,0.6525,-0.2042,0.8147,-2.5855,-0.1132,0.1156,2.4379,-0.1055,
14.118764,-0.2697,0.6525,-0.2042,0.8147,-2.5855,-0.1132,0.1198,1.7055,-0.3478,
14.139364,-0.3755,0.7290,-0.2538,0.8147,-2.5855,-0.1132,0.1198,1.7055,-0.3478,
14.141602,-0.3755,0.7290,-0.2538,-0.3104,-1.7958,-0.2757,0.1198,1.7055,-0.3478,
14.143556,-0.3755,0.7290,-0.2538,-0.3104,-1.7958,-0.2757,-0.0192,0.7617,-0.3185,
14.159064,-0.3755,0.7290,-0.2538,-0.3104,-1.7958,-0.2757,-0.1246,0.0405,-0.0975,
14.178451,-0.1202,0.7549,-0.2086,-0.3104,-1.7958,-0.2757,-0.1246,0.0405,-0.0975,
14.180469,-0.1202,0.7549,-0.2086,2.2299,-1.5203,0.1957,-0.1246,0.0405,-0.0975,
14.181871,-0.1202,0.7549,-0.2086,2.2299,-1.5203,0.1957,-0.1736,-0.4053,-0.0394,
14.198247,-0.1202,0.7549,-0.2086,2.2299,-1.5203,0.1957,-0.2791,-0.6051,-0.2466,
14.218906,-0.1622,0.8876,-0.3872,2.2299,-1.5203,0.1957,-0.2791,-0.6051,-0.2466,
14.221552,-0.1622,0.8876,-0.3872,1.9128,-0.2201,-1.7047,-0.2791,-0.6051,-0.2466,
14.223292,-0.1622,0.8876,-0.3872,1.9128,-0.2201,-1.7047,-0.5481,-0.4586,-0.3595,
14.238371,-0.1622,0.8876,-0.3872,1.9128,-0.2201,-1.7047,-0.7116,-0.0160,-0.2919,
14.258727,-0.2985,0.9174,-0.3484,1.9128,-0.2201,-1.7047,-0.7116,-0.0160,-0.2919,
14.260984,-0.2985,0.9174,-0.3484,0.6955,0.0671,-1.5606,-0.7116,-0.0160,-0.2919,
14.262634,-0.2985,0.9174,-0.3484,0.6955,0.0671,-1.5606,-0.5736,0.5364,-0.2509,
14.278799,-0.2985,0.9174,-0.3484,0.6955,0.0671,-1.5606,-0.1039,0.8874,-0.3574,
14.298682,-0.6376,1.2447,-0.3296,0.6955,0.0671,-1.5606,-0.1039,0.8874,-0.3574,
14.300813,-0.6376,1.2447,-0.3296,-2.5710,3.2951,-1.3932,-0.1039,0.8874,-0.3574,
14.302674,-0.6376,1.2447,-0.3296,-2.5710,3.2951,-1.3932,0.2732,0.3968,-0.2535,
14.319284,-0.6376,1.2447,-0.3296,-2.5710,3.2951,-1.3932,0.1257,-0.5161,0.2125,
14.338631,-0.4845,1.1521,-0.4190,-2.5710,3.2951,-1.3932,0.1257,-0.5161,0.2125,
14.340994,-0.4845,1.1521,-0.4190,-1.0577,2.4056,-2.2076,0.1257,-0.5161,0.2125,
14.342856,-0.4845,1.1521,-0.4190,-1.0577,2.4056,-2.2076,0.5140,1.1068,0.0724,
14.358447,-0.4845,1.1521,-0.4190,-1.0577,2.4056,-2.2076,1.2192,1.9894,-0.4629,
14.378072,-0.6020,0.9858,-0.6310,-1.0577,2.4056,-2.2076,1.2192,1.9894,-0.4629,
14.381230,-0.6020,0.9858,-0.6310,-2.2738,0.8787,-3.7544,1.2192,1.9894,-0.4629,
14.383280,-0.6020,0.9858,-0.6310,-2.2738,0.8787,-3.7544,1.5659,0.9768,-0.5539,
14.397901,-0.6020,0.9858,-0.6310,-2.2738,0.8787,-3.7544,1.2309,-0.6408,-0.0932,
14.418602,-0.2724,1.0158,-0.2424,-2.2738,0.8787,-3.7544,1.2309,-0.6408,-0.0932,
14.420897,-0.2724,1.0158,-0.2424,1.0543,1.3720,0.5632,1.2309,-0.6408,-0.0932,
14.422551,-0.2724,1.0158,-0.2424,1.0543,1.3720,0.5632,0.4171,-2.0581,0.2599,
14.438519,-0.2724,1.0158,-0.2424,1.0543,1.3720,0.5632,-0.5023,-3.7300,0.6812,
14.458144,0.0613,1.2340,-0.0115,1.0543,1.3720,0.5632,-0.5023,-3.7300,0.6812,
14.461015,0.0613,1.2340,-0.0115,4.4809,3.4355,2.3699,-0.5023,-3.7300,0.6812,
14.463047,0.0613,1.2340,-0.0115,4.4809,3.4355,2.3699,-0.9135,-3.9271,0.7611,
14.479047,0.0613,1.2340,-0.0115,4.4809,3.4355,2.3699,-0.9257,-2.2360,0.5428,
14.498564,-0.1923,1.1170,0.3946,4.4809,3.4355,2.3699,-0.9257,-2.2360,0.5428,
14.500703,-0.1923,1.1170,0.3946,2.0270,2.1117,5.5466,-0.9257,-2.2360,0.5428,
14.502482,-0.1923,1.1170,0.3946,2.0270,2.1117,5.5466,0.0298,-0.0362,0.1619,
14.518297,-0.1923,1.1170,0.3946,2.0270,2.1117,5.5466,0.1928,-0.5896,0.2557,
14.538748,-0.3902,1.0021,0.2172,2.0270,2.1117,5.5466,0.1928,-0.5896,0.2557,
14.540832,-0.3902,1.0021,0.2172,0.0348,0.9615,3.7994,0.1928,-0.5896,0.2557,
14.542504,-0.3902,1.0021,0.2172,0.0348,0.9615,3.7994,-0.0953,-0.9167,0.1886,
14.558114,-0.3902,1.0021,0.2172,0.0348,0.9615,3.7994,-0.3265,-0.3244,0.0170,
14.577899,-0.4698,0.8873,0.1520,0.0348,0.9615,3.7994,-0.3265,-0.3244,0.0170,
14.579875,-0.4698,0.8873,0.1520,-0.7471,-0.2007,2.9546,-0.3265,-0.3244,0.0170,
14.581738,-0.4698,0.8873,0.1520,-0.7471,-0.2007,2.9546,-0.3824,0.4298,-0.1188,
14.597829,-0.4698,0.8873,0.1520,-0.7471,-0.2007,2.9546,-0.3366,0.6818,-0.2360,
14.617863,-0.4014,0.6105,-0.0765,-0.7471,-0.2007,2.9546,-0.3366,0.6818,-0.2360,
14.620543,-0.4014,0.6105,-0.0765,-0.0444,-2.9073,0.6666,-0.3366,0.6818,-0.2360,
14.622550,-0.4014,0.6105,-0.0765,-0.0444,-2.9073,0.6666,-0.3846,0.6898,-0.2695,
14.638530,-0.4014,0.6105,-0.0765,-0.0444,-2.9073,0.6666,-0.5875,0.7494,-0.2317,
14.658175,-0.3462,0.6127,-0.2516,-0.0444,-2.9073,0.6666,-0.5875,0.7494,-0.2317,
14.660447,-0.3462,0.6127,-0.2516,0.5456,-2.8736,-1.1100,-0.5875,0.7494,-0.2317,
14.662395,-0.3462,0.6127,-0.2516,0.5456,-2.8736,-1.1100,-0.7638,0.6626,-0.1353,
14.677212,-0.3462,0.6127,-0.2516,0.5456,-2.8736,-1.1100,-0.7212,0.5486,-0.0517,
14.697648,-0.3100,0.6611,-0.3269,0.5456,-2.8736,-1.1100,-0.7212,0.5486,-0.0517,
14.700020,-0.3100,0.6611,-0.3269,0.9022,-2.4226,-2.0157,-0.7212,0.5486,-0.0517,
14.701838,-0.3100,0.6611,-0.3269,0.9022,-2.4226,-2.0157,-0.5545,0.4911,0.0565,
14.718393,-0.3100,0.6611,-0.3269,0.9022,-2.4226,-2.0157,-0.3627,0.0533,0.1321,
14.738302,-0.3909,0.7703,-0.1898,0.9022,-2.4226,-2.0157,-0.3627,0.0533,0.1321,
14.740531,-0.3909,0.7703,-0.1898,0.0636,-1.3878,-0.7931,-0.3627,0.0533,0.1321,
14.742460,-0.3909,0.7703,-0.1898,0.0636,-1.3878,-0.7931,-0.2040,-0.5167,0.1593,
14.758213,-0.3909,0.7703,-0.1898,0.0636,-1.3878,-0.7931,-0.1150,-0.6434,0.1305,
14.778045,-0.4461,0.8204,-0.1160,0.0636,-1.3878,-0.7931,-0.1150,-0.6434,0.1305,
14.780827,-0.4461,0.8204,-0.1160,-0.5064,-0.9259,-0.2169,-0.1150,-0.6434,0.1305,
14.782648,-0.4461,0.8204,-0.1160,-0.5064,-0.9259,-0.2169,-0.0650,-0.4336,0.1273,
14.797390,-0.4461,0.8204,-0.1160,-0.5064,-0.9259,-0.2169,-0.0517,-0.0250,0.2035,
14.817899,-0.4376,0.8404,-0.2211,-0.5064,-0.9259,-0.2169,-0.0517,-0.0250,0.2035,
14.820572,-0.4376,0.8404,-0.2211,-0.4686,-0.7540,-1.2939,-0.0517,-0.0250,0.2035,
14.822231,-0.4376,0.8404,-0.2211,-0.4686,-0.7540,-1.2939,-0.0858,0.1981,0.2642,
14.838250,-0.4376,0.8404,-0.2211,-0.4686,-0.7540,-1.2939,-0.0964,0.1486,0.2988,
14.857806,-0.4229,0.9523,-0.1996,-0.4686,-0.7540,-1.2939,-0.0964,0.1486,0.2988,
14.861495,-0.4229,0.9523,-0.1996,-0.4163,0.3070,-1.0563,-0.0964,0.1486,0.2988,
14.863943,-0.4229,0.9523,-0.1996,-0.4163,0.3070,-1.0563,-0.0490,-0.1534,0.3276,
14.877897,-0.4229,0.9523,-0.1996,-0.4163,0.3070,-1.0563,-0.0336,-0.4149,0.2328,
14.897936,-0.5077,1.1922,-0.1251,-0.4163,0.3070,-1.0563,-0.0336,-0.4149,0.2328,
14.900247,-0.5077,1.1922,-0.1251,-1.3384,2.6154,-0.3826,-0.0336,-0.4149,0.2328,
14.902018,-0.5077,1.1922,-0.1251,-1.3384,2.6154,-0.3826,-0.0277,-0.3233,0.0565,
14.917154,-0.5077,1.1922,-0.1251,-1.3384,2.6154,-0.3826,-0.0138,-0.1438,0.0069,
14.937050,-0.5485,0.9613,-0.2524,-1.3384,2.6154,-0.3826,-0.0138,-0.1438,0.0069,
14.939097,-0.5485,0.9613,-0.2524,-1.7421,0.3476,-1.6714,-0.0138,-0.1438,0.0069,
14.940140,-0.5485,0.9613,-0.2524,-1.7421,0.3476,-1.6714,-0.0181,0.1140,0.1001,
14.957824,-0.5485,0.9613,-0.2524,-1.7421,0.3476,-1.6714,0.0746,0.1513,0.1012,
14.976932,-0.5839,1.3222,-0.2160,-1.7421,0.3476,-1.6714,0.0746,0.1513,0.1012,
14.979519,-0.5839,1.3222,-0.2160,-2.1301,3.8703,-1.2853,0.0746,0.1513,0.1012,
14.981284,-0.5839,1.3222,-0.2160,-2.1301,3.8703,-1.2853,0.2599,-0.0517,-0.0543,
14.997433,-0.5839,1.3222,-0.2160,-2.1301,3.8703,-1.2853,0.3153,-0.1875,-0.1731,
15.017565,-0.4195,0.9240,0.0183,-2.1301,3.8703,-1.2853,0.3153,-0.1875,-0.1731,
15.020966,-0.4195,0.9240,0.0183,-0.4733,-0.0058,1.0978,0.3153,-0.1875,-0.1731,
15.023416,-0.4195,0.9240,0.0183,-0.4733,-0.0058,1.0978,0.3318,-0.3622,-0.2285,
15.038141,-0.4195,0.9240,0.0183,-0.4733,-0.0058,1.0978,0.3404,-0.4543,-0.2439,
15.057168,-0.3152,0.9311,0.0476,-0.4733,-0.0058,1.0978,0.3404,-0.4543,-0.2439,
15.060305,-0.3152,0.9311,0.0476,0.6500,0.1107,1.4406,0.3404,-0.4543,-0.2439,
15.061829,-0.3152,0.9311,0.0476,0.6500,0.1107,1.4406,0.2892,-0.4240,-0.2711,
15.077440,-0.3152,0.9311,0.0476,0.6500,0.1107,1.4406,0.1188,-0.4655,-0.2551,
15.097652,-0.2609,1.2193,0.1610,0.6500,0.1107,1.4406,0.1188,-0.4655,-0.2551,
15.099880,-0.2609,1.2193,0.1610,1.2935,2.9837,2.5574,0.1188,-0.4655,-0.2551,
15.101468,-0.2609,1.2193,0.1610,1.2935,2.9837,2.5574,-0.0911,-0.7244,-0.2578,
15.117481,-0.2609,1.2193,0.1610,1.2935,2.9837,2.5574,-0.1571,-0.9987,-0.2700,
15.137362,-0.1678,1.1370,0.2121,1.2935,2.9837,2.5574,-0.1571,-0.9987,-0.2700,
15.139665,-0.1678,1.1370,0.2121,2.3307,2.2137,2.8786,-0.1571,-0.9987,-0.2700,
15.141292,-0.1678,1.1370,0.2121,2.3307,2.2137,2.8786,-0.0240,-0.8831,-0.2120,
15.157393,-0.1678,1.1370,0.2121,2.3307,2.2137,2.8786,0.1364,-0.0192,-0.0948,
15.177914,-0.1454,0.8367,0.0076,2.3307,2.2137,2.8786,0.1364,-0.0192,-0.0948,
15.179922,-0.1454,0.8367,0.0076,2.5616,-0.7321,0.7786,0.1364,-0.0192,-0.0948,
15.181641,-0.1454,0.8367,0.0076,2.5616,-0.7321,0.7786,0.2306,1.1015,0.0245,
15.196837,-0.1454,0.8367,0.0076,2.5616,-0.7321,0.7786,0.2631,1.9851,0.1550,
15.217787,-0.1976,0.6577,-0.1422,2.5616,-0.7321,0.7786,0.2631,1.9851,0.1550,
15.219978,-0.1976,0.6577,-0.1422,1.9632,-2.4927,-0.3575,0.2631,1.9851,0.1550,
15.221828,-0.1976,0.6577,-0.1422,1.9632,-2.4927,-0.3575,0.1284,2.4517,0.2413,
15.236771,-0.1976,0.6577,-0.1422,1.9632,-2.4927,-0.3575,-0.1672,2.2946,0.2764,
15.257656,-0.1820,0.5868,-0.1683,1.9632,-2.4927,-0.3575,-0.1672,2.2946,0.2764,
15.260642,-0.1820,0.5868,-0.1683,1.9075,-3.2278,-0.2605,-0.1672,2.2946,0.2764,
15.262278,-0.1820,0.5868,-0.1683,1.9075,-3.2278,-0.2605,-0.4543,1.8530,0.2301,
15.277319,-0.1820,0.5868,-0.1683,1.9075,-3.2278,-0.2605,-0.4767,1.6650,0.0570,
15.296982,-0.3655,0.7698,-0.1415,1.9075,-3.2278,-0.2605,-0.4767,1.6650,0.0570,
15.299307,-0.3655,0.7698,-0.1415,-0.0430,-1.4821,0.0889,-0.4767,1.6650,0.0570,
15.301075,-0.3655,0.7698,-0.1415,-0.0430,-1.4821,0.0889,-0.1081,1.8834,-0.2732,
15.318227,-0.3655,0.7698,-0.1415,-0.0430,-1.4821,0.0889,0.0208,1.2224,-0.2035,
15.337294,-0.2577,0.7192,-0.2008,-0.0430,-1.4821,0.0889,0.0208,1.2224,-0.2035,
15.339572,-0.2577,0.7192,-0.2008,1.0011,-1.9467,-0.2896,0.0208,1.2224,-0.2035,
15.341392,-0.2577,0.7192,-0.2008,1.0011,-1.9467,-0.2896,-0.0256,0.2237,-0.0176,
15.357349,-0.2577,0.7192,-0.2008,1.0011,-1.9467,-0.2896,-0.0357,-0.4410,-0.1353,
15.376946,-0.1011,0.7879,-0.3027,1.0011,-1.9467,-0.2896,-0.0357,-0.4410,-0.1353,
15.379720,-0.1011,0.7879,-0.3027,2.5705,-1.2651,-1.3144,-0.0357,-0.4410,-0.1353,
15.381577,-0.1011,0.7879,-0.3027,2.5705,-1.2651,-1.3144,-0.1119,-0.7356,-0.3404,
15.396981,-0.1011,0.7879,-0.3027,2.5705,-1.2651,-1.3144,-0.3238,-0.5603,-0.3627,
15.416596,-0.2226,0.9442,-0.3933,2.5705,-1.2651,-1.3144,-0.3238,-0.5603,-0.3627,
