
time,gFx,gFy,gFz,ax,ay,az,wx,wy,wz,
0.104298,0.0005,0.1915,1.0794,0.0000,0.0000,0.0000,0.0000,0.0000,0.0000,
0.106258,0.0037,0.2485,0.8214,0.0000,0.0000,0.0000,0.0000,0.0000,0.0000,
0.109055,0.0320,0.2984,0.6409,0.0000,0.0000,0.0000,0.0000,0.0000,0.0000,
0.110747,0.0115,0.3280,0.6096,0.0000,0.0000,0.0000,0.0000,0.0000,0.0000,
0.126929,0.0115,0.3280,0.6096,0.1840,-0.9700,-2.0290,0.0000,0.0000,0.0000,
0.146127,0.0115,0.3280,0.6096,0.1500,-0.4140,-1.0390,0.0000,0.0000,0.0000,
0.165296,0.0115,0.3280,0.6096,-0.0060,0.0120,0.0550,0.0000,0.0000,0.0000,
0.185824,-0.0652,0.3329,0.6923,-0.0060,0.0120,0.0550,0.0000,0.0000,0.0000,
0.188030,-0.1176,0.3318,0.8135,-0.0060,0.0120,0.0550,0.0000,0.0000,0.0000,
0.189655,-0.1170,0.3390,0.9415,-0.0060,0.0120,0.0550,0.0000,0.0000,0.0000,
0.192168,-0.0797,0.3350,1.0183,-0.0060,0.0120,0.0550,0.0000,0.0000,0.0000,
0.193767,-0.0797,0.3350,1.0183,-0.0060,0.0120,0.0550,-0.1947,-0.0697,0.0118,
0.195357,-0.0797,0.3350,1.0183,-0.0530,0.2250,0.6800,-0.1947,-0.0697,0.0118,
0.205953,-0.0797,0.3350,1.0183,-0.0730,0.3070,0.8870,-0.1947,-0.0697,0.0118,
0.227085,-0.0797,0.3350,1.0183,-0.3280,0.0320,1.0620,-0.1947,-0.0697,0.0118,
0.246759,-0.0797,0.3350,1.0183,-0.3280,0.0320,1.0620,0.1622,-0.0968,0.0788,
0.250113,-0.0797,0.3350,1.0183,0.2780,0.5310,1.3990,0.1622,-0.0968,0.0788,
0.267386,-0.0736,0.3382,1.0412,0.2780,0.5310,1.3990,0.1622,-0.0968,0.0788,
0.269436,-0.0948,0.3101,1.0596,0.2780,0.5310,1.3990,0.1622,-0.0968,0.0788,
0.271316,-0.0315,0.3653,1.0928,0.2780,0.5310,1.3990,0.1622,-0.0968,0.0788,
0.272880,0.0103,0.3954,1.0708,0.2780,0.5310,1.3990,0.1622,-0.0968,0.0788,
0.274680,0.0103,0.3954,1.0708,0.6710,0.7820,1.1960,0.1622,-0.0968,0.0788,
0.287634,0.0103,0.3954,1.0708,0.7960,0.6800,0.7490,0.1622,-0.0968,0.0788,
0.308306,0.0103,0.3954,1.0708,0.7960,0.6800,0.7490,0.1693,0.0162,0.0378,
0.311689,0.0103,0.3954,1.0708,0.9350,0.8510,0.4610,0.1693,0.0162,0.0378,
0.328259,0.0103,0.3954,1.0708,0.6380,0.6490,0.6050,0.1693,0.0162,0.0378,
0.350990,0.0222,0.3895,1.0239,0.6380,0.6490,0.6050,0.1693,0.0162,0.0378,
0.354913,0.0369,0.4112,0.9926,0.6380,0.6490,0.6050,0.1693,0.0162,0.0378,
0.358208,0.0081,0.3926,1.0076,0.6380,0.6490,0.6050,0.1693,0.0162,0.0378,
0.361698,0.0277,0.3837,1.0442,0.6380,0.6490,0.6050,0.1693,0.0162,0.0378,
0.365173,0.0277,0.3837,1.0442,0.0260,0.3640,1.0310,0.1693,0.0162,0.0378,
0.368855,0.0277,0.3837,1.0442,0.0260,0.3640,1.0310,0.2612,0.1693,-0.0151,
0.372310,0.0277,0.3837,1.0442,0.2150,0.1070,1.5530,0.2612,0.1693,-0.0151,
0.389419,0.0277,0.3837,1.0442,0.3850,-0.0270,1.8970,0.2612,0.1693,-0.0151,
0.409154,0.0277,0.3837,1.0442,0.5850,-0.1880,1.7640,0.2612,0.1693,-0.0151,
0.430485,0.0457,0.3590,1.0971,0.5850,-0.1880,1.7640,0.2612,0.1693,-0.0151,
0.433837,0.0589,0.3470,1.1327,0.5850,-0.1880,1.7640,0.2612,0.1693,-0.0151,
0.436861,0.0757,0.3313,1.1187,0.5850,-0.1880,1.7640,0.2612,0.1693,-0.0151,
0.439694,0.1253,0.3248,1.0894,0.5850,-0.1880,1.7640,0.2612,0.1693,-0.0151,
0.442837,0.1253,0.3248,1.0894,1.0970,-0.2570,1.4780,0.2612,0.1693,-0.0151,
0.452885,0.1253,0.3248,1.0894,1.0970,-0.2570,1.4780,0.1302,0.5323,-0.2322,
0.454483,0.1253,0.3248,1.0894,1.2650,-0.5870,0.9820,0.1302,0.5323,-0.2322,
0.470532,0.1253,0.3248,1.0894,0.8180,-1.4990,1.4170,0.1302,0.5323,-0.2322,
0.489865,0.1253,0.3248,1.0894,0.7620,-2.5210,3.0640,0.1302,0.5323,-0.2322,
0.510877,0.1395,0.2859,1.0405,0.7620,-2.5210,3.0640,0.1302,0.5323,-0.2322,
0.512951,0.0833,0.1918,1.0850,0.7620,-2.5210,3.0640,0.1302,0.5323,-0.2322,
0.514408,0.0721,0.0951,1.2504,0.7620,-2.5210,3.0640,0.1302,0.5323,-0.2322,
0.516033,0.2169,0.0727,1.3485,0.7620,-2.5210,3.0640,0.1302,0.5323,-0.2322,
0.517574,0.2169,0.0727,1.3485,0.7620,-2.5210,3.0640,0.9952,-0.2408,-0.6522,
0.519271,0.2169,0.0727,1.3485,2.1950,-2.9320,4.1060,0.9952,-0.2408,-0.6522,
0.530575,0.2169,0.0727,1.3485,3.5440,-2.8130,3.0340,0.9952,-0.2408,-0.6522,
0.550441,0.2169,0.0727,1.3485,4.3120,-2.7440,1.1420,0.9952,-0.2408,-0.6522,
0.570825,0.2169,0.0727,1.3485,4.3120,-2.7440,1.1420,1.9112,-0.0318,-1.9511,
0.575370,0.2169,0.0727,1.3485,5.6390,-2.9910,-0.2250,1.9112,-0.0318,-1.9511,
0.592136,0.3553,0.1158,1.2262,5.6390,-2.9910,-0.2250,1.9112,-0.0318,-1.9511,
0.596830,0.4288,0.1588,1.0160,5.6390,-2.9910,-0.2250,1.9112,-0.0318,-1.9511,
0.601167,0.5488,0.1668,0.8597,5.6390,-2.9910,-0.2250,1.9112,-0.0318,-1.9511,
0.605131,0.4489,0.2043,0.7541,5.6390,-2.9910,-0.2250,1.9112,-0.0318,-1.9511,
0.608737,0.4489,0.2043,0.7541,4.8710,-2.9010,-1.1040,1.9112,-0.0318,-1.9511,
0.612029,0.4489,0.2043,0.7541,3.3090,-2.7370,-1.9110,1.9112,-0.0318,-1.9511,
0.633090,0.4489,0.2043,0.7541,3.3090,-2.7370,-1.9110,1.1373,-0.0947,-2.2562,
0.635834,0.4489,0.2043,0.7541,2.2480,-2.6200,-1.2320,1.1373,-0.0947,-2.2562,
0.650750,0.4489,0.2043,0.7541,2.0980,-2.7920,1.3170,1.1373,-0.0947,-2.2562,
0.673032,0.2672,0.2378,0.6590,2.0980,-2.7920,1.3170,1.1373,-0.0947,-2.2562,
0.678706,0.1383,0.2642,0.7182,2.0980,-2.7920,1.3170,1.1373,-0.0947,-2.2562,
0.682495,0.0962,0.2663,0.9620,2.0980,-2.7920,1.3170,1.1373,-0.0947,-2.2562,
0.686393,0.0962,0.2663,0.9620,2.8870,-3.4170,3.1360,1.1373,-0.0947,-2.2562,
0.690728,0.1400,0.2285,1.1234,2.8870,-3.4170,3.1360,1.1373,-0.0947,-2.2562,
0.694437,0.1400,0.2285,1.1234,3.6200,-3.6160,2.9120,1.1373,-0.0947,-2.2562,
0.713303,0.1400,0.2285,1.1234,3.6200,-3.6160,2.9120,2.6983,1.4282,-2.7792,
0.716027,0.1400,0.2285,1.1234,3.6720,-3.2970,1.1680,2.6983,1.4282,-2.7792,
0.733603,0.1400,0.2285,1.1234,3.2870,-3.0260,-1.0410,2.6983,1.4282,-2.7792,
0.753739,0.1651,0.2383,1.0669,3.2870,-3.0260,-1.0410,2.6983,1.4282,-2.7792,
0.756174,0.1133,0.2986,0.8484,3.2870,-3.0260,-1.0410,2.6983,1.4282,-2.7792,
0.758078,0.0257,0.3458,0.5852,3.2870,-3.0260,-1.0410,2.6983,1.4282,-2.7792,
0.759788,-0.2920,0.3926,0.4843,3.2870,-3.0260,-1.0410,2.6983,1.4282,-2.7792,
0.761437,-0.2920,0.3926,0.4843,0.4160,-2.6610,-1.8290,2.6983,1.4282,-2.7792,
0.772785,-0.2920,0.3926,0.4843,0.4160,-2.6610,-1.8290,1.3922,-1.2858,-2.6352,
0.774982,-0.2920,0.3926,0.4843,0.8480,-2.0980,-2.3230,1.3922,-1.2858,-2.6352,
0.794048,-0.2920,0.3926,0.4843,1.5900,-2.4460,-1.4040,1.3922,-1.2858,-2.6352,
0.813726,-0.2920,0.3926,0.4843,0.8000,-1.9090,3.0000,1.3922,-1.2858,-2.6352,
0.834469,-0.2649,0.4492,0.4258,0.8000,-1.9090,3.0000,1.3922,-1.2858,-2.6352,
0.836489,-0.2090,0.4093,0.5139,0.8000,-1.9090,3.0000,1.3922,-1.2858,-2.6352,
0.838109,-0.3143,0.4702,0.9410,0.8000,-1.9090,3.0000,1.3922,-1.2858,-2.6352,
0.839658,-0.4331,0.5623,1.0669,0.8000,-1.9090,3.0000,1.3922,-1.2858,-2.6352,
0.841444,-0.4331,0.5623,1.0669,0.8000,-1.9090,3.0000,2.2253,0.8943,-2.4652,
0.843206,-0.4331,0.5623,1.0669,0.0380,-1.0850,4.5730,2.2253,0.8943,-2.4652,
0.853802,-0.4331,0.5623,1.0669,4.7050,-1.7140,-0.2290,2.2253,0.8943,-2.4652,
0.875324,-0.4331,0.5623,1.0669,3.2150,-2.6560,0.3670,2.2253,0.8943,-2.4652,
0.894229,-0.4331,0.5623,1.0669,3.2150,-2.6560,0.3670,1.9082,1.0242,-3.3811,
0.896446,-0.4331,0.5623,1.0669,4.0190,-1.9310,-0.6850,1.9082,1.0242,-3.3811,
0.917870,-0.0063,0.4963,0.5385,4.0190,-1.9310,-0.6850,1.9082,1.0242,-3.3811,
0.922939,-0.2085,0.3951,0.5595,4.0190,-1.9310,-0.6850,1.9082,1.0242,-3.3811,
0.928372,-0.1806,0.4531,0.4131,4.0190,-1.9310,-0.6850,1.9082,1.0242,-3.3811,
0.932567,-0.2537,0.3923,0.2294,4.0190,-1.9310,-0.6850,1.9082,1.0242,-3.3811,
0.936617,-0.2537,0.3923,0.2294,3.8270,-2.2650,-2.1250,1.9082,1.0242,-3.3811,
0.940578,-0.2537,0.3923,0.2294,2.4460,-1.6730,0.6750,1.9082,1.0242,-3.3811,
0.956193,-0.2537,0.3923,0.2294,0.8330,-1.0020,3.3900,1.9082,1.0242,-3.3811,
0.975445,-0.2537,0.3923,0.2294,0.8330,-1.0020,3.3900,2.3803,-0.0947,-3.0462,
0.977440,-0.2537,0.3923,0.2294,0.1420,-0.8180,1.4500,2.3803,-0.0947,-3.0462,
0.996826,-0.4438,0.4250,0.4787,0.1420,-0.8180,1.4500,2.3803,-0.0947,-3.0462,
1.000396,-0.6481,0.4665,0.7228,0.1420,-0.8180,1.4500,2.3803,-0.0947,-3.0462,
1.002033,-0.7515,0.4569,0.5029,0.1420,-0.8180,1.4500,2.3803,-0.0947,-3.0462,
1.003816,-0.7976,0.4469,0.1136,0.1420,-0.8180,1.4500,2.3803,-0.0947,-3.0462,
1.005429,-0.7976,0.4469,0.1136,-0.0150,-0.5860,-2.2000,2.3803,-0.0947,-3.0462,
1.015714,-0.7976,0.4469,0.1136,-0.2380,-0.4230,-4.1010,2.3803,-0.0947,-3.0462,
1.036862,-0.7976,0.4469,0.1136,-0.2380,-0.4230,-4.1010,0.7183,-1.6097,-2.6462,
1.038868,-0.7976,0.4469,0.1136,-2.2600,-0.7510,-3.0590,0.7183,-1.6097,-2.6462,
1.056487,-0.7976,0.4469,0.1136,-3.4780,-0.1930,1.4520,0.7183,-1.6097,-2.6462,
1.077311,-0.8434,0.4245,-0.0816,-3.4780,-0.1930,1.4520,0.7183,-1.6097,-2.6462,
1.079290,-1.0606,0.3539,0.0461,-3.4780,-0.1930,1.4520,0.7183,-1.6097,-2.6462,
1.080894,-1.1874,0.3825,0.5337,-3.4780,-0.1930,1.4520,0.7183,-1.6097,-2.6462,
1.082414,-1.1769,0.3397,0.7275,-3.4780,-0.1930,1.4520,0.7183,-1.6097,-2.6462,
1.084068,-1.1769,0.3397,0.7275,-3.3410,-0.4180,3.2200,0.7183,-1.6097,-2.6462,
1.096673,-1.1769,0.3397,0.7275,-3.3410,-0.4180,3.2200,1.5202,-0.6588,-2.0241,
1.098592,-1.1769,0.3397,0.7275,-1.0790,-1.1780,-0.1750,1.5202,-0.6588,-2.0241,
1.117677,-1.1769,0.3397,0.7275,1.0150,-2.4670,-2.3740,1.5202,-0.6588,-2.0241,
1.136961,-1.1769,0.3397,0.7275,1.2600,-1.6790,1.6260,1.5202,-0.6588,-2.0241,
1.158461,-0.9541,0.2409,0.3825,1.2600,-1.6790,1.6260,1.5202,-0.6588,-2.0241,
1.160441,-0.7547,0.0900,0.1441,1.2600,-1.6790,1.6260,1.5202,-0.6588,-2.0241,
1.162083,-0.7449,0.1664,0.5229,1.2600,-1.6790,1.6260,1.5202,-0.6588,-2.0241,
1.163813,-0.9863,0.3842,0.6686,1.2600,-1.6790,1.6260,1.5202,-0.6588,-2.0241,
1.165428,-0.9863,0.3842,0.6686,1.2600,-1.6790,1.6260,4.1112,-0.2478,-0.5222,
1.167477,-0.9863,0.3842,0.6686,-1.0280,0.3430,3.3810,4.1112,-0.2478,-0.5222,
1.177749,-0.9863,0.3842,0.6686,-0.9590,1.3500,-0.7740,4.1112,-0.2478,-0.5222,
1.198811,-0.9863,0.3842,0.6686,1.4860,0.2510,-0.5720,4.1112,-0.2478,-0.5222,
1.218054,-0.9863,0.3842,0.6686,6.3590,0.6640,-1.1280,4.1112,-0.2478,-0.5222,
1.239899,-0.9770,0.5147,0.2206,6.3590,0.6640,-1.1280,4.1112,-0.2478,-0.5222,
1.244102,-0.7244,0.4301,0.2098,6.3590,0.6640,-1.1280,4.1112,-0.2478,-0.5222,
1.245959,-0.2302,0.4895,0.1140,6.3590,0.6640,-1.1280,4.1112,-0.2478,-0.5222,
1.247539,-0.2276,0.5310,0.2567,6.3590,0.6640,-1.1280,4.1112,-0.2478,-0.5222,
1.249179,-0.2276,0.5310,0.2567,6.3590,0.6640,-1.1280,3.4782,0.5933,0.0158,
1.250861,-0.2276,0.5310,0.2567,6.4000,0.9060,0.6630,3.4782,0.5933,0.0158,
1.258921,-0.2276,0.5310,0.2567,5.3490,0.3340,1.3140,3.4782,0.5933,0.0158,
1.279934,-0.2276,0.5310,0.2567,4.8680,-0.4000,0.8370,3.4782,0.5933,0.0158,
1.299386,-0.2276,0.5310,0.2567,4.8680,-0.4000,0.8370,3.9502,0.4022,1.0968,
1.301808,-0.2276,0.5310,0.2567,3.9080,-1.6150,3.3450,3.9502,0.4022,1.0968,
1.320065,-0.3316,0.4949,0.2790,3.9080,-1.6150,3.3450,3.9502,0.4022,1.0968,
1.322050,-0.3730,0.4452,0.1861,3.9080,-1.6150,3.3450,3.9502,0.4022,1.0968,
1.324787,-0.4609,0.3470,0.3943,3.9080,-1.6150,3.3450,3.9502,0.4022,1.0968,
1.326461,-0.6230,0.3932,0.6316,3.9080,-1.6150,3.3450,3.9502,0.4022,1.0968,
1.328155,-0.6230,0.3932,0.6316,2.1810,-1.4080,6.2020,3.9502,0.4022,1.0968,
1.340029,-0.6230,0.3932,0.6316,1.0000,-0.0450,5.5170,3.9502,0.4022,1.0968,
1.361027,-0.6230,0.3932,0.6316,1.0000,-0.0450,5.5170,3.8412,0.1002,1.5448,
1.364464,-0.6230,0.3932,0.6316,-0.6170,0.4490,3.6890,3.8412,0.1002,1.5448,
1.379933,-0.6230,0.3932,0.6316,-1.7260,1.2130,3.1880,3.8412,0.1002,1.5448,
1.401200,-0.7283,0.5533,0.5080,-1.7260,1.2130,3.1880,3.8412,0.1002,1.5448,
1.403183,-0.8751,0.6234,0.2751,-1.7260,1.2130,3.1880,3.8412,0.1002,1.5448,
1.404842,-0.9721,0.7146,0.1842,-1.7260,1.2130,3.1880,3.8412,0.1002,1.5448,
1.406495,-0.9719,0.8383,0.1174,-1.7260,1.2130,3.1880,3.8412,0.1002,1.5448,
1.408640,-0.9719,0.8383,0.1174,-1.8670,2.3230,2.8510,3.8412,0.1002,1.5448,
1.420325,-0.9719,0.8383,0.1174,-1.8670,2.3230,2.8510,1.1682,0.0062,1.0758,
1.422351,-0.9719,0.8383,0.1174,-4.0070,1.6340,1.5040,1.1682,0.0062,1.0758,
1.442447,-0.9719,0.8383,0.1174,-5.6690,0.8980,2.5260,1.1682,0.0062,1.0758,
1.460660,-0.9719,0.8383,0.1174,-5.4030,1.2880,3.6120,1.1682,0.0062,1.0758,
1.484571,-1.1769,0.7801,-0.0406,-5.4030,1.2880,3.6120,1.1682,0.0062,1.0758,
1.487841,-1.3346,0.7170,0.0568,-5.4030,1.2880,3.6120,1.1682,0.0062,1.0758,
1.491636,-1.2982,0.7671,0.1656,-5.4030,1.2880,3.6120,1.1682,0.0062,1.0758,
1.495226,-1.1526,0.8429,-0.0274,-5.4030,1.2880,3.6120,1.1682,0.0062,1.0758,
1.498291,-1.1526,0.8429,-0.0274,-4.0430,1.9390,1.6820,1.1682,0.0062,1.0758,
1.501425,-1.1526,0.8429,-0.0274,-4.0430,1.9390,1.6820,0.1733,-0.6787,0.6878,
1.504688,-1.1526,0.8429,-0.0274,-3.2460,1.8160,-0.9580,0.1733,-0.6787,0.6878,
1.523243,-1.1526,0.8429,-0.0274,-3.9040,1.6750,-1.7890,0.1733,-0.6787,0.6878,
1.541369,-1.1526,0.8429,-0.0274,-4.6620,1.8180,-0.9190,0.1733,-0.6787,0.6878,
1.564529,-1.0660,0.8383,-0.2874,-4.6620,1.8180,-0.9190,0.1733,-0.6787,0.6878,
1.567757,-1.1330,0.8296,-0.3568,-4.6620,1.8180,-0.9190,0.1733,-0.6787,0.6878,
1.570557,-1.2129,0.8455,-0.2503,-4.6620,1.8180,-0.9190,0.1733,-0.6787,0.6878,
1.573353,-1.2051,0.9030,-0.1479,-4.6620,1.8180,-0.9190,0.1733,-0.6787,0.6878,
1.576118,-1.2051,0.9030,-0.1479,-4.6620,1.8180,-0.9190,-0.5218,-0.4987,-0.0672,
1.578687,-1.2051,0.9030,-0.1479,-4.5670,2.3740,-0.0510,-0.5218,-0.4987,-0.0672,
1.582227,-1.2051,0.9030,-0.1479,-3.2180,2.6100,-1.1040,-0.5218,-0.4987,-0.0672,
1.604802,-1.2051,0.9030,-0.1479,-2.6880,2.1500,-2.0410,-0.5218,-0.4987,-0.0672,
1.622435,-1.2051,0.9030,-0.1479,-2.6880,2.1500,-2.0410,-0.3098,-1.2067,-0.1892,
1.626882,-1.2051,0.9030,-0.1479,-2.9100,2.1090,-1.1330,-0.3098,-1.2067,-0.1892,
1.645753,-1.0736,0.9233,-0.2402,-2.9100,2.1090,-1.1330,-0.3098,-1.2067,-0.1892,
1.650042,-1.0736,0.9233,-0.2402,-4.0370,1.8700,-1.9160,-0.3098,-1.2067,-0.1892,
1.653766,-1.0264,0.8714,-0.3180,-4.0370,1.8700,-1.9160,-0.3098,-1.2067,-0.1892,
1.658480,-1.0538,0.8656,-0.2036,-4.0370,1.8700,-1.9160,-0.3098,-1.2067,-0.1892,
1.662375,-1.1674,0.8472,-0.2510,-4.0370,1.8700,-1.9160,-0.3098,-1.2067,-0.1892,
1.664092,-1.1674,0.8472,-0.2510,-4.6690,-0.5670,-3.2730,-0.3098,-1.2067,-0.1892,
1.685450,-1.1674,0.8472,-0.2510,-4.6690,-0.5670,-3.2730,2.5312,-3.5628,-0.0672,
1.686778,-1.1674,0.8472,-0.2510,-1.2580,-0.6600,-0.2310,2.5312,-3.5628,-0.0672,
1.704204,-1.1674,0.8472,-0.2510,3.2610,2.9700,0.6470,2.5312,-3.5628,-0.0672,
1.726500,-1.2205,0.6127,-0.3421,3.2610,2.9700,0.6470,2.5312,-3.5628,-0.0672,
1.730320,-0.8670,0.6088,-0.0055,3.2610,2.9700,0.6470,2.5312,-3.5628,-0.0672,
1.733153,-0.4113,0.9741,0.0973,3.2610,2.9700,0.6470,2.5312,-3.5628,-0.0672,
1.735991,-0.5734,0.8556,-0.4187,3.2610,2.9700,0.6470,2.5312,-3.5628,-0.0672,
1.738620,-0.5734,0.8556,-0.4187,1.7430,1.9040,-4.5200,2.5312,-3.5628,-0.0672,
1.745892,-0.5734,0.8556,-0.4187,-0.1150,2.0340,-8.0510,2.5312,-3.5628,-0.0672,
1.769222,-0.5734,0.8556,-0.4187,-0.1150,2.0340,-8.0510,0.3062,-0.6698,-0.5901,
1.773484,-0.5734,0.8556,-0.4187,1.7870,2.2800,-3.6190,0.3062,-0.6698,-0.5901,
1.785320,-0.5734,0.8556,-0.4187,2.6320,2.7650,-0.5720,0.3062,-0.6698,-0.5901,
1.808988,-0.7693,0.8614,-0.7710,2.6320,2.7650,-0.5720,0.3062,-0.6698,-0.5901,
1.813987,-0.5831,0.8761,-0.3129,2.6320,2.7650,-0.5720,0.3062,-0.6698,-0.5901,
1.817280,-0.5063,0.9138,0.0001,2.6320,2.7650,-0.5720,0.3062,-0.6698,-0.5901,
1.820266,-0.5479,0.9169,-0.0909,2.6320,2.7650,-0.5720,0.3062,-0.6698,-0.5901,
1.823263,-0.5479,0.9169,-0.0909,2.2930,2.8750,-1.4230,0.3062,-0.6698,-0.5901,
1.826143,-0.5479,0.9169,-0.0909,2.2930,2.8750,-1.4230,-0.0027,0.1283,-0.5642,
1.829074,-0.5479,0.9169,-0.0909,4.1390,2.4520,-0.8450,-0.0027,0.1283,-0.5642,
1.847868,-0.5479,0.9169,-0.0909,2.8240,3.6710,0.6140,-0.0027,0.1283,-0.5642,
1.865280,-0.5479,0.9169,-0.0909,3.4030,1.0620,1.9930,-0.0027,0.1283,-0.5642,
1.887918,-0.3681,0.8632,-0.0347,3.4030,1.0620,1.9930,-0.0027,0.1283,-0.5642,
1.889900,-0.5119,0.9746,0.1115,3.4030,1.0620,1.9930,-0.0027,0.1283,-0.5642,
1.891766,-0.4631,0.6960,0.2364,3.4030,1.0620,1.9930,-0.0027,0.1283,-0.5642,
1.893444,-0.4734,0.5918,0.1602,3.4030,1.0620,1.9930,-0.0027,0.1283,-0.5642,
1.895196,-0.4734,0.5918,0.1602,3.4030,1.0620,1.9930,0.2673,1.2732,-0.6662,
1.896871,-0.4734,0.5918,0.1602,3.3930,0.1520,1.4780,0.2673,1.2732,-0.6662,
1.906186,-0.4734,0.5918,0.1602,2.5170,-1.0550,0.4440,0.2673,1.2732,-0.6662,
1.928718,-0.4734,0.5918,0.1602,2.1680,-1.3310,-0.2260,0.2673,1.2732,-0.6662,
1.945779,-0.4734,0.5918,0.1602,2.1680,-1.3310,-0.2260,0.5353,0.0312,-0.2412,
1.949293,-0.4734,0.5918,0.1602,2.6450,-1.2460,-0.6250,0.5353,0.0312,-0.2412,
1.969274,-0.5677,0.4601,0.0336,2.6450,-1.2460,-0.6250,0.5353,0.0312,-0.2412,
1.971452,-0.6060,0.4269,-0.0467,2.6450,-1.2460,-0.6250,0.5353,0.0312,-0.2412,
1.973092,-0.5606,0.4315,-0.0958,2.6450,-1.2460,-0.6250,0.5353,0.0312,-0.2412,
1.974792,-0.5210,0.3973,-0.1034,2.6450,-1.2460,-0.6250,0.5353,0.0312,-0.2412,
1.976656,-0.5210,0.3973,-0.1034,3.0620,-1.5510,-0.6590,0.5353,0.0312,-0.2412,
1.987545,-0.5210,0.3973,-0.1034,2.5710,-1.8020,-1.1380,0.5353,0.0312,-0.2412,
2.009322,-0.5210,0.3973,-0.1034,1.9820,-1.4600,-0.8070,0.5353,0.0312,-0.2412,
2.027697,-0.5210,0.3973,-0.1034,1.9820,-1.4600,-0.8070,0.0682,-0.2618,-0.0991,
2.030611,-0.5210,0.3973,-0.1034,1.4960,-0.9720,-1.0710,0.0682,-0.2618,-0.0991,
2.051083,-0.5726,0.3693,-0.1554,1.4960,-0.9720,-1.0710,0.0682,-0.2618,-0.0991,
2.053099,-0.6324,0.4030,-0.1207,1.4960,-0.9720,-1.0710,0.0682,-0.2618,-0.0991,
2.054602,-0.6840,0.4492,-0.1440,1.4960,-0.9720,-1.0710,0.0682,-0.2618,-0.0991,
2.056274,-0.7080,0.4154,-0.1179,1.4960,-0.9720,-1.0710,0.0682,-0.2618,-0.0991,
2.058002,-0.7080,0.4154,-0.1179,1.2970,-1.2630,-0.8290,0.0682,-0.2618,-0.0991,
2.070125,-0.7080,0.4154,-0.1179,1.4570,-1.8160,-2.7100,0.0682,-0.2618,-0.0991,
2.090499,-0.7080,0.4154,-0.1179,1.4570,-1.8160,-2.7100,-0.1427,-0.5108,-0.5482,
2.094463,-0.7080,0.4154,-0.1179,1.5460,-2.4550,-4.9900,-0.1427,-0.5108,-0.5482,
2.109390,-0.7080,0.4154,-0.1179,1.6490,-1.5590,-2.4870,-0.1427,-0.5108,-0.5482,
2.131735,-0.6972,0.3511,-0.2984,1.6490,-1.5590,-2.4870,-0.1427,-0.5108,-0.5482,
2.134865,-0.6938,0.2756,-0.5215,1.6490,-1.5590,-2.4870,-0.1427,-0.5108,-0.5482,
2.137784,-0.6931,0.3529,-0.2640,1.6490,-1.5590,-2.4870,-0.1427,-0.5108,-0.5482,
2.140616,-0.8320,0.4477,-0.2568,1.6490,-1.5590,-2.4870,-0.1427,-0.5108,-0.5482,
2.143340,-0.8320,0.4477,-0.2568,0.3740,-0.4690,-2.4130,-0.1427,-0.5108,-0.5482,
2.148250,-0.8320,0.4477,-0.2568,0.3740,-0.4690,-2.4130,0.3532,-0.3327,-0.7011,
2.149933,-0.8320,0.4477,-0.2568,-1.6520,-0.6430,-1.7110,0.3532,-0.3327,-0.7011,
2.171694,-0.8320,0.4477,-0.2568,-2.3420,-0.1560,-1.4450,0.3532,-0.3327,-0.7011,
2.189356,-0.8320,0.4477,-0.2568,-0.6070,2.3540,-2.1070,0.3532,-0.3327,-0.7011,
2.212259,-1.0452,0.4177,-0.1841,-0.6070,2.3540,-2.1070,0.3532,-0.3327,-0.7011,
2.216633,-1.1237,0.4541,-0.1517,-0.6070,2.3540,-2.1070,0.3532,-0.3327,-0.7011,
2.220277,-0.9602,0.6847,-0.2116,-0.6070,2.3540,-2.1070,0.3532,-0.3327,-0.7011,
2.223986,-1.0205,0.8693,-0.1577,-0.6070,2.3540,-2.1070,0.3532,-0.3327,-0.7011,
2.227348,-1.0205,0.8693,-0.1577,-0.6070,2.3540,-2.1070,0.2332,-1.4597,-1.2112,
2.228969,-1.0205,0.8693,-0.1577,-1.0880,4.4200,-1.7890,0.2332,-1.4597,-1.2112,
2.230297,-1.0205,0.8693,-0.1577,-3.9030,2.4900,0.9760,0.2332,-1.4597,-1.2112,
2.251993,-1.0205,0.8693,-0.1577,-2.4950,1.7980,2.9520,0.2332,-1.4597,-1.2112,
2.269734,-1.0205,0.8693,-0.1577,2.5650,4.8670,-0.3160,0.2332,-1.4597,-1.2112,
2.293289,-1.3136,0.6586,0.1380,2.5650,4.8670,-0.3160,0.2332,-1.4597,-1.2112,
2.297507,-1.1736,0.5806,0.3352,2.5650,4.8670,-0.3160,0.2332,-1.4597,-1.2112,
2.301077,-0.6623,0.8812,-0.0033,2.5650,4.8670,-0.3160,0.2332,-1.4597,-1.2112,
2.305709,-0.4970,0.8136,-0.0865,2.5650,4.8670,-0.3160,0.2332,-1.4597,-1.2112,
2.310505,-0.4970,0.8136,-0.0865,2.5650,4.8670,-0.3160,-0.7168,0.3883,-0.5691,
2.312618,-0.4970,0.8136,-0.0865,4.2130,4.2630,-1.1310,-0.7168,0.3883,-0.5691,
2.313779,-0.4970,0.8136,-0.0865,2.2480,1.9680,1.5630,-0.7168,0.3883,-0.5691,
2.334142,-0.4970,0.8136,-0.0865,3.8220,0.8640,1.9990,-0.7168,0.3883,-0.5691,
2.351781,-0.4970,0.8136,-0.0865,3.8220,0.8640,1.9990,-0.0118,-1.3387,0.0238,
2.353690,-0.4970,0.8136,-0.0865,5.4910,-0.2570,2.0570,-0.0118,-1.3387,0.0238,
2.374004,-0.6957,0.5826,0.1971,5.4910,-0.2570,2.0570,-0.0118,-1.3387,0.0238,
2.377943,-0.5328,0.4727,0.2599,5.4910,-0.2570,2.0570,-0.0118,-1.3387,0.0238,
2.380997,-0.3612,0.3595,0.2902,5.4910,-0.2570,2.0570,-0.0118,-1.3387,0.0238,
2.383581,-0.3770,0.2563,0.3186,5.4910,-0.2570,2.0570,-0.0118,-1.3387,0.0238,
2.386114,-0.3770,0.2563,0.3186,5.2980,-1.2760,2.0910,-0.0118,-1.3387,0.0238,
2.392552,-0.3770,0.2563,0.3186,4.2880,-1.4310,1.9730,-0.0118,-1.3387,0.0238,
2.414904,-0.3770,0.2563,0.3186,4.2880,-1.4310,1.9730,0.7623,-1.1777,0.4408,
2.418157,-0.3770,0.2563,0.3186,1.9770,-2.0930,1.0750,0.7623,-1.1777,0.4408,
2.432027,-0.3770,0.2563,0.3186,1.3000,-2.0020,1.2090,0.7623,-1.1777,0.4408,
2.455217,-0.4758,0.2441,0.3296,1.3000,-2.0020,1.2090,0.7623,-1.1777,0.4408,
2.458209,-0.7048,0.1857,0.2550,1.3000,-2.0020,1.2090,0.7623,-1.1777,0.4408,
2.459938,-0.7681,0.2069,0.2778,1.3000,-2.0020,1.2090,0.7623,-1.1777,0.4408,
2.461550,-0.7466,0.1950,0.3066,1.3000,-2.0020,1.2090,0.7623,-1.1777,0.4408,
2.463174,-0.7466,0.1950,0.3066,1.4460,-2.2210,1.4520,0.7623,-1.1777,0.4408,
2.472810,-0.7466,0.1950,0.3066,1.4460,-2.2210,1.4520,1.1132,-0.8088,0.6208,
2.478099,-0.7466,0.1950,0.3066,1.0640,-2.4270,0.8870,1.1132,-0.8088,0.6208,
2.495358,-0.7466,0.1950,0.3066,-0.0030,-2.0530,0.3510,1.1132,-0.8088,0.6208,
2.513175,-0.7466,0.1950,0.3066,-0.4610,-1.3330,-0.0480,1.1132,-0.8088,0.6208,
2.536333,-0.7786,0.1864,0.2531,-0.4610,-1.3330,-0.0480,1.1132,-0.8088,0.6208,
2.538348,-0.8773,0.2441,0.2033,-0.4610,-1.3330,-0.0480,1.1132,-0.8088,0.6208,
2.540056,-0.9113,0.3418,0.1665,-0.4610,-1.3330,-0.0480,1.1132,-0.8088,0.6208,
2.541877,-0.9113,0.3418,0.1665,-0.4360,-0.4950,-1.3120,1.1132,-0.8088,0.6208,
2.543594,-0.8940,0.4506,0.0375,-0.4360,-0.4950,-1.3120,1.1132,-0.8088,0.6208,
2.553322,-0.8940,0.4506,0.0375,-0.4360,-0.4950,-1.3120,0.6793,-0.4807,1.0868,
2.555513,-0.8940,0.4506,0.0375,-0.2170,0.2470,-2.6210,0.6793,-0.4807,1.0868,
2.575764,-0.8940,0.4506,0.0375,-1.0280,0.1250,-2.0130,0.6793,-0.4807,1.0868,
2.594014,-0.8940,0.4506,0.0375,0.3380,1.4430,-0.3190,0.6793,-0.4807,1.0868,
2.617709,-0.8598,0.5469,-0.0958,0.3380,1.4430,-0.3190,0.6793,-0.4807,1.0868,
2.620464,-0.9313,0.5526,-0.0389,0.3380,1.4430,-0.3190,0.6793,-0.4807,1.0868,
2.622158,-0.7862,0.7001,0.1260,0.3380,1.4430,-0.3190,0.6793,-0.4807,1.0868,
2.624183,-0.8940,0.7498,-0.1445,0.3380,1.4430,-0.3190,0.6793,-0.4807,1.0868,
2.625909,-0.8940,0.7498,-0.1445,0.3380,1.4430,-0.3190,0.4082,-0.1558,0.5488,
2.627742,-0.8940,0.7498,-0.1445,-0.7820,1.8420,-2.9300,0.4082,-0.1558,0.5488,
2.634507,-0.8940,0.7498,-0.1445,-0.6740,1.5560,-1.6160,0.4082,-0.1558,0.5488,
2.656729,-0.8940,0.7498,-0.1445,0.5470,1.5810,0.8450,0.4082,-0.1558,0.5488,
2.676300,-0.8940,0.7498,-0.1445,0.5470,1.5810,0.8450,2.8713,-2.2608,0.2349,
2.678507,-0.8940,0.7498,-0.1445,-2.5740,1.2020,3.2260,2.8713,-2.2608,0.2349,
2.696923,-0.8849,0.7195,-0.0118,-2.5740,1.2020,3.2260,2.8713,-2.2608,0.2349,
2.699412,-0.7642,0.7170,0.2401,-2.5740,1.2020,3.2260,2.8713,-2.2608,0.2349,
2.702401,-1.0755,0.6867,0.4875,-2.5740,1.2020,3.2260,2.8713,-2.2608,0.2349,
2.704845,-1.0303,0.5804,0.5671,-2.5740,1.2020,3.2260,2.8713,-2.2608,0.2349,
2.707922,-1.0303,0.5804,0.5671,-2.2510,-0.0020,4.0070,2.8713,-2.2608,0.2349,
2.715112,-1.0303,0.5804,0.5671,0.5070,-0.0860,-2.0160,2.8713,-2.2608,0.2349,
2.738120,-1.0303,0.5804,0.5671,0.5070,-0.0860,-2.0160,1.2972,-1.3427,-0.8902,
2.739876,-1.0303,0.5804,0.5671,1.9580,1.6890,-4.3400,1.2972,-1.3427,-0.8902,
2.755651,-1.0303,0.5804,0.5671,0.4280,2.2980,-1.4990,1.2972,-1.3427,-0.8902,
2.778374,-0.7437,0.5762,-0.0411,0.4280,2.2980,-1.4990,1.2972,-1.3427,-0.8902,
2.780467,-0.5995,0.7495,-0.2684,0.4280,2.2980,-1.4990,1.2972,-1.3427,-0.8902,
2.782090,-0.7637,0.8006,0.0216,0.4280,2.2980,-1.4990,1.2972,-1.3427,-0.8902,
2.784103,-0.8118,0.8325,0.1478,0.4280,2.2980,-1.4990,1.2972,-1.3427,-0.8902,
2.785724,-0.8118,0.8325,0.1478,0.0510,2.7130,-0.1130,1.2972,-1.3427,-0.8902,
2.797020,-0.8118,0.8325,0.1478,-0.0740,3.0190,2.9680,1.2972,-1.3427,-0.8902,
2.818249,-0.8118,0.8325,0.1478,-0.0740,3.0190,2.9680,1.9702,0.3322,-0.9842,
2.819504,-0.8118,0.8325,0.1478,0.0780,3.4130,4.1360,1.9702,0.3322,-0.9842,
2.836857,-0.8118,0.8325,0.1478,-0.3200,3.2100,1.9290,1.9702,0.3322,-0.9842,
2.859355,-0.8358,0.8551,0.4351,-0.3200,3.2100,1.9290,1.9702,0.3322,-0.9842,
2.861412,-0.8314,0.8839,0.5309,-0.3200,3.2100,1.9290,1.9702,0.3322,-0.9842,
2.862976,-0.8314,0.8839,0.5309,-0.5350,3.0530,0.3180,1.9702,0.3322,-0.9842,
2.864530,-0.8810,0.8509,0.2993,-0.5350,3.0530,0.3180,1.9702,0.3322,-0.9842,
2.866139,-0.9042,0.8299,0.1455,-0.5350,3.0530,0.3180,1.9702,0.3322,-0.9842,
2.877478,-0.9042,0.8299,0.1455,-0.5350,3.0530,0.3180,0.3132,-1.2668,-0.0622,
2.879411,-0.9042,0.8299,0.1455,0.6400,3.0160,-0.7420,0.3132,-1.2668,-0.0622,
2.901160,-0.9042,0.8299,0.1455,2.0480,2.4310,-2.4330,0.3132,-1.2668,-0.0622,
2.919517,-0.9042,0.8299,0.1455,2.8960,1.5150,-2.7310,0.3132,-1.2668,-0.0622,
2.941207,-0.7823,0.8269,0.0544,2.8960,1.5150,-2.7310,0.3132,-1.2668,-0.0622,
2.944948,-0.6366,0.7635,-0.1041,2.8960,1.5150,-2.7310,0.3132,-1.2668,-0.0622,
2.947779,-0.5552,0.6608,-0.1268,2.8960,1.5150,-2.7310,0.3132,-1.2668,-0.0622,
2.949967,-0.5909,0.5821,-0.0255,2.8960,1.5150,-2.7310,0.3132,-1.2668,-0.0622,
2.952940,-0.5909,0.5821,-0.0255,2.8960,1.5150,-2.7310,-0.5907,0.3652,-0.3561,
2.955837,-0.5909,0.5821,-0.0255,2.5930,0.8240,-1.7310,-0.5907,0.3652,-0.3561,
2.959582,-0.5909,0.5821,-0.0255,0.0870,-1.0210,8.4860,-0.5907,0.3652,-0.3561,
2.980934,-0.5909,0.5821,-0.0255,-2.0280,-5.6880,-5.1480,-0.5907,0.3652,-0.3561,
2.998491,-0.5909,0.5821,-0.0255,-2.0280,-5.6880,-5.1480,-0.7397,-1.2767,0.8368,
3.001277,-0.5909,0.5821,-0.0255,-0.0810,-1.8610,-11.8100,-0.7397,-1.2767,0.8368,
3.021677,-0.8378,0.4081,1.0234,-0.0810,-1.8610,-11.8100,-0.7397,-1.2767,0.8368,
3.023152,-1.0396,-0.0522,-0.3509,-0.0810,-1.8610,-11.8100,-0.7397,-1.2767,0.8368,
3.024460,-0.8262,0.3523,-1.0061,-0.0810,-1.8610,-11.8100,-0.7397,-1.2767,0.8368,
3.025256,-0.5110,0.5601,-0.4976,-0.0810,-1.8610,-11.8100,-0.7397,-1.2767,0.8368,
3.025890,-0.5110,0.5601,-0.4976,2.9150,0.1090,-7.0400,-0.7397,-1.2767,0.8368,
3.038397,-0.5110,0.5601,-0.4976,4.6780,-0.5140,-2.7220,-0.7397,-1.2767,0.8368,
3.062156,-0.5110,0.5601,-0.4976,4.8080,-0.8690,-3.5800,-0.7397,-1.2767,0.8368,
3.078989,-0.5110,0.5601,-0.4976,4.8080,-0.8690,-3.5800,-1.0758,1.6863,-0.3081,
3.080518,-0.5110,0.5601,-0.4976,2.6750,-2.5350,2.3830,-1.0758,1.6863,-0.3081,
3.101839,-0.3323,0.4902,-0.0496,2.6750,-2.5350,2.3830,-1.0758,1.6863,-0.3081,
3.103561,-0.3321,0.4384,-0.1437,2.6750,-2.5350,2.3830,-1.0758,1.6863,-0.3081,
3.104738,-0.5552,0.2658,0.4479,2.6750,-2.5350,2.3830,-1.0758,1.6863,-0.3081,
3.106113,-0.9003,0.1608,0.4857,2.6750,-2.5350,2.3830,-1.0758,1.6863,-0.3081,
3.107794,-0.9003,0.1608,0.4857,-0.7180,-3.6550,2.9130,-1.0758,1.6863,-0.3081,
3.120445,-0.9003,0.1608,0.4857,1.1240,-1.0580,-3.9720,-1.0758,1.6863,-0.3081,
3.141413,-0.9003,0.1608,0.4857,1.1240,-1.0580,-3.9720,-2.0248,2.0023,-1.1032,
3.143579,-0.9003,0.1608,0.4857,2.2050,1.3930,-4.2020,-2.0248,2.0023,-1.1032,
3.160892,-0.9003,0.1608,0.4857,-0.1950,-0.4570,-2.8430,-2.0248,2.0023,-1.1032,
3.183354,-0.7212,0.4161,-0.2319,-0.1950,-0.4570,-2.8430,-2.0248,2.0023,-1.1032,
3.186922,-0.7212,0.4161,-0.2319,-1.4440,-2.2480,-4.7880,-2.0248,2.0023,-1.1032,
3.189417,-0.6283,0.6403,-0.2674,-1.4440,-2.2480,-4.7880,-2.0248,2.0023,-1.1032,
3.191992,-0.8966,0.4130,-0.1422,-1.4440,-2.2480,-4.7880,-2.0248,2.0023,-1.1032,
3.194300,-1.0477,0.1908,-0.3602,-1.4440,-2.2480,-4.7880,-2.0248,2.0023,-1.1032,
3.203213,-1.0477,0.1908,-0.3602,-1.4440,-2.2480,-4.7880,-4.2787,3.7133,-0.9092,
3.204660,-1.0477,0.1908,-0.3602,-2.8330,-2.7180,1.8520,-4.2787,3.7133,-0.9092,
3.222750,-1.0477,0.1908,-0.3602,-3.9730,-2.3560,7.4640,-4.2787,3.7133,-0.9092,
3.242092,-1.0477,0.1908,-0.3602,-3.4650,-2.4990,3.2960,-4.2787,3.7133,-0.9092,
3.263259,-1.2055,0.1153,0.2865,-3.4650,-2.4990,3.2960,-4.2787,3.7133,-0.9092,
3.265171,-1.3302,0.1373,0.8306,-3.4650,-2.4990,3.2960,-4.2787,3.7133,-0.9092,
3.266825,-1.2838,0.1121,0.3995,-3.4650,-2.4990,3.2960,-4.2787,3.7133,-0.9092,
3.268495,-1.0816,0.1612,-0.0511,-3.4650,-2.4990,3.2960,-4.2787,3.7133,-0.9092,
3.270105,-1.0816,0.1612,-0.0511,-3.4650,-2.4990,3.2960,0.2713,0.1482,-2.2771,
3.271739,-1.0816,0.1612,-0.0511,-1.3760,-1.7040,-1.0930,0.2713,0.1482,-2.2771,
3.282681,-1.0816,0.1612,-0.0511,2.2100,-0.2830,-0.3270,0.2713,0.1482,-2.2771,
3.304049,-1.0816,0.1612,-0.0511,0.4700,0.1490,0.6050,0.2713,0.1482,-2.2771,
3.323437,-1.0816,0.1612,-0.0511,-0.6200,1.8650,1.2970,0.2713,0.1482,-2.2771,
3.344252,-0.7334,0.2570,0.0180,-0.6200,1.8650,1.2970,0.2713,0.1482,-2.2771,
3.346104,-0.9255,0.2509,0.0910,-0.6200,1.8650,1.2970,0.2713,0.1482,-2.2771,
3.347691,-1.0452,0.3849,0.1385,-0.6200,1.8650,1.2970,0.2713,0.1482,-2.2771,
3.349138,-1.0098,0.6987,0.2182,-0.6200,1.8650,1.2970,0.2713,0.1482,-2.2771,
3.352349,-1.0098,0.6987,0.2182,-0.6200,1.8650,1.2970,-0.4188,1.3472,-1.7362,
3.354902,-1.0098,0.6987,0.2182,-0.2170,5.2140,2.2360,-0.4188,1.3472,-1.7362,
3.363422,-1.0098,0.6987,0.2182,-0.1790,7.9360,1.4770,-0.4188,1.3472,-1.7362,
3.384652,-1.0098,0.6987,0.2182,3.2750,10.0890,5.2350,-0.4188,1.3472,-1.7362,
3.404300,-1.0098,0.6987,0.2182,3.2750,10.0890,5.2350,-0.2958,-0.3307,-0.3682,
3.408132,-1.0098,0.6987,0.2182,5.9140,4.9820,3.1420,-0.2958,-0.3307,-0.3682,
3.425256,-1.0066,0.9692,0.1399,5.9140,4.9820,3.1420,-0.2958,-0.3307,-0.3682,
3.428364,-0.6552,1.1836,0.5327,5.9140,4.9820,3.1420,-0.2958,-0.3307,-0.3682,
3.430713,-0.3868,0.6559,0.3268,5.9140,4.9820,3.1420,-0.2958,-0.3307,-0.3682,
3.433186,-0.8996,0.3529,0.2475,5.9140,4.9820,3.1420,-0.2958,-0.3307,-0.3682,
3.435573,-0.8996,0.3529,0.2475,0.8940,2.0550,2.3020,-0.2958,-0.3307,-0.3682,
3.445110,-0.8996,0.3529,0.2475,-6.6080,1.1820,3.9250,-0.2958,-0.3307,-0.3682,
3.466487,-0.8996,0.3529,0.2475,-6.6080,1.1820,3.9250,0.3462,0.5253,-0.1251,
3.467748,-0.8996,0.3529,0.2475,-8.9660,-0.6950,3.0710,0.3462,0.5253,-0.1251,
3.484493,-0.8996,0.3529,0.2475,-3.3770,-0.8990,0.3780,0.3462,0.5253,-0.1251,
3.505690,-1.6641,0.2719,0.4107,-3.3770,-0.8990,0.3780,0.3462,0.5253,-0.1251,
3.507841,-1.9043,0.0814,0.3137,-3.3770,-0.8990,0.3780,0.3462,0.5253,-0.1251,
3.509389,-1.3378,0.0362,0.0520,-3.3770,-0.8990,0.3780,0.3462,0.5253,-0.1251,
3.510989,-1.3412,-0.1370,0.1010,-3.3770,-0.8990,0.3780,0.3462,0.5253,-0.1251,
3.512506,-1.3412,-0.1370,0.1010,-3.4360,-2.6580,0.5510,0.3462,0.5253,-0.1251,
3.525650,-1.3412,-0.1370,0.1010,-3.4360,-2.6580,0.5510,0.2912,0.2802,1.0458,
3.529175,-1.3412,-0.1370,0.1010,8.1530,1.6730,-0.3030,0.2912,0.2802,1.0458,
3.546579,-1.3412,-0.1370,0.1010,12.8720,1.9330,-3.8300,0.2912,0.2802,1.0458,
3.566386,-1.3412,-0.1370,0.1010,10.6810,1.1120,-2.2380,0.2912,0.2802,1.0458,
3.587365,-0.1561,0.3252,0.0192,10.6810,1.1120,-2.2380,0.2912,0.2802,1.0458,
3.589190,0.3294,0.3678,-0.3546,10.6810,1.1120,-2.2380,0.2912,0.2802,1.0458,
3.591766,0.1036,0.2766,-0.2099,10.6810,1.1120,-2.2380,0.2912,0.2802,1.0458,
3.593376,-0.2341,-0.0892,0.0973,10.6810,1.1120,-2.2380,0.2912,0.2802,1.0458,
3.594846,-0.2341,-0.0892,0.0973,7.4220,-2.2390,0.9220,0.2912,0.2802,1.0458,
3.606111,-0.2341,-0.0892,0.0973,7.4220,-2.2390,0.9220,0.4742,0.6133,-1.3652,
3.610517,-0.2341,-0.0892,0.0973,5.0330,-3.9110,2.4250,0.4742,0.6133,-1.3652,
3.627198,-0.2341,-0.0892,0.0973,-1.1350,-8.9560,2.0430,0.4742,0.6133,-1.3652,
3.646390,-0.2341,-0.0892,0.0973,-0.1490,-5.9080,0.7450,0.4742,0.6133,-1.3652,
3.667934,-0.4800,-0.2768,0.2426,-0.1490,-5.9080,0.7450,0.4742,0.6133,-1.3652,
3.669082,-1.1090,-0.7815,0.2091,-0.1490,-5.9080,0.7450,0.4742,0.6133,-1.3652,
3.670011,-1.0059,-0.4550,0.0837,-0.1490,-5.9080,0.7450,0.4742,0.6133,-1.3652,
3.671451,-1.1168,0.1297,-0.0278,-0.1490,-5.9080,0.7450,0.4742,0.6133,-1.3652,
3.672943,-1.1168,0.1297,-0.0278,-0.1490,-5.9080,0.7450,0.5992,-1.0068,0.7578,
3.674714,-1.1168,0.1297,-0.0278,-1.2650,-0.3300,-0.5400,0.5992,-1.0068,0.7578,
3.687781,-1.1168,0.1297,-0.0278,-1.4050,3.9390,-1.8350,0.5992,-1.0068,0.7578,
3.707918,-1.1168,0.1297,-0.0278,-1.4650,6.3350,-6.2980,0.5992,-1.0068,0.7578,
3.727282,-1.1168,0.1297,-0.0278,-1.4650,6.3350,-6.2980,-1.2048,2.3012,2.0318,
3.728475,-1.1168,0.1297,-0.0278,-1.2310,4.9130,-6.6200,-1.2048,2.3012,2.0318,
3.749397,-1.1266,0.5816,-0.1217,-1.2310,4.9130,-6.6200,-1.2048,2.3012,2.0318,
3.752020,-1.1281,0.8439,-0.5604,-1.2310,4.9130,-6.6200,-1.2048,2.3012,2.0318,
3.754319,-1.0990,0.7324,-0.6261,-1.2310,4.9130,-6.6200,-1.2048,2.3012,2.0318,
3.756529,-1.4583,0.2898,0.0903,-1.2310,4.9130,-6.6200,-1.2048,2.3012,2.0318,
3.759562,-1.4583,0.2898,0.0903,-4.8860,0.0500,1.0860,-1.2048,2.3012,2.0318,
3.768383,-1.4583,0.2898,0.0903,-6.3210,-1.2230,3.0530,-1.2048,2.3012,2.0318,
3.789026,-1.4583,0.2898,0.0903,-6.3210,-1.2230,3.0530,1.3392,-1.3988,0.7008,
3.791862,-1.4583,0.2898,0.0903,-6.4990,-0.9860,5.3520,1.3392,-1.3988,0.7008,
3.808650,-1.4583,0.2898,0.0903,-3.9210,0.0240,5.8800,1.3392,-1.3988,0.7008,
3.830528,-1.5883,0.2043,0.2333,-3.9210,0.0240,5.8800,1.3392,-1.3988,0.7008,
3.834914,-1.5995,0.2463,0.4652,-3.9210,0.0240,5.8800,1.3392,-1.3988,0.7008,
3.839153,-1.3351,0.3585,0.5449,-3.9210,0.0240,5.8800,1.3392,-1.3988,0.7008,
3.842950,-1.0770,0.5633,0.1935,-3.9210,0.0240,5.8800,1.3392,-1.3988,0.7008,
3.847280,-1.0770,0.5633,0.1935,-1.4200,1.9200,2.0730,1.3392,-1.3988,0.7008,
3.850103,-1.0770,0.5633,0.1935,-3.3380,2.1690,1.2970,1.3392,-1.3988,0.7008,
3.870054,-1.0770,0.5633,0.1935,-3.3380,2.1690,1.2970,1.4642,-1.6397,1.1909,
3.871328,-1.0770,0.5633,0.1935,-6.2680,3.9320,-0.2430,1.4642,-1.6397,1.1909,
3.889561,-1.0770,0.5633,0.1935,1.4220,4.4960,-3.3380,1.4642,-1.6397,1.1909,
3.911629,-1.2637,0.6090,0.1338,1.4220,4.4960,-3.3380,1.4642,-1.6397,1.1909,
3.914907,-1.5541,0.8084,-0.0016,1.4220,4.4960,-3.3380,1.4642,-1.6397,1.1909,
3.917692,-0.7666,0.8693,-0.2808,1.4220,4.4960,-3.3380,1.4642,-1.6397,1.1909,
3.920543,-0.2265,0.6305,-0.3297,1.4220,4.4960,-3.3380,1.4642,-1.6397,1.1909,
3.923384,-0.2265,0.6305,-0.3297,6.7240,2.2160,-4.1140,1.4642,-1.6397,1.1909,
3.930024,-0.2265,0.6305,-0.3297,6.7240,2.2160,-4.1140,2.5622,-1.4248,-1.0711,
3.931611,-0.2265,0.6305,-0.3297,6.5250,0.6100,-1.2930,2.5622,-1.4248,-1.0711,
3.951550,-0.2265,0.6305,-0.3297,5.4270,0.7100,-1.8280,2.5622,-1.4248,-1.0711,
3.970322,-0.2265,0.6305,-0.3297,3.0070,1.3540,-2.6340,2.5622,-1.4248,-1.0711,
3.992011,-0.2517,0.4511,-0.0362,3.0070,1.3540,-2.6340,2.5622,-1.4248,-1.0711,
3.993794,-0.3746,0.4367,-0.0970,3.0070,1.3540,-2.6340,2.5622,-1.4248,-1.0711,
3.995400,-0.6344,0.4714,-0.1943,3.0070,1.3540,-2.6340,2.5622,-1.4248,-1.0711,
3.997087,-0.8686,0.5005,-0.2414,3.0070,1.3540,-2.6340,2.5622,-1.4248,-1.0711,
3.998626,-0.8686,0.5005,-0.2414,3.0070,1.3540,-2.6340,0.6652,0.5952,-1.3681,
4.000224,-0.8686,0.5005,-0.2414,0.8180,1.9000,-2.9390,0.6652,0.5952,-1.3681,
4.011094,-0.8686,0.5005,-0.2414,-1.2380,3.3090,-3.5070,0.6652,0.5952,-1.3681,
4.032138,-0.8686,0.5005,-0.2414,2.9490,1.6170,-3.2670,0.6652,0.5952,-1.3681,
4.051066,-0.8686,0.5005,-0.2414,2.9490,1.6170,-3.2670,-1.5258,1.3413,-2.0812,
4.052980,-0.8686,0.5005,-0.2414,6.5990,-0.6320,-3.6410,-1.5258,1.3413,-2.0812,
4.073348,-1.0853,0.6265,-0.3214,6.5990,-0.6320,-3.6410,-1.5258,1.3413,-2.0812,
4.076903,-0.6633,0.4338,-0.3227,6.5990,-0.6320,-3.6410,-1.5258,1.3413,-2.0812,
4.079884,-0.2991,0.1725,-0.3808,6.5990,-0.6320,-3.6410,-1.5258,1.3413,-2.0812,
4.082455,-0.2991,0.1725,-0.3808,7.4390,-0.2050,-1.3280,-1.5258,1.3413,-2.0812,
4.084471,-0.2218,0.1820,-0.1442,7.4390,-0.2050,-1.3280,-1.5258,1.3413,-2.0812,
4.092169,-0.2218,0.1820,-0.1442,-5.4390,-1.2150,7.7880,-1.5258,1.3413,-2.0812,
4.113314,-0.2218,0.1820,-0.1442,-2.2770,-2.8230,9.3170,-1.5258,1.3413,-2.0812,
4.133427,-0.2218,0.1820,-0.1442,-2.2770,-2.8230,9.3170,0.6273,-0.0887,0.4429,
4.136836,-0.2218,0.1820,-0.1442,0.9560,-8.2510,-1.6940,0.6273,-0.0887,0.4429,
4.154251,-1.5375,0.0695,0.7951,0.9560,-8.2510,-1.6940,0.6273,-0.0887,0.4429,
4.156238,-1.2144,-0.0911,0.9459,0.9560,-8.2510,-1.6940,0.6273,-0.0887,0.4429,
4.158576,-0.8822,-0.6341,-0.1813,0.9560,-8.2510,-1.6940,0.6273,-0.0887,0.4429,
4.160223,-0.7752,-0.3301,-0.8109,0.9560,-8.2510,-1.6940,0.6273,-0.0887,0.4429,
4.161889,-0.7752,-0.3301,-0.8109,1.9560,-5.4710,-7.6820,0.6273,-0.0887,0.4429,
4.173362,-0.7752,-0.3301,-0.8109,2.0360,-0.1110,-5.6130,0.6273,-0.0887,0.4429,
4.194019,-0.7752,-0.3301,-0.8109,2.0360,-0.1110,-5.6130,-2.9458,2.9162,2.3228,
4.196226,-0.7752,-0.3301,-0.8109,2.1820,-1.4630,-3.9440,-2.9458,2.9162,2.3228,
4.213624,-0.7752,-0.3301,-0.8109,1.8490,-2.5290,-2.7220,-2.9458,2.9162,2.3228,
4.234742,-0.7573,0.2524,-0.6301,1.8490,-2.5290,-2.7220,-2.9458,2.9162,2.3228,
4.236661,-0.7241,0.1642,-0.5003,1.8490,-2.5290,-2.7220,-2.9458,2.9162,2.3228,
4.238398,-0.7288,0.1207,-0.4123,1.8490,-2.5290,-2.7220,-2.9458,2.9162,2.3228,
4.240684,-0.7305,0.0714,-0.2053,1.8490,-2.5290,-2.7220,-2.9458,2.9162,2.3228,
4.243135,-0.7305,0.0714,-0.2053,1.5170,-3.6240,-0.4580,-2.9458,2.9162,2.3228,
4.254957,-0.7305,0.0714,-0.2053,1.5170,-3.6240,-0.4580,-3.0928,2.8872,1.9088,
4.259184,-0.7305,0.0714,-0.2053,0.7180,-4.5020,1.4970,-3.0928,2.8872,1.9088,
4.275066,-0.7305,0.0714,-0.2053,-0.3360,-2.3970,2.9120,-3.0928,2.8872,1.9088,
4.294278,-0.7305,0.0714,-0.2053,1.3840,3.1200,3.2150,-3.0928,2.8872,1.9088,
4.316305,-0.7833,0.0284,-0.0255,1.3840,3.1200,3.2150,-3.0928,2.8872,1.9088,
4.319291,-0.8749,0.2590,0.0905,1.3840,3.1200,3.2150,-3.0928,2.8872,1.9088,
4.321901,-0.7058,0.8001,0.0952,1.3840,3.1200,3.2150,-3.0928,2.8872,1.9088,
4.324902,-0.6901,0.6473,-0.2123,1.3840,3.1200,3.2150,-3.0928,2.8872,1.9088,
4.327789,-0.6901,0.6473,-0.2123,1.3840,3.1200,3.2150,0.2402,-0.3257,-2.4061,
4.329364,-0.6901,0.6473,-0.2123,1.7340,2.0230,0.2760,0.2402,-0.3257,-2.4061,
4.336989,-0.6901,0.6473,-0.2123,-0.0250,3.6600,1.5950,0.2402,-0.3257,-2.4061,
4.356148,-0.6901,0.6473,-0.2123,-2.4010,8.5240,2.4770,0.2402,-0.3257,-2.4061,
4.376047,-0.6901,0.6473,-0.2123,-7.2300,12.3220,0.7720,0.2402,-0.3257,-2.4061,
4.396855,-0.8910,0.7781,-0.0606,-7.2300,12.3220,0.7720,0.2402,-0.3257,-2.4061,
4.398615,-1.1503,1.2549,0.0637,-7.2300,12.3220,0.7720,0.2402,-0.3257,-2.4061,
4.401721,-1.1503,1.2549,0.0637,-7.2300,12.3220,0.7720,0.5152,-0.8657,-0.2402,
4.404709,-1.1503,1.2549,0.0637,-3.9110,10.4390,-2.9260,0.5152,-0.8657,-0.2402,
4.407371,-1.6496,1.6368,-0.0921,-3.9110,10.4390,-2.9260,0.5152,-0.8657,-0.2402,
4.409770,-1.3146,1.4406,-0.4578,-3.9110,10.4390,-2.9260,0.5152,-0.8657,-0.2402,
4.416034,-1.3146,1.4406,-0.4578,0.1330,5.1240,0.2420,0.5152,-0.8657,-0.2402,
4.437715,-1.3146,1.4406,-0.4578,2.2970,-0.1070,3.0220,0.5152,-0.8657,-0.2402,
4.456530,-1.3146,1.4406,-0.4578,2.2970,-0.1070,3.0220,1.4952,-3.0877,2.9219,
4.460865,-1.3146,1.4406,-0.4578,5.2590,0.4480,3.0840,1.4952,-3.0877,2.9219,
4.477511,-0.8989,0.9094,-0.1235,5.2590,0.4480,3.0840,1.4952,-3.0877,2.9219,
4.479507,-0.6664,0.4096,0.1866,5.2590,0.4480,3.0840,1.4952,-3.0877,2.9219,
4.481072,-0.3441,0.5159,0.2369,5.2590,0.4480,3.0840,1.4952,-3.0877,2.9219,
4.482701,-0.4318,0.7628,0.2271,5.2590,0.4480,3.0840,1.4952,-3.0877,2.9219,
4.485519,-0.4318,0.7628,0.2271,4.1290,2.3370,2.5830,1.4952,-3.0877,2.9219,
4.497139,-0.4318,0.7628,0.2271,5.0880,3.1850,4.7600,1.4952,-3.0877,2.9219,
4.517775,-0.4318,0.7628,0.2271,5.0880,3.1850,4.7600,-1.1278,-0.7688,0.6748,
4.520171,-0.4318,0.7628,0.2271,5.0210,-0.7320,-1.2490,-1.1278,-0.7688,0.6748,
4.537359,-0.4318,0.7628,0.2271,1.2550,-2.7100,1.6990,-1.1278,-0.7688,0.6748,
4.558615,-0.3133,0.8814,0.4877,1.2550,-2.7100,1.6990,-1.1278,-0.7688,0.6748,
4.562185,-0.3101,0.4961,-0.0990,1.2550,-2.7100,1.6990,-1.1278,-0.7688,0.6748,
4.564689,-0.6911,0.2984,0.2091,1.2550,-2.7100,1.6990,-1.1278,-0.7688,0.6748,
4.566816,-0.9971,0.2292,0.0427,1.2550,-2.7100,1.6990,-1.1278,-0.7688,0.6748,
4.569380,-0.9971,0.2292,0.0427,-1.7740,-3.4390,0.0510,-1.1278,-0.7688,0.6748,
4.578112,-0.9971,0.2292,0.0427,-1.7740,-3.4390,0.0510,-0.2478,0.1552,0.1349,
4.579530,-0.9971,0.2292,0.0427,-0.8420,-2.5290,-1.5300,-0.2478,0.1552,0.1349,
4.598880,-0.9971,0.2292,0.0427,2.0680,-1.3050,0.2270,-0.2478,0.1552,0.1349,
4.618070,-0.9971,0.2292,0.0427,-0.1990,-0.7600,1.7580,-0.2478,0.1552,0.1349,
4.639739,-0.8993,0.3245,-0.1200,-0.1990,-0.7600,1.7580,-0.2478,0.1552,0.1349,
4.643171,-0.5992,0.4533,0.0624,-0.1990,-0.7600,1.7580,-0.2478,0.1552,0.1349,
4.645932,-0.8241,0.5191,0.2279,-0.1990,-0.7600,1.7580,-0.2478,0.1552,0.1349,
4.648347,-0.9050,0.4054,-0.2055,-0.1990,-0.7600,1.7580,-0.2478,0.1552,0.1349,
4.651138,-0.9050,0.4054,-0.2055,-1.0630,-1.9420,-2.6320,-0.2478,0.1552,0.1349,
4.658848,-0.9050,0.4054,-0.2055,-1.0630,-1.9420,-2.6320,-0.5588,-0.7927,0.4698,
4.660574,-0.9050,0.4054,-0.2055,1.3090,-1.1650,-1.0570,-0.5588,-0.7927,0.4698,
4.679918,-0.9050,0.4054,-0.2055,1.5480,-0.4940,0.2420,-0.5588,-0.7927,0.4698,
4.699476,-0.9050,0.4054,-0.2055,0.8490,-1.8880,-0.3920,-0.5588,-0.7927,0.4698,
4.720697,-0.6554,0.4921,-0.0257,0.8490,-1.8880,-0.3920,-0.5588,-0.7927,0.4698,
4.722563,-0.6554,0.4921,-0.0257,0.8490,-1.8880,-0.3920,-0.9218,0.2353,0.7198,
4.724268,-0.6554,0.4921,-0.0257,0.6020,-2.7240,-1.0160,-0.9218,0.2353,0.7198,
4.725982,-0.6205,0.5718,0.1238,0.6020,-2.7240,-1.0160,-0.9218,0.2353,0.7198,
4.727609,-0.6829,0.4380,0.0719,0.6020,-2.7240,-1.0160,-0.9218,0.2353,0.7198,
4.729158,-0.6997,0.3616,0.0160,0.6020,-2.7240,-1.0160,-0.9218,0.2353,0.7198,
4.740037,-0.6997,0.3616,0.0160,-1.3230,-3.6080,-2.6440,-0.9218,0.2353,0.7198,
4.760845,-0.6997,0.3616,0.0160,-3.4960,-3.3020,-0.3170,-0.9218,0.2353,0.7198,
4.780659,-0.6997,0.3616,0.0160,-3.4960,-3.3020,-0.3170,0.1173,-0.1188,2.2778,
4.783906,-0.6997,0.3616,0.0160,-4.5690,-3.1750,3.4230,0.1173,-0.1188,2.2778,
4.802419,-0.8844,0.2844,-0.1452,-4.5690,-3.1750,3.4230,0.1173,-0.1188,2.2778,
4.804599,-1.0858,0.3380,0.0905,-4.5690,-3.1750,3.4230,0.1173,-0.1188,2.2778,
4.806120,-1.1655,0.3827,0.4722,-4.5690,-3.1750,3.4230,0.1173,-0.1188,2.2778,
4.807901,-0.9478,0.3143,0.3447,-4.5690,-3.1750,3.4230,0.1173,-0.1188,2.2778,
4.809490,-0.9478,0.3143,0.3447,-2.7620,-4.1560,2.1880,0.1173,-0.1188,2.2778,
4.820311,-0.9478,0.3143,0.3447,-1.0700,-5.4440,-0.1960,0.1173,-0.1188,2.2778,
4.842401,-0.9478,0.3143,0.3447,-1.0700,-5.4440,-0.1960,-1.8468,0.8002,2.6078,
4.844455,-0.9478,0.3143,0.3447,-2.2690,-5.7710,-2.7890,-1.8468,0.8002,2.6078,
4.860843,-0.9478,0.3143,0.3447,-3.3900,-3.6740,-2.1850,-1.8468,0.8002,2.6078,
4.884806,-0.7421,0.2123,0.1013,-3.3900,-3.6740,-2.1850,-1.8468,0.8002,2.6078,
4.888250,-0.8272,0.2045,-0.1523,-3.3900,-3.6740,-2.1850,-1.8468,0.8002,2.6078,
4.891457,-0.8945,0.4492,-0.0726,-3.3900,-3.6740,-2.1850,-1.8468,0.8002,2.6078,
4.894498,-1.2831,0.9636,0.2592,-3.3900,-3.6740,-2.1850,-1.8468,0.8002,2.6078,
4.896534,-1.2831,0.9636,0.2592,-7.7830,1.0160,1.0150,-1.8468,0.8002,2.6078,
4.901913,-1.2831,0.9636,0.2592,-6.8900,4.0620,2.8590,-1.8468,0.8002,2.6078,
4.924103,-1.2831,0.9636,0.2592,-6.8900,4.0620,2.8590,0.2112,3.6282,2.8978,
4.927919,-1.2831,0.9636,0.2592,0.4940,4.3450,5.9850,0.2112,3.6282,2.8978,
4.941593,-1.2831,0.9636,0.2592,6.3090,6.7350,5.9970,0.2112,3.6282,2.8978,
4.963797,-1.1354,1.3067,0.4344,6.3090,6.7350,5.9970,0.2112,3.6282,2.8978,
4.964745,-0.3519,1.3558,0.7042,6.3090,6.7350,5.9970,0.2112,3.6282,2.8978,
4.965480,0.2369,1.6014,0.6269,6.3090,6.7350,5.9970,0.2112,3.6282,2.8978,
4.966230,0.6623,1.6782,0.4512,6.3090,6.7350,5.9970,0.2112,3.6282,2.8978,
4.967086,0.6623,1.6782,0.4512,10.7260,7.6180,5.0060,0.2112,3.6282,2.8978,
4.981779,0.6623,1.6782,0.4512,10.7260,7.6180,5.0060,3.3843,1.5463,-1.3442,
4.984060,0.6623,1.6782,0.4512,10.2700,9.5640,4.0120,3.3843,1.5463,-1.3442,
5.004871,0.6623,1.6782,0.4512,6.2810,9.7110,0.1840,3.3843,1.5463,-1.3442,
5.022628,0.6623,1.6782,0.4512,4.0040,6.7140,0.4440,3.3843,1.5463,-1.3442,
5.045009,0.5950,1.8591,0.2775,4.0040,6.7140,0.4440,3.3843,1.5463,-1.3442,
5.046892,0.5950,1.8591,0.2775,4.0040,6.7140,0.4440,3.3003,-1.7827,-1.3872,
5.048570,0.1747,1.8544,-0.1774,4.0040,6.7140,0.4440,3.3003,-1.7827,-1.3872,
5.050113,-0.0785,1.5235,-0.2053,4.0040,6.7140,0.4440,3.3003,-1.7827,-1.3872,
5.051698,-0.2172,1.3639,-0.1569,4.0040,6.7140,0.4440,3.3003,-1.7827,-1.3872,
5.053409,-0.2172,1.3639,-0.1569,2.9480,5.4560,1.2930,3.3003,-1.7827,-1.3872,
5.062656,-0.2172,1.3639,-0.1569,4.2660,3.8040,0.3650,3.3003,-1.7827,-1.3872,
5.086989,-0.2172,1.3639,-0.1569,5.6460,1.2830,1.4870,3.3003,-1.7827,-1.3872,
5.103802,-0.2172,1.3639,-0.1569,5.6460,1.2830,1.4870,0.3762,1.7032,-4.2192,
5.105799,-0.2172,1.3639,-0.1569,6.4780,-1.6720,3.7290,0.3762,1.7032,-4.2192,
5.126080,-0.1253,1.1582,-0.2713,6.4780,-1.6720,3.7290,0.3762,1.7032,-4.2192,
5.129289,-0.0312,0.8600,-0.1706,6.4780,-1.6720,3.7290,0.3762,1.7032,-4.2192,
5.131743,0.0063,0.5042,0.0385,6.4780,-1.6720,3.7290,0.3762,1.7032,-4.2192,
5.134007,-0.2214,0.0028,0.0565,6.4780,-1.6720,3.7290,0.3762,1.7032,-4.2192,
5.136584,-0.2214,0.0028,0.0565,4.5630,-6.0950,4.2280,0.3762,1.7032,-4.2192,
5.144653,-0.2214,0.0028,0.0565,-1.4440,-8.2220,3.0690,0.3762,1.7032,-4.2192,
5.167980,-0.2214,0.0028,0.0565,-1.9450,-7.4100,2.1130,0.3762,1.7032,-4.2192,
5.186203,-0.2214,0.0028,0.0565,-1.9450,-7.4100,2.1130,-0.5757,2.0213,-0.6322,
5.189604,-0.2214,0.0028,0.0565,1.6000,-3.3010,1.5950,-0.5757,2.0213,-0.6322,
5.207614,-0.8426,-0.2478,-0.0985,1.6000,-3.3010,1.5950,-0.5757,2.0213,-0.6322,
5.209367,-0.8847,-0.1774,-0.2268,1.6000,-3.3010,1.5950,-0.5757,2.0213,-0.6322,
5.210910,-0.5132,0.2432,-0.2960,1.6000,-3.3010,1.5950,-0.5757,2.0213,-0.6322,
5.212641,-0.1193,0.6056,-0.2283,1.6000,-3.3010,1.5950,-0.5757,2.0213,-0.6322,
5.214242,-0.1193,0.6056,-0.2283,5.4070,0.1970,2.2670,-0.5757,2.0213,-0.6322,
5.225669,-0.1193,0.6056,-0.2283,5.8730,-0.9880,1.6860,-0.5757,2.0213,-0.6322,
5.247142,-0.1193,0.6056,-0.2283,5.8730,-0.9880,1.6860,-1.5038,-0.3077,0.5138,
5.249110,-0.1193,0.6056,-0.2283,5.0890,-2.6740,-0.5000,-1.5038,-0.3077,0.5138,
5.265065,-0.1193,0.6056,-0.2283,4.2990,-3.4000,-2.2100,-1.5038,-0.3077,0.5138,
5.287833,-0.0671,0.4976,-0.2771,4.2990,-3.4000,-2.2100,-1.5038,-0.3077,0.5138,
5.289713,-0.1437,0.3458,-0.4774,4.2990,-3.4000,-2.2100,-1.5038,-0.3077,0.5138,
5.291367,-0.2224,0.2959,-0.6186,4.2990,-3.4000,-2.2100,-1.5038,-0.3077,0.5138,
5.292990,-0.3211,0.4392,-0.7540,4.2990,-3.4000,-2.2100,-1.5038,-0.3077,0.5138,
5.294545,-0.3211,0.4392,-0.7540,3.3130,-2.2200,-3.9110,-1.5038,-0.3077,0.5138,
5.305455,-0.3211,0.4392,-0.7540,3.3130,-2.2200,-3.9110,-0.9218,-0.6667,0.4988,
5.308949,-0.3211,0.4392,-0.7540,-0.2190,1.4650,-3.9730,-0.9218,-0.6667,0.4988,
5.327621,-0.3211,0.4392,-0.7540,-6.3430,6.4690,-1.2780,-0.9218,-0.6667,0.4988,
5.346646,-0.3211,0.4392,-0.7540,-7.6870,9.9010,1.9840,-0.9218,-0.6667,0.4988,
5.369129,-0.6804,0.8287,-0.7363,-7.6870,9.9010,1.9840,-0.9218,-0.6667,0.4988,
5.372598,-1.3048,1.3414,-0.4580,-7.6870,9.9010,1.9840,-0.9218,-0.6667,0.4988,
5.378066,-1.4495,1.6811,-0.1322,-7.6870,9.9010,1.9840,-0.9218,-0.6667,0.4988,
5.381417,-0.8502,0.9942,-0.7626,-7.6870,9.9010,1.9840,-0.9218,-0.6667,0.4988,
5.384574,-0.8502,0.9942,-0.7626,-7.6870,9.9010,1.9840,-0.5998,-1.0487,-0.4132,
5.388094,-0.8502,0.9942,-0.7626,-1.6940,3.2490,-4.2800,-0.5998,-1.0487,-0.4132,
5.391596,-0.8502,0.9942,-0.7626,1.2700,-3.4690,-8.9630,-0.5998,-1.0487,-0.4132,
5.409288,-0.8502,0.9942,-0.7626,1.6770,1.7230,-0.5720,-0.5998,-1.0487,-0.4132,
5.427387,-0.8502,0.9942,-0.7626,1.4580,11.5850,10.2220,-0.5998,-1.0487,-0.4132,
5.450710,-0.5589,0.3147,-1.2000,1.4580,11.5850,10.2220,-0.5998,-1.0487,-0.4132,
5.452554,-0.5198,0.8578,-0.3067,1.4580,11.5850,10.2220,-0.5998,-1.0487,-0.4132,
5.454211,-0.5330,1.8744,0.8000,1.4580,11.5850,10.2220,-0.5998,-1.0487,-0.4132,
5.455656,-0.5907,1.9683,0.4237,1.4580,11.5850,10.2220,-0.5998,-1.0487,-0.4132,
5.457240,-0.5907,1.9683,0.4237,1.4580,11.5850,10.2220,0.0942,-0.3578,0.6548,
5.458836,-0.5907,1.9683,0.4237,0.8690,12.4380,6.3630,0.0942,-0.3578,0.6548,
5.469652,-0.5907,1.9683,0.4237,3.2020,-0.6660,-2.3220,0.0942,-0.3578,0.6548,
5.496969,-0.5907,1.9683,0.4237,4.6600,-7.6900,3.2140,0.0942,-0.3578,0.6548,
5.508231,-0.5907,1.9683,0.4237,4.6600,-7.6900,3.2140,0.0373,-0.9408,1.6668,
5.510012,-0.5907,1.9683,0.4237,5.7140,-6.9140,5.0030,0.0373,-0.9408,1.6668,
5.531574,-0.3548,0.6417,-0.4245,5.7140,-6.9140,5.0030,0.0373,-0.9408,1.6668,
5.535219,-0.1924,-0.0581,0.1658,5.7140,-6.9140,5.0030,0.0373,-0.9408,1.6668,
5.538377,-0.0626,0.0458,0.3640,5.7140,-6.9140,5.0030,0.0373,-0.9408,1.6668,
5.541307,-0.2297,0.5892,0.0214,5.7140,-6.9140,5.0030,0.0373,-0.9408,1.6668,
5.544265,-0.2297,0.5892,0.0214,3.8750,-1.8170,1.3180,0.0373,-0.9408,1.6668,
5.548544,-0.2297,0.5892,0.0214,1.8070,1.6340,3.0680,0.0373,-0.9408,1.6668,
5.571464,-0.2297,0.5892,0.0214,1.8070,1.6340,3.0680,-1.8098,-0.4828,-0.2012,
5.575360,-0.2297,0.5892,0.0214,2.8120,1.8770,4.3760,-1.8098,-0.4828,-0.2012,
5.589207,-0.2297,0.5892,0.0214,0.1760,-0.2090,0.9690,-1.8098,-0.4828,-0.2012,
5.611871,-0.4291,0.9550,0.2408,0.1760,-0.2090,0.9690,-1.8098,-0.4828,-0.2012,
5.613697,-0.3280,0.9816,0.4112,0.1760,-0.2090,0.9690,-1.8098,-0.4828,-0.2012,
5.614993,-0.5972,0.7693,0.1022,0.1760,-0.2090,0.9690,-1.8098,-0.4828,-0.2012,
5.617489,-1.2877,0.4937,-0.4252,0.1760,-0.2090,0.9690,-1.8098,-0.4828,-0.2012,
5.619376,-1.2877,0.4937,-0.4252,-6.7010,-2.9830,-4.4610,-1.8098,-0.4828,-0.2012,
5.629847,-1.2877,0.4937,-0.4252,-6.7010,-2.9830,-4.4610,-1.0398,0.2833,0.3788,
5.631851,-1.2877,0.4937,-0.4252,-1.9190,-2.0590,-2.2110,-1.0398,0.2833,0.3788,
5.652027,-1.2877,0.4937,-0.4252,1.7030,-1.4770,0.9460,-1.0398,0.2833,0.3788,
5.670935,-1.2877,0.4937,-0.4252,1.2390,-1.1510,2.5270,-1.0398,0.2833,0.3788,
5.692537,-0.7933,0.5927,-0.1789,1.2390,-1.1510,2.5270,-1.0398,0.2833,0.3788,
5.694391,-0.4178,0.6552,0.1578,1.2390,-1.1510,2.5270,-1.0398,0.2833,0.3788,
5.696116,-0.4599,0.6908,0.3347,1.2390,-1.1510,2.5270,-1.0398,0.2833,0.3788,
5.697667,-0.4572,0.7989,0.1338,1.2390,-1.1510,2.5270,-1.0398,0.2833,0.3788,
5.699087,-0.4572,0.7989,0.1338,1.1760,-0.1430,0.3410,-1.0398,0.2833,0.3788,
5.710652,-0.4572,0.7989,0.1338,1.1760,-0.1430,0.3410,-1.1797,-0.7198,0.6748,
5.712627,-0.4572,0.7989,0.1338,1.2310,0.1650,-2.4510,-1.1797,-0.7198,0.6748,
5.734377,-0.4572,0.7989,0.1338,1.6590,-0.6260,-0.6120,-1.1797,-0.7198,0.6748,
5.753439,-0.4572,0.7989,0.1338,1.0810,-1.3330,1.0850,-1.1797,-0.7198,0.6748,
5.774058,-0.4367,0.8354,-0.1251,1.0810,-1.3330,1.0850,-1.1797,-0.7198,0.6748,
5.778470,-0.3779,0.7624,0.0849,1.0810,-1.3330,1.0850,-1.1797,-0.7198,0.6748,
5.781750,-0.4184,0.6967,0.2819,1.0810,-1.3330,1.0850,-1.1797,-0.7198,0.6748,
5.784648,-0.5220,0.7512,0.2117,1.0810,-1.3330,1.0850,-1.1797,-0.7198,0.6748,
5.787644,-0.5220,0.7512,0.2117,1.0810,-1.3330,1.0850,-0.7657,-0.8008,0.9688,
5.790474,-0.5220,0.7512,0.2117,-0.1110,-0.8740,0.2040,-0.7657,-0.8008,0.9688,
5.794973,-0.5220,0.7512,0.2117,-0.5290,0.0740,-1.0950,-0.7657,-0.8008,0.9688,
5.814560,-0.5220,0.7512,0.2117,-0.9050,0.4210,-0.6360,-0.7657,-0.8008,0.9688,
5.832079,-0.5220,0.7512,0.2117,-0.9050,0.4210,-0.6360,0.3563,-0.5768,0.3608,
5.834986,-0.5220,0.7512,0.2117,-2.8680,-0.7180,1.4620,0.3563,-0.5768,0.3608,
5.854790,-0.5464,0.8548,0.0930,-2.8680,-0.7180,1.4620,0.3563,-0.5768,0.3608,
5.856708,-0.5706,0.8977,0.1480,-2.8680,-0.7180,1.4620,0.3563,-0.5768,0.3608,
5.859237,-0.7612,0.7864,0.3636,-2.8680,-0.7180,1.4620,0.3563,-0.5768,0.3608,
5.860872,-0.8072,0.5978,0.4349,-2.8680,-0.7180,1.4620,0.3563,-0.5768,0.3608,
5.862523,-0.8072,0.5978,0.4349,-3.2910,-2.5450,2.1660,0.3563,-0.5768,0.3608,
5.872491,-0.8072,0.5978,0.4349,-3.9360,-2.5350,-2.4680,0.3563,-0.5768,0.3608,
5.895085,-0.8072,0.5978,0.4349,-3.9360,-2.5350,-2.4680,0.7553,0.2882,-0.4962,
5.897079,-0.8072,0.5978,0.4349,-5.4540,1.3390,-0.3220,0.7553,0.2882,-0.4962,
5.913083,-0.8072,0.5978,0.4349,-1.7720,3.7140,1.1100,0.7553,0.2882,-0.4962,
5.935764,-0.8810,0.5939,-0.0366,-1.7720,3.7140,1.1100,0.7553,0.2882,-0.4962,
5.937634,-1.0428,0.9878,0.1746,-1.7720,3.7140,1.1100,0.7553,0.2882,-0.4962,
5.939350,-0.6823,1.2272,0.2925,-1.7720,3.7140,1.1100,0.7553,0.2882,-0.4962,
5.940953,-0.5515,0.9336,0.4024,-1.7720,3.7140,1.1100,0.7553,0.2882,-0.4962,
5.942446,-0.5515,0.9336,0.4024,-0.2740,0.8720,2.6620,0.7553,0.2882,-0.4962,
5.953555,-0.5515,0.9336,0.4024,-0.0230,-0.9260,3.4370,0.7553,0.2882,-0.4962,
5.976719,-0.5515,0.9336,0.4024,-0.0230,-0.9260,3.4370,2.1563,2.4893,-2.0192,
5.978421,-0.5515,0.9336,0.4024,-0.0970,0.3360,0.4940,2.1563,2.4893,-2.0192,
5.994493,-0.5515,0.9336,0.4024,-0.1150,4.7550,0.4740,2.1563,2.4893,-2.0192,
6.016985,-0.5584,0.7360,0.4217,-0.1150,4.7550,0.4740,2.1563,2.4893,-2.0192,
6.019073,-0.5584,0.7360,0.4217,0.2950,7.6620,3.0910,2.1563,2.4893,-2.0192,
6.021307,-0.6014,0.8423,0.0578,0.2950,7.6620,3.0910,2.1563,2.4893,-2.0192,
6.025107,-0.6286,1.2722,-0.0060,0.2950,7.6620,3.0910,2.1563,2.4893,-2.0192,
6.027513,-0.6070,1.5480,0.2085,0.2950,7.6620,3.0910,2.1563,2.4893,-2.0192,
6.034746,-0.6070,1.5480,0.2085,0.2950,7.6620,3.0910,2.7353,0.4602,-1.5242,
6.036382,-0.6070,1.5480,0.2085,2.2550,6.5930,4.0390,2.7353,0.4602,-1.5242,
6.058116,-0.6070,1.5480,0.2085,1.4570,5.0180,2.5790,2.7353,0.4602,-1.5242,
6.075710,-0.6070,1.5480,0.2085,0.8710,4.8680,-0.3830,2.7353,0.4602,-1.5242,
6.097880,-0.4287,1.4113,0.2587,0.8710,4.8680,-0.3830,2.7353,0.4602,-1.5242,
6.100771,-0.5338,1.2188,0.0688,0.8710,4.8680,-0.3830,2.7353,0.4602,-1.5242,
6.103253,-0.6170,1.1699,-0.2703,0.8710,4.8680,-0.3830,2.7353,0.4602,-1.5242,
6.105536,-0.5899,1.0697,-0.4883,0.8710,4.8680,-0.3830,2.7353,0.4602,-1.5242,
6.107951,-0.5899,1.0697,-0.4883,0.8710,4.8680,-0.3830,0.9452,0.9893,-1.3982,
6.110184,-0.5899,1.0697,-0.4883,1.2720,4.1430,-2.2460,0.9452,0.9893,-1.3982,
6.115224,-0.5899,1.0697,-0.4883,3.0630,2.4910,-0.7930,0.9452,0.9893,-1.3982,
6.138212,-0.5899,1.0697,-0.4883,3.5630,0.3170,3.1110,0.9452,0.9893,-1.3982,
6.156180,-0.5899,1.0697,-0.4883,3.5630,0.3170,3.1110,-0.2197,3.3342,-1.9672,
6.160260,-0.5899,1.0697,-0.4883,2.3870,-1.2250,3.1990,-0.2197,3.3342,-1.9672,
6.179268,-0.4228,0.8705,-0.3683,2.3870,-1.2250,3.1990,-0.2197,3.3342,-1.9672,
6.181291,-0.3874,0.6127,-0.0045,2.3870,-1.2250,3.1990,-0.2197,3.3342,-1.9672,
6.183217,-0.5093,0.4230,-0.0422,2.3870,-1.2250,3.1990,-0.2197,3.3342,-1.9672,
6.184885,-0.4575,0.3243,-0.1330,2.3870,-1.2250,3.1990,-0.2197,3.3342,-1.9672,
6.186424,-0.4575,0.3243,-0.1330,2.8250,-1.9660,2.7510,-0.2197,3.3342,-1.9672,
6.196230,-0.4575,0.3243,-0.1330,4.3340,-2.3810,3.7270,-0.2197,3.3342,-1.9672,
6.219141,-0.4575,0.3243,-0.1330,5.8540,-1.8860,4.2890,-0.2197,3.3342,-1.9672,
6.236448,-0.4575,0.3243,-0.1330,5.8540,-1.8860,4.2890,-0.8987,1.1492,-0.4001,
6.237500,-0.4575,0.3243,-0.1330,7.9400,-1.3320,3.1340,-0.8987,1.1492,-0.4001,
6.259771,-0.2928,0.2683,-0.0692,7.9400,-1.3320,3.1340,-0.8987,1.1492,-0.4001,
6.263258,-0.1275,0.3159,-0.0318,7.9400,-1.3320,3.1340,-0.8987,1.1492,-0.4001,
6.266092,0.0926,0.3781,-0.1510,7.9400,-1.3320,3.1340,-0.8987,1.1492,-0.4001,
6.268986,0.0766,0.3802,-0.3013,7.9400,-1.3320,3.1340,-0.8987,1.1492,-0.4001,
6.271934,0.0766,0.3802,-0.3013,7.7610,-1.4720,1.5360,-0.8987,1.1492,-0.4001,
6.278050,0.0766,0.3802,-0.3013,5.4460,-3.1090,-0.0990,-0.8987,1.1492,-0.4001,
6.299550,0.0766,0.3802,-0.3013,5.4460,-3.1090,-0.0990,-1.8327,-1.0878,1.1289,
6.302341,0.0766,0.3802,-0.3013,3.8940,-4.9850,-2.0650,-1.8327,-1.0878,1.1289,
6.317783,0.0766,0.3802,-0.3013,2.1870,-4.1830,-4.7850,-1.8327,-1.0878,1.1289,
6.339902,-0.1577,0.2388,-0.4409,2.1870,-4.1830,-4.7850,-1.8327,-1.0878,1.1289,
6.341276,-0.3120,0.0785,-0.6049,2.1870,-4.1830,-4.7850,-1.8327,-1.0878,1.1289,
6.342332,-0.4797,0.1903,-0.8468,2.1870,-4.1830,-4.7850,-1.8327,-1.0878,1.1289,
6.343382,-1.0294,0.7085,-0.8605,2.1870,-4.1830,-4.7850,-1.8327,-1.0878,1.1289,
6.344511,-1.0294,0.7085,-0.8605,-3.2580,0.7540,-5.0410,-1.8327,-1.0878,1.1289,
6.358146,-1.0294,0.7085,-0.8605,-3.2580,0.7540,-5.0410,0.2173,0.5573,-0.6212,
6.361026,-1.0294,0.7085,-0.8605,-11.2500,10.3760,0.1110,0.2173,0.5573,-0.6212,
6.380866,-1.0294,0.7085,-0.8605,-8.5350,14.4450,2.2790,0.2173,0.5573,-0.6212,
6.398403,-1.0294,0.7085,-0.8605,0.9460,-0.2340,-4.3760,0.2173,0.5573,-0.6212,
6.421738,-1.8468,1.6834,-0.3424,0.9460,-0.2340,-4.3760,0.2173,0.5573,-0.6212,
6.423917,-1.5797,2.0753,-0.1412,0.9460,-0.2340,-4.3760,0.2173,0.5573,-0.6212,
6.425521,-0.6217,0.5662,-0.8192,0.9460,-0.2340,-4.3760,0.2173,0.5573,-0.6212,
6.427135,-0.4343,-0.1849,-0.9323,0.9460,-0.2340,-4.3760,0.2173,0.5573,-0.6212,
6.428698,-0.4343,-0.1849,-0.9323,0.9460,-0.2340,-4.3760,-0.2007,-1.8157,1.2218,
6.430271,-0.4343,-0.1849,-0.9323,2.7920,-7.7110,-5.6940,-0.2007,-1.8157,1.2218,
6.438892,-0.4343,-0.1849,-0.9323,4.1790,1.2430,-2.2100,-0.2007,-1.8157,1.2218,
6.461783,-0.4343,-0.1849,-0.9323,0.9450,15.0630,8.0740,-0.2007,-1.8157,1.2218,
6.479817,-0.4343,-0.1849,-0.9323,0.6230,11.0900,9.9150,-0.2007,-1.8157,1.2218,
6.503196,-0.2913,0.7498,-0.5431,0.6230,11.0900,9.9150,-0.2007,-1.8157,1.2218,
6.505176,-0.6305,2.1584,0.5253,0.6230,11.0900,9.9150,-0.2007,-1.8157,1.2218,
6.506898,-0.6687,1.7449,0.7118,0.6230,11.0900,9.9150,-0.2007,-1.8157,1.2218,
6.508628,-0.6237,0.1806,-0.0633,0.6230,11.0900,9.9150,-0.2007,-1.8157,1.2218,
6.510124,-0.6237,0.1806,-0.0633,0.6230,11.0900,9.9150,0.6713,0.4412,0.8558,
6.511770,-0.6237,0.1806,-0.0633,0.9420,-4.3910,2.3450,0.6713,0.4412,0.8558,
6.520615,-0.6237,0.1806,-0.0633,7.4390,-4.9320,-2.4890,0.6713,0.4412,0.8558,
6.542307,-0.6237,0.1806,-0.0633,4.6750,1.8020,3.2850,0.6713,0.4412,0.8558,
6.561692,-0.6237,0.1806,-0.0633,4.6750,1.8020,3.2850,-1.1947,-1.6378,1.4448,
6.565809,-0.6237,0.1806,-0.0633,0.4400,4.7360,7.1820,-1.1947,-1.6378,1.4448,
6.583311,0.0474,0.1507,-0.5145,0.4400,4.7360,7.1820,-1.1947,-1.6378,1.4448,
6.585293,-0.2278,0.8653,0.1285,0.4400,4.7360,7.1820,-1.1947,-1.6378,1.4448,
6.586838,-0.6461,1.1894,0.5647,0.4400,4.7360,7.1820,-1.1947,-1.6378,1.4448,
6.588485,-0.8726,0.8311,0.2844,0.4400,4.7360,7.1820,-1.1947,-1.6378,1.4448,
6.589973,-0.8726,0.8311,0.2844,-1.9070,1.0360,4.0630,-1.1947,-1.6378,1.4448,
6.602411,-0.8726,0.8311,0.2844,-1.9860,-2.4720,-2.3160,-1.1947,-1.6378,1.4448,
6.622993,-0.8726,0.8311,0.2844,-1.9860,-2.4720,-2.3160,-1.2678,-0.6937,1.0849,
6.628680,-0.8726,0.8311,0.2844,-0.5970,-2.7560,-1.6790,-1.2678,-0.6937,1.0849,
6.642498,-0.8726,0.8311,0.2844,1.5860,-1.6980,0.6490,-1.2678,-0.6937,1.0849,
6.663653,-0.8670,0.4916,-0.3360,1.5860,-1.6980,0.6490,-1.2678,-0.6937,1.0849,
6.667237,-0.7090,0.4792,-0.2424,1.5860,-1.6980,0.6490,-1.2678,-0.6937,1.0849,
6.670204,-0.4721,0.6004,0.0218,1.5860,-1.6980,0.6490,-1.2678,-0.6937,1.0849,
6.673493,-0.3910,0.5464,0.1984,1.5860,-1.6980,0.6490,-1.2678,-0.6937,1.0849,
6.677363,-0.3910,0.5464,0.1984,2.2420,-2.3470,2.1300,-1.2678,-0.6937,1.0849,
6.682467,-0.3910,0.5464,0.1984,2.2420,-2.3470,2.1300,-1.2657,-1.0608,0.8528,
6.684096,-0.3910,0.5464,0.1984,2.6840,-3.0890,1.7220,-1.2657,-1.0608,0.8528,
6.703602,-0.3910,0.5464,0.1984,2.5150,-2.6390,0.9990,-1.2657,-1.0608,0.8528,
6.723691,-0.3910,0.5464,0.1984,1.5320,-1.2570,-1.1980,-1.2657,-1.0608,0.8528,
6.745030,-0.3326,0.4811,0.1879,1.5320,-1.2570,-1.1980,-1.2657,-1.0608,0.8528,
6.747150,-0.3358,0.5369,0.1460,1.5320,-1.2570,-1.1980,-1.2657,-1.0608,0.8528,
6.748834,-0.4210,0.6877,-0.0487,1.5320,-1.2570,-1.1980,-1.2657,-1.0608,0.8528,
6.751888,-0.4924,0.7139,-0.1307,1.5320,-1.2570,-1.1980,-1.2657,-1.0608,0.8528,
6.755209,-0.4924,0.7139,-0.1307,0.6710,-1.0810,-2.2210,-1.2657,-1.0608,0.8528,
6.763637,-0.4924,0.7139,-0.1307,0.6710,-1.0810,-2.2210,-0.6808,-0.5488,0.8558,
6.765347,-0.4924,0.7139,-0.1307,-0.4620,-1.5170,0.5810,-0.6808,-0.5488,0.8558,
6.785246,-0.4924,0.7139,-0.1307,-1.2960,-1.3300,1.0320,-0.6808,-0.5488,0.8558,
6.804939,-0.4924,0.7139,-0.1307,-1.5740,-0.1490,-1.5100,-0.6808,-0.5488,0.8558,
6.826236,-0.5921,0.6782,0.1732,-1.5740,-0.1490,-1.5100,-0.6808,-0.5488,0.8558,
6.830394,-0.6601,0.7057,0.2396,-1.5740,-0.1490,-1.5100,-0.6808,-0.5488,0.8558,
6.833809,-0.6679,0.8342,0.0011,-1.5740,-0.1490,-1.5100,-0.6808,-0.5488,0.8558,
6.837262,-0.6471,0.8705,0.0884,-1.5740,-0.1490,-1.5100,-0.6808,-0.5488,0.8558,
6.840694,-0.6471,0.8705,0.0884,-1.5740,-0.1490,-1.5100,-0.8158,-0.0128,1.0158,
6.844577,-0.6471,0.8705,0.0884,-1.5340,0.1340,-0.7880,-0.8158,-0.0128,1.0158,
6.846265,-0.6471,0.8705,0.0884,-1.4190,-0.9620,1.4080,-0.8158,-0.0128,1.0158,
6.866257,-0.6471,0.8705,0.0884,-2.1740,-0.7310,1.4770,-0.8158,-0.0128,1.0158,
6.884730,-0.6471,0.8705,0.0884,-2.1740,-0.7310,1.4770,-0.0868,0.2482,-0.0631,
6.887818,-0.6471,0.8705,0.0884,-2.3810,-1.0540,0.7890,-0.0868,0.2482,-0.0631,
6.906299,-0.6249,0.7628,0.3244,-2.3810,-1.0540,0.7890,-0.0868,0.2482,-0.0631,
6.911782,-0.6969,0.7869,0.3371,-2.3810,-1.0540,0.7890,-0.0868,0.2482,-0.0631,
6.916801,-0.7195,0.7539,0.2655,-2.3810,-1.0540,0.7890,-0.0868,0.2482,-0.0631,
6.919278,-0.8414,0.7226,0.2580,-2.3810,-1.0540,0.7890,-0.0868,0.2482,-0.0631,
6.921559,-0.8414,0.7226,0.2580,-3.5430,-1.3460,0.7050,-0.0868,0.2482,-0.0631,
6.926590,-0.8414,0.7226,0.2580,-5.2670,1.4270,0.7740,-0.0868,0.2482,-0.0631,
6.946803,-0.8414,0.7226,0.2580,-5.2670,1.4270,0.7740,1.0792,1.9183,-1.2452,
6.950941,-0.8414,0.7226,0.2580,-3.6720,4.4200,0.8170,1.0792,1.9183,-1.2452,
6.965853,-0.8414,0.7226,0.2580,-1.5070,2.6010,2.2490,1.0792,1.9183,-1.2452,
6.987288,-1.0279,1.0012,0.2548,-1.5070,2.6010,2.2490,1.0792,1.9183,-1.2452,
6.990535,-0.8876,1.2992,0.2308,-1.5070,2.6010,2.2490,1.0792,1.9183,-1.2452,
6.994305,-0.6967,1.1016,0.3277,-1.5070,2.6010,2.2490,1.0792,1.9183,-1.2452,
6.996236,-0.6466,0.9250,0.3179,-1.5070,2.6010,2.2490,1.0792,1.9183,-1.2452,
6.997209,-0.6466,0.9250,0.3179,-0.7480,1.0030,2.7640,1.0792,1.9183,-1.2452,
7.005814,-0.6466,0.9250,0.3179,0.9640,2.2830,1.8320,1.0792,1.9183,-1.2452,
7.027208,-0.6466,0.9250,0.3179,0.9640,2.2830,1.8320,1.9262,2.0222,-1.3002,
7.030915,-0.6466,0.9250,0.3179,2.0530,4.7350,2.7270,1.9262,2.0222,-1.3002,
7.047382,-0.6466,0.9250,0.3179,2.2720,6.1860,4.7150,1.9262,2.0222,-1.3002,
7.069472,-0.4937,1.0403,0.1627,2.2720,6.1860,4.7150,1.9262,2.0222,-1.3002,
7.073662,-0.4017,1.2726,0.2012,2.2720,6.1860,4.7150,1.9262,2.0222,-1.3002,
7.076923,-0.4015,1.3966,0.3479,2.2720,6.1860,4.7150,1.9262,2.0222,-1.3002,
7.079668,-0.4264,1.4135,0.1637,2.2720,6.1860,4.7150,1.9262,2.0222,-1.3002,
7.081036,-0.4264,1.4135,0.1637,2.2640,6.6730,3.4010,1.9262,2.0222,-1.3002,
7.087583,-0.4264,1.4135,0.1637,2.2640,6.6730,3.4010,2.8863,-0.1928,-1.6761,
7.089502,-0.4264,1.4135,0.1637,2.3230,5.3950,0.3510,2.8863,-0.1928,-1.6761,
7.109355,-0.4264,1.4135,0.1637,2.6750,3.2300,0.8510,2.8863,-0.1928,-1.6761,
7.128944,-0.4264,1.4135,0.1637,3.5730,1.6340,0.7230,2.8863,-0.1928,-1.6761,
7.149864,-0.4436,1.2500,-0.1885,3.5730,1.6340,0.7230,2.8863,-0.1928,-1.6761,
7.153690,-0.4240,1.0000,-0.1731,3.5730,1.6340,0.7230,2.8863,-0.1928,-1.6761,
7.156289,-0.3427,0.8143,-0.2181,3.5730,1.6340,0.7230,2.8863,-0.1928,-1.6761,
7.158981,-0.2234,0.5882,-0.1638,3.5730,1.6340,0.7230,2.8863,-0.1928,-1.6761,
7.161917,-0.2234,0.5882,-0.1638,3.5730,1.6340,0.7230,0.8112,1.7133,-2.0192,
7.164184,-0.2234,0.5882,-0.1638,4.8780,-0.2600,1.5820,0.8112,1.7133,-2.0192,
7.168911,-0.2234,0.5882,-0.1638,3.4130,-1.4560,3.4240,0.8112,1.7133,-2.0192,
7.191202,-0.2234,0.5882,-0.1638,0.5330,-1.4110,2.2610,0.8112,1.7133,-2.0192,
7.209086,-0.2234,0.5882,-0.1638,0.5330,-1.4110,2.2610,-0.5148,2.7803,-1.4092,
7.211362,-0.2234,0.5882,-0.1638,1.5570,-1.0540,2.2080,-0.5148,2.7803,-1.4092,
7.230857,-0.3837,0.4289,-0.0160,1.5570,-1.0540,2.2080,-0.5148,2.7803,-1.4092,
7.234673,-0.6759,0.4042,-0.1813,1.5570,-1.0540,2.2080,-0.5148,2.7803,-1.4092,
7.237707,-0.5618,0.4210,-0.2270,1.5570,-1.0540,2.2080,-0.5148,2.7803,-1.4092,
7.240488,-0.5618,0.4210,-0.2270,4.3260,-0.5760,4.0520,-0.5148,2.7803,-1.4092,
7.244607,-0.2703,0.4594,-0.0650,4.3260,-0.5760,4.0520,-0.5148,2.7803,-1.4092,
7.249752,-0.2703,0.4594,-0.0650,6.9330,-0.5690,4.6760,-0.5148,2.7803,-1.4092,
7.270552,-0.2703,0.4594,-0.0650,8.3500,-1.5610,2.6820,-0.5148,2.7803,-1.4092,
7.290397,-0.2703,0.4594,-0.0650,8.3500,-1.5610,2.6820,-1.5517,-0.4528,0.1698,
7.292925,-0.2703,0.4594,-0.0650,6.9860,-2.9250,-0.9350,-1.5517,-0.4528,0.1698,
7.311302,0.0019,0.4589,-0.0085,6.9860,-2.9250,-0.9350,-1.5517,-0.4528,0.1698,
7.313528,0.1470,0.3678,-0.2023,6.9860,-2.9250,-0.9350,-1.5517,-0.4528,0.1698,
7.315067,0.0049,0.2495,-0.5420,6.9860,-2.9250,-0.9350,-1.5517,-0.4528,0.1698,
7.317547,-0.3167,0.0732,-0.6225,6.9860,-2.9250,-0.9350,-1.5517,-0.4528,0.1698,
7.320813,-0.3167,0.0732,-0.6225,3.8460,-4.9510,-2.0890,-1.5517,-0.4528,0.1698,
7.330606,-0.3167,0.0732,-0.6225,2.4480,-4.8710,-2.3220,-1.5517,-0.4528,0.1698,
7.352210,-0.3167,0.0732,-0.6225,2.4480,-4.8710,-2.3220,-1.1828,-0.3948,0.8628,
7.356744,-0.3167,0.0732,-0.6225,-0.4290,-0.7760,-4.4120,-1.1828,-0.3948,0.8628,
7.371192,-0.3167,0.0732,-0.6225,-7.3940,6.7960,-2.5120,-1.1828,-0.3948,0.8628,
7.392605,-0.4529,0.1114,-0.6112,-7.3940,6.7960,-2.5120,-1.1828,-0.3948,0.8628,
7.396958,-0.7390,0.5489,-0.8072,-7.3940,6.7960,-2.5120,-1.1828,-0.3948,0.8628,
7.400277,-1.4502,1.3202,-0.6142,-7.3940,6.7960,-2.5120,-1.1828,-0.3948,0.8628,
7.403694,-1.7537,2.2254,-0.0816,-7.3940,6.7960,-2.5120,-1.1828,-0.3948,0.8628,
7.406938,-1.7537,2.2254,-0.0816,-10.2380,15.9060,2.8490,-1.1828,-0.3948,0.8628,
7.414107,-1.7537,2.2254,-0.0816,-10.2380,15.9060,2.8490,-0.5577,0.3673,-1.5731,
7.415779,-1.7537,2.2254,-0.0816,-0.9160,5.4160,-2.2360,-0.5577,0.3673,-1.5731,
7.433426,-1.7537,2.2254,-0.0816,2.3160,-9.0160,-6.4470,-0.5577,0.3673,-1.5731,
7.453768,-1.7537,2.2254,-0.0816,3.2950,-7.6900,-3.0150,-0.5577,0.3673,-1.5731,
7.473500,-0.8180,1.1344,-0.6030,3.2950,-7.6900,-3.0150,-0.5577,0.3673,-1.5731,
7.477878,-0.4944,-0.3323,-1.0091,3.2950,-7.6900,-3.0150,-0.5577,0.3673,-1.5731,
7.481291,-0.3940,-0.1754,-0.6203,3.2950,-7.6900,-3.0150,-0.5577,0.3673,-1.5731,
7.484776,-0.4324,1.2330,-0.2346,3.2950,-7.6900,-3.0150,-0.5577,0.3673,-1.5731,
7.488693,-0.4324,1.2330,-0.2346,3.2950,-7.6900,-3.0150,-0.1357,-1.4728,0.6859,
7.492263,-0.4324,1.2330,-0.2346,2.8940,5.9270,0.4420,-0.1357,-1.4728,0.6859,
7.495489,-0.4324,1.2330,-0.2346,-1.0280,18.4100,12.9530,-0.1357,-1.4728,0.6859,
7.513672,-0.4324,1.2330,-0.2346,-2.7890,10.2780,8.0500,-0.1357,-1.4728,0.6859,
7.533364,-0.4324,1.2330,-0.2346,4.0770,-4.5620,-3.9680,-0.1357,-1.4728,0.6859,
7.554259,-0.8421,2.5001,1.0493,4.0770,-4.5620,-3.9680,-0.1357,-1.4728,0.6859,
7.556700,-0.8421,2.5001,1.0493,4.0770,-4.5620,-3.9680,-0.4777,-2.2217,1.4248,
7.559589,-0.8421,2.5001,1.0493,8.9670,-4.3930,0.4840,-0.4777,-2.2217,1.4248,
7.561686,-1.0159,1.6708,0.5358,8.9670,-4.3930,0.4840,-0.4777,-2.2217,1.4248,
7.563344,-0.3038,0.1764,-0.6780,8.9670,-4.3930,0.4840,-0.4777,-2.2217,1.4248,
7.564920,0.2041,0.2155,-0.1826,8.9670,-4.3930,0.4840,-0.4777,-2.2217,1.4248,
7.573961,0.2041,0.2155,-0.1826,4.1380,1.7530,9.4830,-0.4777,-2.2217,1.4248,
7.595514,0.2041,0.2155,-0.1826,-0.3670,3.4750,7.1230,-0.4777,-2.2217,1.4248,
7.614300,0.2041,0.2155,-0.1826,-0.3670,3.4750,7.1230,-1.9217,-2.6048,1.6068,
7.618439,0.2041,0.2155,-0.1826,-2.0190,0.3680,-2.3380,-1.9217,-2.6048,1.6068,
7.635421,-0.2768,0.8683,0.7704,-2.0190,0.3680,-2.3380,-1.9217,-2.6048,1.6068,
7.637556,-0.7195,1.0709,0.5676,-2.0190,0.3680,-2.3380,-1.9217,-2.6048,1.6068,
7.639193,-0.8724,0.7796,-0.3402,-2.0190,0.3680,-2.3380,-1.9217,-2.6048,1.6068,
7.640880,-0.7048,0.5364,-0.3805,-2.0190,0.3680,-2.3380,-1.9217,-2.6048,1.6068,
7.643456,-0.7048,0.5364,-0.3805,-0.5420,-2.1830,-3.0000,-1.9217,-2.6048,1.6068,
7.654613,-0.7048,0.5364,-0.3805,-0.3010,-3.1080,0.4820,-1.9217,-2.6048,1.6068,
7.675572,-0.7048,0.5364,-0.3805,-0.3010,-3.1080,0.4820,-1.6637,0.1992,0.7968,
7.677668,-0.7048,0.5364,-0.3805,1.1250,-2.8520,0.9680,-1.6637,0.1992,0.7968,
7.695101,-0.7048,0.5364,-0.3805,2.4140,-2.8500,2.7440,-1.6637,0.1992,0.7968,
7.716825,-0.6657,0.4562,-0.0001,2.4140,-2.8500,2.7440,-1.6637,0.1992,0.7968,
7.721170,-0.5063,0.4944,0.0747,2.4140,-2.8500,2.7440,-1.6637,0.1992,0.7968,
7.724585,-0.3629,0.5039,0.2841,2.4140,-2.8500,2.7440,-1.6637,0.1992,0.7968,
7.727958,-0.2637,0.5628,0.1651,2.4140,-2.8500,2.7440,-1.6637,0.1992,0.7968,
7.730980,-0.2637,0.5628,0.1651,3.2730,-2.3630,1.2830,-1.6637,0.1992,0.7968,
7.735770,-0.2637,0.5628,0.1651,3.2730,-2.3630,1.2830,-1.0508,-0.7528,0.7718,
7.737487,-0.2637,0.5628,0.1651,2.3790,-1.0680,-0.6660,-1.0508,-0.7528,0.7718,
7.756592,-0.2637,0.5628,0.1651,0.4830,-0.3610,-2.1530,-1.0508,-0.7528,0.7718,
7.777188,-0.2637,0.5628,0.1651,-0.7880,-1.1650,0.4810,-1.0508,-0.7528,0.7718,
7.797536,-0.3416,0.7029,-0.0087,-0.7880,-1.1650,0.4810,-1.0508,-0.7528,0.7718,
7.801599,-0.5220,0.7820,-0.1386,-0.7880,-1.1650,0.4810,-1.0508,-0.7528,0.7718,
7.804420,-0.6386,0.7069,0.1499,-0.7880,-1.1650,0.4810,-1.0508,-0.7528,0.7718,
7.807469,-0.5867,0.6691,0.2611,-0.7880,-1.1650,0.4810,-1.0508,-0.7528,0.7718,
7.811738,-0.5867,0.6691,0.2611,-0.4340,-1.6080,1.3820,-1.0508,-0.7528,0.7718,
7.817129,-0.5867,0.6691,0.2611,-0.4340,-1.6080,1.3820,-0.7828,-0.6637,0.9679,
7.818586,-0.5867,0.6691,0.2611,-0.0450,-0.6620,-1.6460,-0.7828,-0.6637,0.9679,
7.837198,-0.5867,0.6691,0.2611,0.1370,0.0970,-1.3810,-0.7828,-0.6637,0.9679,
7.857829,-0.5867,0.6691,0.2611,-0.1170,-0.1240,1.0740,-0.7828,-0.6637,0.9679,
7.877807,-0.5284,0.7752,-0.0307,-0.1170,-0.1240,1.0740,-0.7828,-0.6637,0.9679,
7.880169,-0.5284,0.7752,-0.0307,-0.1170,-0.1240,1.0740,-0.3227,-0.4898,0.4319,
7.881678,-0.5284,0.7752,-0.0307,-1.0300,-0.3150,1.6500,-0.3227,-0.4898,0.4319,
7.883780,-0.4907,0.8616,0.0134,-1.0300,-0.3150,1.6500,-0.3227,-0.4898,0.4319,
7.886503,-0.5022,0.8448,0.2783,-1.0300,-0.3150,1.6500,-0.3227,-0.4898,0.4319,
7.888282,-0.5878,0.8278,0.3466,-1.0300,-0.3150,1.6500,-0.3227,-0.4898,0.4319,
7.897193,-0.5878,0.8278,0.3466,-1.9820,-1.5950,1.2060,-0.3227,-0.4898,0.4319,
7.918316,-0.5878,0.8278,0.3466,-3.0550,-2.2110,1.7520,-0.3227,-0.4898,0.4319,
7.937558,-0.5878,0.8278,0.3466,-3.0550,-2.2110,1.7520,-0.1268,-0.3667,-0.0622,
7.939533,-0.5878,0.8278,0.3466,-4.3020,0.4470,0.6700,-0.1268,-0.3667,-0.0622,
7.958992,-0.6829,0.6969,0.3054,-4.3020,0.4470,0.6700,-0.1268,-0.3667,-0.0622,
7.960934,-0.7940,0.6314,0.3677,-4.3020,0.4470,0.6700,-0.1268,-0.3667,-0.0622,
7.962258,-0.9220,0.9017,0.2638,-4.3020,0.4470,0.6700,-0.1268,-0.3667,-0.0622,
7.963929,-0.8651,1.3106,0.1534,-4.3020,0.4470,0.6700,-0.1268,-0.3667,-0.0622,
7.965414,-0.8651,1.3106,0.1534,-3.6920,4.4760,-0.3190,-0.1268,-0.3667,-0.0622,
7.978118,-0.8651,1.3106,0.1534,-0.4860,4.3560,1.6790,-0.1268,-0.3667,-0.0622,
7.999439,-0.8651,1.3106,0.1534,-0.4860,4.3560,1.6790,2.0892,1.8623,-1.3812,
8.004885,-0.8651,1.3106,0.1534,-1.4090,0.0500,3.7310,2.0892,1.8623,-1.3812,
8.020348,-0.8651,1.3106,0.1534,-2.3890,-2.2460,1.4050,2.0892,1.8623,-1.3812,
8.040025,-0.5508,1.2975,0.3289,-2.3890,-2.2460,1.4050,2.0892,1.8623,-1.3812,
8.045844,-0.6689,0.8509,0.4889,-2.3890,-2.2460,1.4050,2.0892,1.8623,-1.3812,
8.047701,-0.8001,0.6032,0.1922,-2.3890,-2.2460,1.4050,2.0892,1.8623,-1.3812,
8.049814,-0.6943,0.7823,-0.1078,-2.3890,-2.2460,1.4050,2.0892,1.8623,-1.3812,
8.054174,-0.6943,0.7823,-0.1078,-1.0480,-0.2890,-0.9150,2.0892,1.8623,-1.3812,
8.059319,-0.6943,0.7823,-0.1078,-0.0860,4.2790,0.4150,2.0892,1.8623,-1.3812,
8.079877,-0.6943,0.7823,-0.1078,-0.0860,4.2790,0.4150,2.1112,1.5382,-1.3622,
8.082005,-0.6943,0.7823,-0.1078,0.4980,6.2900,4.6020,2.1112,1.5382,-1.3622,
8.099448,-0.6943,0.7823,-0.1078,3.6440,5.7910,6.0890,2.1112,1.5382,-1.3622,
8.120634,-0.6193,1.2276,-0.0272,3.6440,5.7910,6.0890,2.1112,1.5382,-1.3622,
8.122759,-0.5790,1.4115,0.3494,3.6440,5.7910,6.0890,2.1112,1.5382,-1.3622,
8.125577,-0.2812,1.3309,0.4512,3.6440,5.7910,6.0890,2.1112,1.5382,-1.3622,
8.127423,-0.2649,1.3380,0.1805,3.6440,5.7910,6.0890,2.1112,1.5382,-1.3622,
8.129104,-0.2649,1.3380,0.1805,4.0850,6.2200,3.8250,2.1112,1.5382,-1.3622,
8.140026,-0.2649,1.3380,0.1805,4.0850,6.2200,3.8250,2.7203,-0.4737,-1.6842,
8.143232,-0.2649,1.3380,0.1805,2.1790,5.7650,-0.6960,2.7203,-0.4737,-1.6842,
8.161879,-0.2649,1.3380,0.1805,1.3780,3.3740,-2.1100,2.7203,-0.4737,-1.6842,
8.180358,-0.2649,1.3380,0.1805,3.2610,0.9860,-0.2310,2.7203,-0.4737,-1.6842,
8.202146,-0.4832,1.2574,-0.3138,3.2610,0.9860,-0.2310,2.7203,-0.4737,-1.6842,
8.204721,-0.4832,1.2574,-0.3138,3.2610,0.9860,-0.2310,0.6423,1.6632,-2.3552,
8.206359,-0.5782,0.9883,-0.4839,3.2610,0.9860,-0.2310,0.6423,1.6632,-2.3552,
8.208919,-0.4024,0.7153,-0.3165,3.2610,0.9860,-0.2310,0.6423,1.6632,-2.3552,
8.210526,-0.4226,0.5100,-0.0265,3.2610,0.9860,-0.2310,0.6423,1.6632,-2.3552,
8.212096,-0.4226,0.5100,-0.0265,3.2370,-0.6480,2.9020,0.6423,1.6632,-2.3552,
8.219807,-0.4226,0.5100,-0.0265,-0.3840,-1.4050,1.9050,0.6423,1.6632,-2.3552,
8.242739,-0.4226,0.5100,-0.0265,0.7460,-1.7760,1.4810,0.6423,1.6632,-2.3552,
8.260451,-0.4226,0.5100,-0.0265,0.7460,-1.7760,1.4810,-0.8628,2.3302,-0.8822,
8.262593,-0.4226,0.5100,-0.0265,4.2950,-1.3720,3.6010,-0.8628,2.3302,-0.8822,
8.283923,-0.7952,0.4032,-0.1684,4.2950,-1.3720,3.6010,-0.8628,2.3302,-0.8822,
8.286115,-0.6728,0.3483,-0.2505,4.2950,-1.3720,3.6010,-0.8628,2.3302,-0.8822,
8.288122,-0.3013,0.3800,-0.0653,4.2950,-1.3720,3.6010,-0.8628,2.3302,-0.8822,
8.289744,-0.0958,0.3732,0.0385,4.2950,-1.3720,3.6010,-0.8628,2.3302,-0.8822,
8.291465,-0.0958,0.3732,0.0385,6.2070,-1.4390,4.7700,-0.8628,2.3302,-0.8822,
8.301981,-0.0958,0.3732,0.0385,7.5750,-2.3860,4.4820,-0.8628,2.3302,-0.8822,
8.324193,-0.0958,0.3732,0.0385,8.1630,-3.2750,1.6750,-0.8628,2.3302,-0.8822,
8.342761,-0.0958,0.3732,0.0385,8.1630,-3.2750,1.6750,-1.8238,-0.6618,0.7968,
8.344869,-0.0958,0.3732,0.0385,7.0440,-4.3190,-2.0470,-1.8238,-0.6618,0.7968,
8.364045,0.0552,0.2856,0.0045,7.0440,-4.3190,-2.0470,-1.8238,-0.6618,0.7968,
8.365934,0.1206,0.2153,-0.2674,7.0440,-4.3190,-2.0470,-1.8238,-0.6618,0.7968,
8.367435,0.0088,0.1378,-0.6124,7.0440,-4.3190,-2.0470,-1.8238,-0.6618,0.7968,
8.369016,-0.2321,0.0739,-0.6731,7.0440,-4.3190,-2.0470,-1.8238,-0.6618,0.7968,
8.370762,-0.2321,0.0739,-0.6731,4.6200,-5.2730,-3.0300,-1.8238,-0.6618,0.7968,
8.382018,-0.2321,0.0739,-0.6731,0.6920,-1.9210,-2.9730,-1.8238,-0.6618,0.7968,
8.404986,-0.2321,0.0739,-0.6731,0.6920,-1.9210,-2.9730,-0.1327,0.3293,-0.3301,
8.408412,-0.2321,0.0739,-0.6731,-6.7710,6.0600,-2.6660,-0.1327,0.3293,-0.3301,
8.423323,-0.2321,0.0739,-0.6731,-14.6470,13.1730,0.9070,-0.1327,0.3293,-0.3301,
8.445347,-0.6242,0.4355,-0.6515,-14.6470,13.1730,0.9070,-0.1327,0.3293,-0.3301,
8.447818,-1.3886,1.2454,-0.6219,-14.6470,13.1730,0.9070,-0.1327,0.3293,-0.3301,
8.449608,-2.1981,1.9581,-0.2717,-14.6470,13.1730,0.9070,-0.1327,0.3293,-0.3301,
8.451606,-1.2351,1.3495,-0.2263,-14.6470,13.1730,0.9070,-0.1327,0.3293,-0.3301,
8.453784,-1.2351,1.3495,-0.2263,-5.1420,7.3910,1.5290,-0.1327,0.3293,-0.3301,
8.463229,-1.2351,1.3495,-0.2263,-5.1420,7.3910,1.5290,-0.7638,-0.3877,-0.1722,
8.466079,-1.2351,1.3495,-0.2263,5.8110,-3.7530,-6.4210,-0.7638,-0.3877,-0.1722,
8.486597,-1.2351,1.3495,-0.2263,4.8360,-5.9990,-5.5710,-0.7638,-0.3877,-0.1722,
8.503891,-1.2351,1.3495,-0.2263,3.6210,2.2160,-0.1030,-0.7638,-0.3877,-0.1722,
8.526911,-0.1226,0.2106,-1.0282,3.6210,2.2160,-0.1030,-0.7638,-0.3877,-0.1722,
8.529180,-0.2224,-0.0026,-0.9118,3.6210,2.2160,-0.1030,-0.7638,-0.3877,-0.1722,
8.530686,-0.3439,0.8570,-0.3221,3.6210,2.2160,-0.1030,-0.7638,-0.3877,-0.1722,
8.532414,-0.8226,1.8248,0.4694,3.6210,2.2160,-0.1030,-0.7638,-0.3877,-0.1722,
8.534256,-0.8226,1.8248,0.4694,3.6210,2.2160,-0.1030,0.4682,-1.2897,-0.2971,
8.536002,-0.8226,1.8248,0.4694,-0.9930,11.6810,7.4340,0.4682,-1.2897,-0.2971,
8.544581,-0.8226,1.8248,0.4694,-2.7640,11.1290,9.9330,0.4682,-1.2897,-0.2971,
8.567495,-0.8226,1.8248,0.4694,1.9880,0.4640,0.9490,0.4682,-1.2897,-0.2971,
8.586934,-0.8226,1.8248,0.4694,8.3090,-3.8780,-1.5730,0.4682,-1.2897,-0.2971,
8.608844,-1.0047,1.7669,0.7255,8.3090,-3.8780,-1.5730,0.4682,-1.2897,-0.2971,
8.610938,-0.5091,0.6933,-0.1855,8.3090,-3.8780,-1.5730,0.4682,-1.2897,-0.2971,
8.612672,0.1472,0.2730,-0.4101,8.3090,-3.8780,-1.5730,0.4682,-1.2897,-0.2971,
8.614166,-0.1510,0.5718,0.4931,8.3090,-3.8780,-1.5730,0.4682,-1.2897,-0.2971,
8.615791,-0.1510,0.5718,0.4931,8.3090,-3.8780,-1.5730,-0.7128,-1.7407,1.5818,
8.617621,-0.1510,0.5718,0.4931,5.2550,-1.2070,6.9700,-0.7128,-1.7407,1.5818,
8.625278,-0.1510,0.5718,0.4931,0.9890,2.8100,9.3150,-0.7128,-1.7407,1.5818,
8.649041,-0.1510,0.5718,0.4931,-0.2950,2.8760,1.6310,-0.7128,-1.7407,1.5818,
8.665028,-0.1510,0.5718,0.4931,-0.2950,2.8760,1.6310,-1.7368,-1.8528,1.0398,
8.667138,-0.1510,0.5718,0.4931,-1.1520,-0.0330,-3.9580,-1.7368,-1.8528,1.0398,
8.688317,-0.5657,1.0088,0.7585,-1.1520,-0.0330,-3.9580,-1.7368,-1.8528,1.0398,
8.690387,-0.6848,1.0386,0.0272,-1.1520,-0.0330,-3.9580,-1.7368,-1.8528,1.0398,
8.692192,-0.7591,0.7598,-0.4998,-1.1520,-0.0330,-3.9580,-1.7368,-1.8528,1.0398,
8.693869,-0.7329,0.4727,0.0087,-1.1520,-0.0330,-3.9580,-1.7368,-1.8528,1.0398,
8.695483,-0.7329,0.4727,0.0087,-1.0440,-2.9890,0.7710,-1.7368,-1.8528,1.0398,
8.704867,-0.7329,0.4727,0.0087,1.1890,-3.0260,0.7550,-1.7368,-1.8528,1.0398,
8.729089,-0.7329,0.4727,0.0087,1.1890,-3.0260,0.7550,-1.1877,-0.6068,0.6808,
8.732883,-0.7329,0.4727,0.0087,2.3400,-2.8420,2.4610,-1.1877,-0.6068,0.6808,
8.747287,-0.7329,0.4727,0.0087,2.1090,-2.8290,1.9850,-1.1877,-0.6068,0.6808,
8.769819,-0.4944,0.4802,0.0341,2.1090,-2.8290,1.9850,-1.1877,-0.6068,0.6808,
8.773679,-0.3656,0.5081,0.2343,2.1090,-2.8290,1.9850,-1.1877,-0.6068,0.6808,
8.776872,-0.3788,0.5181,0.2145,2.1090,-2.8290,1.9850,-1.1877,-0.6068,0.6808,
8.779550,-0.4235,0.6584,0.0481,2.1090,-2.8290,1.9850,-1.1877,-0.6068,0.6808,
8.780782,-0.4235,0.6584,0.0481,1.5540,-1.5310,0.0790,-1.1877,-0.6068,0.6808,
8.786851,-0.4235,0.6584,0.0481,1.5540,-1.5310,0.0790,-0.8657,-0.7817,0.7849,
8.789069,-0.4235,0.6584,0.0481,0.1690,-0.7380,-1.4640,-0.8657,-0.7817,0.7849,
8.809922,-0.4235,0.6584,0.0481,-0.7880,-1.0740,-2.2350,-0.8657,-0.7817,0.7849,
8.827782,-0.4235,0.6584,0.0481,-0.6820,-1.8240,1.0080,-0.8657,-0.7817,0.7849,
8.850573,-0.5506,0.7468,-0.0872,-0.6820,-1.8240,1.0080,-0.8657,-0.7817,0.7849,
8.854630,-0.6347,0.7211,-0.1449,-0.6820,-1.8240,1.0080,-0.8657,-0.7817,0.7849,
8.858884,-0.6075,0.6522,0.2030,-0.6820,-1.8240,1.0080,-0.8657,-0.7817,0.7849,
8.862211,-0.5398,0.7094,0.2848,-0.6820,-1.8240,1.0080,-0.8657,-0.7817,0.7849,
8.864506,-0.5398,0.7094,0.2848,-0.1930,-1.3500,1.5860,-0.8657,-0.7817,0.7849,
8.868741,-0.5398,0.7094,0.2848,-0.1930,-1.3500,1.5860,-0.7868,-0.9078,1.0578,
8.870587,-0.5398,0.7094,0.2848,-0.0010,0.3410,-1.0910,-0.7868,-0.9078,1.0578,
8.890340,-0.5398,0.7094,0.2848,-0.8010,0.8790,-0.8580,-0.7868,-0.9078,1.0578,
8.909921,-0.5398,0.7094,0.2848,-2.4430,-1.1880,1.1370,-0.7868,-0.9078,1.0578,
8.931664,-0.4998,0.8922,0.0304,-2.4430,-1.1880,1.1370,-0.7868,-0.9078,1.0578,
8.935426,-0.5623,0.9550,0.0649,-2.4430,-1.1880,1.1370,-0.7868,-0.9078,1.0578,
8.938589,-0.7180,0.7493,0.2743,-2.4430,-1.1880,1.1370,-0.7868,-0.9078,1.0578,
8.941998,-0.8884,0.5909,0.3240,-2.4430,-1.1880,1.1370,-0.7868,-0.9078,1.0578,
8.945001,-0.8884,0.5909,0.3240,-2.4430,-1.1880,1.1370,-0.0528,-0.1427,0.2339,
8.947609,-0.8884,0.5909,0.3240,-4.1580,-2.7590,1.6120,-0.0528,-0.1427,0.2339,
8.948829,-0.8884,0.5909,0.3240,-5.2400,-3.5330,0.3240,-0.0528,-0.1427,0.2339,
8.971375,-0.8884,0.5909,0.3240,-5.0050,-1.7490,-0.0980,-0.0528,-0.1427,0.2339,
8.989585,-0.8884,0.5909,0.3240,-5.0050,-1.7490,-0.0980,0.6582,0.8353,-0.6802,
8.992801,-0.8884,0.5909,0.3240,-3.4150,2.9610,-0.1670,0.6582,0.8353,-0.6802,
9.012661,-1.0003,0.5124,0.1932,-3.4150,2.9610,-0.1670,0.6582,0.8353,-0.6802,
9.017445,-0.9807,0.6913,0.1507,-3.4150,2.9610,-0.1670,0.6582,0.8353,-0.6802,
9.021504,-0.8301,1.1684,0.1287,-3.4150,2.9610,-0.1670,0.6582,0.8353,-0.6802,
9.023349,-0.4792,1.2603,0.4073,-3.4150,2.9610,-0.1670,0.6582,0.8353,-0.6802,
9.025144,-0.4792,1.2603,0.4073,0.2310,3.9210,2.9290,0.6582,0.8353,-0.6802,
9.029786,-0.4792,1.2603,0.4073,-0.3340,0.9210,4.0210,0.6582,0.8353,-0.6802,
9.053029,-0.4792,1.2603,0.4073,-0.3340,0.9210,4.0210,1.8923,2.9612,-1.5902,
9.059402,-0.4792,1.2603,0.4073,-1.9070,0.4040,2.2460,1.8923,2.9612,-1.5902,
9.070603,-0.4792,1.2603,0.4073,-1.4420,3.4700,0.4510,1.8923,2.9612,-1.5902,
9.093528,-0.5655,0.9416,0.4664,-1.4420,3.4700,0.4510,1.8923,2.9612,-1.5902,
9.097774,-0.7544,0.8726,0.2222,-1.4420,3.4700,0.4510,1.8923,2.9612,-1.5902,
9.101445,-0.7293,1.1662,-0.0221,-1.4420,3.4700,0.4510,1.8923,2.9612,-1.5902,
9.104995,-0.7293,1.1662,-0.0221,-0.3810,7.1660,1.5220,1.8923,2.9612,-1.5902,
9.108331,-0.6405,1.5245,0.0400,-0.3810,7.1660,1.5220,1.8923,2.9612,-1.5902,
9.112102,-0.6405,1.5245,0.0400,0.8250,6.9960,5.3610,1.8923,2.9612,-1.5902,
9.133631,-0.6405,1.5245,0.0400,0.8250,6.9960,5.3610,3.1313,-0.1097,-1.7002,
9.136384,-0.6405,1.5245,0.0400,2.5360,5.4990,5.6790,3.1313,-0.1097,-1.7002,
9.152617,-0.6405,1.5245,0.0400,2.7290,4.4820,1.0900,3.1313,-0.1097,-1.7002,
9.174321,-0.5384,1.4802,0.3834,2.7290,4.4820,1.0900,3.1313,-0.1097,-1.7002,
9.178927,-0.3930,1.2938,0.3729,2.7290,4.4820,1.0900,3.1313,-0.1097,-1.7002,
9.182498,-0.3991,1.1540,-0.1296,2.7290,4.4820,1.0900,3.1313,-0.1097,-1.7002,
9.186327,-0.4614,0.9629,-0.5308,2.7290,4.4820,1.0900,3.1313,-0.1097,-1.7002,
9.190149,-0.4614,0.9629,-0.5308,2.2470,2.8370,-2.5550,3.1313,-0.1097,-1.7002,
9.193982,-0.4614,0.9629,-0.5308,2.2470,2.8370,-2.5550,0.0223,1.6833,-1.5382,
9.196336,-0.4614,0.9629,-0.5308,3.7870,1.2460,-1.3810,0.0223,1.6833,-1.5382,
9.214537,-0.4614,0.9629,-0.5308,4.9690,-1.5920,3.8150,0.0223,1.6833,-1.5382,
9.232318,-0.4614,0.9629,-0.5308,2.7640,-2.8570,4.7820,0.0223,1.6833,-1.5382,
9.255344,-0.3164,0.7781,-0.4357,2.7640,-2.8570,4.7820,0.0223,1.6833,-1.5382,
9.260212,-0.2087,0.4548,0.0600,2.7640,-2.8570,4.7820,0.0223,1.6833,-1.5382,
9.263199,-0.4380,0.2937,0.1128,2.7640,-2.8570,4.7820,0.0223,1.6833,-1.5382,
9.264630,-0.6493,0.3189,-0.0876,2.7640,-2.8570,4.7820,0.0223,1.6833,-1.5382,
9.265854,-0.6493,0.3189,-0.0876,2.7640,-2.8570,4.7820,-0.4907,3.4442,-1.6752,
9.267053,-0.6493,0.3189,-0.0876,0.6190,-2.4010,3.2740,-0.4907,3.4442,-1.6752,
9.274158,-0.6493,0.3189,-0.0876,3.3150,-1.0320,4.1610,-0.4907,3.4442,-1.6752,
9.295581,-0.6493,0.3189,-0.0876,6.2200,0.4330,5.1950,-0.4907,3.4442,-1.6752,
9.313526,-0.6493,0.3189,-0.0876,6.2200,0.4330,5.1950,-1.1428,0.2332,-0.0961,
9.316708,-0.6493,0.3189,-0.0876,7.7520,0.3850,3.7410,-1.1428,0.2332,-0.0961,
9.336088,-0.3661,0.4457,-0.0274,7.7520,0.3850,3.7410,-1.1428,0.2332,-0.0961,
9.338238,-0.0648,0.5902,0.0661,7.7520,0.3850,3.7410,-1.1428,0.2332,-0.0961,
9.339936,0.0952,0.5906,-0.0809,7.7520,0.3850,3.7410,-1.1428,0.2332,-0.0961,
9.342464,0.0308,0.4201,-0.4035,7.7520,0.3850,3.7410,-1.1428,0.2332,-0.0961,
9.344251,0.0308,0.4201,-0.4035,7.1260,-1.4360,0.3810,-1.1428,0.2332,-0.0961,
9.353724,0.0308,0.4201,-0.4035,4.4070,-4.0280,-2.2340,-1.1428,0.2332,-0.0961,
9.376520,0.0308,0.4201,-0.4035,2.3220,-5.1330,-2.2970,-1.1428,0.2332,-0.0961,
9.394467,0.0308,0.4201,-0.4035,2.3220,-5.1330,-2.2970,-1.4417,-0.4198,1.3229,
9.398404,0.0308,0.4201,-0.4035,0.4950,-2.2070,-2.8560,-1.4417,-0.4198,1.3229,
9.416926,-0.2458,0.1847,-0.6361,0.4950,-2.2070,-2.8560,-1.4417,-0.4198,1.3229,
9.419418,-0.4477,0.1029,-0.6098,0.4950,-2.2070,-2.8560,-1.4417,-0.4198,1.3229,
9.421305,-0.4477,0.1029,-0.6098,-3.9620,3.1070,-3.5950,-1.4417,-0.4198,1.3229,
9.423113,-0.6227,0.4254,-0.6454,-3.9620,3.1070,-3.5950,-1.4417,-0.4198,1.3229,
9.424925,-1.0746,0.9783,-0.7097,-3.9620,3.1070,-3.5950,-1.4417,-0.4198,1.3229,
9.435616,-1.0746,0.9783,-0.7097,-9.1590,10.4110,1.5030,-1.4417,-0.4198,1.3229,
9.457381,-1.0746,0.9783,-0.7097,-9.1590,10.4110,1.5030,0.2793,0.7422,-1.3412,
9.464365,-1.0746,0.9783,-0.7097,-3.2370,9.0580,2.3190,0.2793,0.7422,-1.3412,
9.475541,-1.0746,0.9783,-0.7097,2.4880,-3.6170,-5.1240,0.2793,0.7422,-1.3412,
9.497541,-1.6103,1.7156,-0.1943,2.4880,-3.6170,-5.1240,0.2793,0.7422,-1.3412,
9.500995,-1.0179,1.5592,-0.1223,2.4880,-3.6170,-5.1240,0.2793,0.7422,-1.3412,
9.503202,-0.4441,0.2602,-0.8700,2.4880,-3.6170,-5.1240,0.2793,0.7422,-1.3412,
9.504088,-0.5128,-0.2164,-0.7691,2.4880,-3.6170,-5.1240,0.2793,0.7422,-1.3412,
9.504877,-0.5128,-0.2164,-0.7691,1.8290,-8.4140,-4.4270,0.2793,0.7422,-1.3412,
9.515348,-0.5128,-0.2164,-0.7691,1.8290,-8.4140,-4.4270,-0.1217,-2.0688,1.0328,
9.519214,-0.5128,-0.2164,-0.7691,3.7500,0.8700,-0.4000,-0.1217,-2.0688,1.0328,
9.537692,-0.5128,-0.2164,-0.7691,0.9690,14.9210,8.2910,-0.1217,-2.0688,1.0328,
9.555558,-0.5128,-0.2164,-0.7691,-2.8760,14.5320,10.9750,-0.1217,-2.0688,1.0328,
9.578389,-0.3148,0.7483,-0.3274,-2.8760,14.5320,10.9750,-0.1217,-2.0688,1.0328,
9.581360,-0.6065,2.1794,0.5764,-2.8760,14.5320,10.9750,-0.1217,-2.0688,1.0328,
9.583691,-1.0022,2.1373,0.8518,-2.8760,14.5320,10.9750,-0.1217,-2.0688,1.0328,
9.585806,-0.6631,0.5173,-0.0075,-2.8760,14.5320,10.9750,-0.1217,-2.0688,1.0328,
9.587969,-0.6631,0.5173,-0.0075,-2.8760,14.5320,10.9750,-0.0327,-0.6728,1.1848,
9.589884,-0.6631,0.5173,-0.0075,0.3130,-1.4490,2.6380,-0.0327,-0.6728,1.1848,
9.596039,-0.6631,0.5173,-0.0075,7.7380,-4.2590,-2.4070,-0.0327,-0.6728,1.1848,
9.618435,-0.6631,0.5173,-0.0075,3.7450,0.7100,6.4460,-0.0327,-0.6728,1.1848,
9.636609,-0.6631,0.5173,-0.0075,-0.6390,3.6470,7.7520,-0.0327,-0.6728,1.1848,
9.660084,0.1040,0.2507,-0.4932,-0.6390,3.6470,7.7520,-0.0327,-0.6728,1.1848,
9.662762,-0.2940,0.7820,0.4503,-0.6390,3.6470,7.7520,-0.0327,-0.6728,1.1848,
9.665235,-0.7265,1.1072,0.6287,-0.6390,3.6470,7.7520,-0.0327,-0.6728,1.1848,
9.667776,-0.7549,0.9033,-0.0013,-0.6390,3.6470,7.7520,-0.0327,-0.6728,1.1848,
9.669818,-0.7549,0.9033,-0.0013,-0.6390,3.6470,7.7520,-1.7667,-2.6107,1.4549,
9.671509,-0.7549,0.9033,-0.0013,-1.0550,1.4240,0.9880,-1.7667,-2.6107,1.4549,
9.678557,-0.7549,0.9033,-0.0013,-1.1020,-2.4410,-1.1790,-1.7667,-2.6107,1.4549,
9.700289,-0.7549,0.9033,-0.0013,-0.9980,-3.7920,-1.0370,-1.7667,-2.6107,1.4549,
9.717940,-0.7549,0.9033,-0.0013,-0.9980,-3.7920,-1.0370,-1.5247,0.0192,0.8788,
9.719063,-0.7549,0.9033,-0.0013,1.3030,-2.5160,-0.1810,-1.5247,0.0192,0.8788,
9.740691,-0.7432,0.5261,-0.1929,1.3030,-2.5160,-0.1810,-1.5247,0.0192,0.8788,
9.744913,-0.7155,0.4040,-0.1520,1.3030,-2.5160,-0.1810,-1.5247,0.0192,0.8788,
9.748022,-0.4658,0.5459,-0.0406,1.3030,-2.5160,-0.1810,-1.5247,0.0192,0.8788,
9.752010,-0.3492,0.5736,0.2988,1.3030,-2.5160,-0.1810,-1.5247,0.0192,0.8788,
9.754867,-0.3492,0.5736,0.2988,2.3230,-2.3380,2.8890,-1.5247,0.0192,0.8788,
9.759946,-0.3492,0.5736,0.2988,3.5430,-2.6960,1.2550,-1.5247,0.0192,0.8788,
9.780784,-0.3492,0.5736,0.2988,3.5430,-2.6960,1.2550,-0.8478,-0.7498,0.7919,
9.783085,-0.3492,0.5736,0.2988,2.8230,-1.9200,-0.3310,-0.8478,-0.7498,0.7919,
9.798795,-0.3492,0.5736,0.2988,0.3280,-1.5870,-1.6990,-0.8478,-0.7498,0.7919,
9.822337,-0.2114,0.5457,0.1575,0.3280,-1.5870,-1.6990,-0.8478,-0.7498,0.7919,
9.824498,-0.2712,0.6337,0.0185,0.3280,-1.5870,-1.6990,-0.8478,-0.7498,0.7919,
9.827184,-0.5117,0.6750,-0.1012,0.3280,-1.5870,-1.6990,-0.8478,-0.7498,0.7919,
9.828832,-0.6645,0.6134,0.1143,0.3280,-1.5870,-1.6990,-0.8478,-0.7498,0.7919,
9.830429,-0.6645,0.6134,0.1143,-1.3170,-2.2650,0.2360,-0.8478,-0.7498,0.7919,
9.839620,-0.6645,0.6134,0.1143,-1.3170,-2.2650,0.2360,-0.7018,-0.8568,1.0458,
9.843277,-0.6645,0.6134,0.1143,-0.7280,-1.9290,1.4080,-0.7018,-0.8568,1.0458,
9.861816,-0.6645,0.6134,0.1143,-0.4260,-0.3250,-0.8710,-0.7018,-0.8568,1.0458,
9.880518,-0.6645,0.6134,0.1143,-0.6370,0.8570,-0.4510,-0.7018,-0.8568,1.0458,
9.902050,-0.5874,0.6571,0.2529,-0.6370,0.8570,-0.4510,-0.7018,-0.8568,1.0458,
9.906252,-0.5350,0.8306,0.0397,-0.6370,0.8570,-0.4510,-0.7018,-0.8568,1.0458,
9.909362,-0.5350,0.9606,0.0957,-0.6370,0.8570,-0.4510,-0.7018,-0.8568,1.0458,
9.912193,-0.6552,0.8693,0.2555,-0.6370,0.8570,-0.4510,-0.7018,-0.8568,1.0458,
9.913760,-0.6552,0.8693,0.2555,-1.9700,-0.1050,1.0280,-0.7018,-0.8568,1.0458,
9.920890,-0.6552,0.8693,0.2555,-1.9700,-0.1050,1.0280,-0.0177,-0.5427,0.4498,
9.923641,-0.6552,0.8693,0.2555,-4.2380,-2.1340,2.1740,-0.0177,-0.5427,0.4498,
9.942122,-0.6552,0.8693,0.2555,-5.0180,-3.5330,1.2410,-0.0177,-0.5427,0.4498,
9.961514,-0.6552,0.8693,0.2555,-5.5800,-2.4470,0.2990,-0.0177,-0.5427,0.4498,
9.982655,-0.8803,0.6647,0.3743,-5.5800,-2.4470,0.2990,-0.0177,-0.5427,0.4498,
9.986194,-0.9614,0.5219,0.2785,-5.5800,-2.4470,0.2990,-0.0177,-0.5427,0.4498,
9.988753,-1.0240,0.6298,0.1817,-5.5800,-2.4470,0.2990,-0.0177,-0.5427,0.4498,
9.991586,-1.0112,1.0526,0.2306,-5.5800,-2.4470,0.2990,-0.0177,-0.5427,0.4498,
9.994062,-1.0112,1.0526,0.2306,-5.5800,-2.4470,0.2990,0.3373,0.5533,-0.5592,
9.996112,-1.0112,1.0526,0.2306,-5.3350,1.7360,0.9030,0.3373,0.5533,-0.5592,
10.001910,-1.0112,1.0526,0.2306,-3.0980,3.6880,1.8670,0.3373,0.5533,-0.5592,
10.023360,-1.0112,1.0526,0.2306,-0.7970,2.1360,2.7020,0.3373,0.5533,-0.5592,
10.042694,-1.0112,1.0526,0.2306,-0.7970,2.1360,2.7020,2.2232,2.5832,-1.6482,
10.046878,-1.0112,1.0526,0.2306,-0.3200,2.0840,1.6650,2.2232,2.5832,-1.6482,
10.063623,-0.8062,1.2430,0.2963,-0.3200,2.0840,1.6650,2.2232,2.5832,-1.6482,
10.065727,-0.6034,1.0711,0.3303,-0.3200,2.0840,1.6650,2.2232,2.5832,-1.6482,
10.067592,-0.5846,1.0484,0.1602,-0.3200,2.0840,1.6650,2.2232,2.5832,-1.6482,
10.069242,-0.3670,1.2600,0.0097,-0.3200,2.0840,1.6650,2.2232,2.5832,-1.6482,
10.070845,-0.3670,1.2600,0.0097,2.0420,4.3420,0.7230,2.2232,2.5832,-1.6482,
10.084818,-0.3670,1.2600,0.0097,2.6140,6.7960,3.0970,2.2232,2.5832,-1.6482,
10.103886,-0.3670,1.2600,0.0097,2.6140,6.7960,3.0970,3.3443,-0.2618,-1.9361,
10.106986,-0.3670,1.2600,0.0097,2.8910,7.3560,6.1310,3.3443,-0.2618,-1.9361,
10.123442,-0.3670,1.2600,0.0097,1.8060,6.4120,2.9040,3.3443,-0.2618,-1.9361,
10.145379,-0.3329,1.4881,0.2037,1.8060,6.4120,2.9040,3.3443,-0.2618,-1.9361,
10.147570,-0.3334,1.5145,0.4652,1.8060,6.4120,2.9040,3.3443,-0.2618,-1.9361,
10.149153,-0.4746,1.3803,0.0933,1.8060,6.4120,2.9040,3.3443,-0.2618,-1.9361,
10.150889,-0.6848,1.2200,-0.4529,1.8060,6.4120,2.9040,3.3443,-0.2618,-1.9361,
10.152658,-0.6848,1.2200,-0.4529,-0.0360,5.1340,-2.1100,3.3443,-0.2618,-1.9361,
10.163966,-0.6848,1.2200,-0.4529,1.4820,2.8890,-0.9580,3.3443,-0.2618,-1.9361,
10.184939,-0.6848,1.2200,-0.4529,1.4820,2.8890,-0.9580,0.7593,1.3062,-1.9202,
10.187608,-0.6848,1.2200,-0.4529,4.3530,0.6600,2.1170,0.7593,1.3062,-1.9202,
10.204909,-0.6848,1.2200,-0.4529,3.3910,-0.5580,3.0720,0.7593,1.3062,-1.9202,
10.226422,-0.5452,0.9636,-0.3637,3.3910,-0.5580,3.0720,0.7593,1.3062,-1.9202,
10.230657,-0.2719,0.7031,-0.0799,3.3910,-0.5580,3.0720,0.7593,1.3062,-1.9202,
10.233850,-0.3847,0.5413,-0.0209,3.3910,-0.5580,3.0720,0.7593,1.3062,-1.9202,
10.237093,-0.5342,0.4609,-0.1161,3.3910,-0.5580,3.0720,0.7593,1.3062,-1.9202,
10.240264,-0.5342,0.4609,-0.1161,1.9420,-1.0470,2.5900,0.7593,1.3062,-1.9202,
10.245378,-0.5342,0.4609,-0.1161,1.9420,-1.0470,2.5900,-0.0807,2.9342,-1.6862,
10.246870,-0.5342,0.4609,-0.1161,3.0810,-1.8430,3.0150,-0.0807,2.9342,-1.6862,
10.267874,-0.5342,0.4609,-0.1161,4.7420,-2.3440,3.2990,-0.0807,2.9342,-1.6862,
10.287410,-0.5342,0.4609,-0.1161,6.3990,-2.5580,2.8180,-0.0807,2.9342,-1.6862,
10.306491,-0.4140,0.3567,-0.1134,6.3990,-2.5580,2.8180,-0.0807,2.9342,-1.6862,
10.311871,-0.2365,0.2930,-0.1112,6.3990,-2.5580,2.8180,-0.0807,2.9342,-1.6862,
10.315157,-0.0608,0.2700,-0.1733,6.3990,-2.5580,2.8180,-0.0807,2.9342,-1.6862,
10.317950,0.0389,0.2069,-0.3365,6.3990,-2.5580,2.8180,-0.0807,2.9342,-1.6862,
10.320919,0.0389,0.2069,-0.3365,6.3990,-2.5580,2.8180,-1.5088,0.7523,0.0598,
10.323976,0.0389,0.2069,-0.3365,7.2790,-3.3090,1.1790,-1.5088,0.7523,0.0598,
10.328186,0.0389,0.2069,-0.3365,5.9340,-4.2920,-1.1080,-1.5088,0.7523,0.0598,
10.347240,0.0389,0.2069,-0.3365,3.4630,-4.7590,-3.7820,-1.5088,0.7523,0.0598,
10.366730,0.0389,0.2069,-0.3365,3.4630,-4.7590,-3.7820,-1.0758,0.5093,0.2848,
10.369894,0.0389,0.2069,-0.3365,-0.4450,-2.7020,-2.7620,-1.0758,0.5093,0.2848,
10.387086,-0.0911,0.1307,-0.5533,-0.4450,-2.7020,-2.7620,-1.0758,0.5093,0.2848,
10.389338,-0.3316,0.1136,-0.8058,-0.4450,-2.7020,-2.7620,-1.0758,0.5093,0.2848,
10.390944,-0.7209,0.3426,-0.6885,-0.4450,-2.7020,-2.7620,-1.0758,0.5093,0.2848,
10.393569,-1.3730,0.8490,-0.3822,-0.4450,-2.7020,-2.7620,-1.0758,0.5093,0.2848,
10.395177,-1.3730,0.8490,-0.3822,-6.8970,2.2020,0.2580,-1.0758,0.5093,0.2848,
10.406322,-1.3730,0.8490,-0.3822,-10.7800,8.3150,1.3920,-1.0758,0.5093,0.2848,
10.428261,-1.3730,0.8490,-0.3822,-2.0550,9.4930,1.1430,-1.0758,0.5093,0.2848,
10.448057,-1.3730,0.8490,-0.3822,-2.0550,9.4930,1.1430,-0.2927,0.6392,-0.8532,
10.452452,-1.3730,0.8490,-0.3822,6.8310,2.3250,-4.4890,-0.2927,0.6392,-0.8532,
10.470133,-1.7654,1.4693,-0.2764,6.8310,2.3250,-4.4890,-0.2927,0.6392,-0.8532,
10.472514,-0.8773,1.5778,-0.3148,6.8310,2.3250,-4.4890,-0.2927,0.6392,-0.8532,
10.474023,0.0247,0.8441,-0.8830,6.8310,2.3250,-4.4890,-0.2927,0.6392,-0.8532,
10.475726,-0.2432,0.3981,-0.9583,6.8310,2.3250,-4.4890,-0.2927,0.6392,-0.8532,
10.477265,-0.2432,0.3981,-0.9583,4.2950,-2.1670,-5.5130,-0.2927,0.6392,-0.8532,
10.488373,-0.2432,0.3981,-0.9583,-1.0540,7.3430,3.1690,-0.2927,0.6392,-0.8532,
10.509601,-0.2432,0.3981,-0.9583,-1.0540,7.3430,3.1690,0.2472,-2.0838,-1.0522,
10.513753,-0.2432,0.3981,-0.9583,-1.0730,13.6460,10.2680,0.2472,-2.0838,-1.0522,
10.529186,-0.2432,0.3981,-0.9583,-1.2650,-0.2640,6.3800,0.2472,-2.0838,-1.0522,
10.549962,-0.7992,1.3717,-0.0482,-1.2650,-0.2640,6.3800,0.2472,-2.0838,-1.0522,
10.554126,-0.8269,2.0000,0.7057,-1.2650,-0.2640,6.3800,0.2472,-2.0838,-1.0522,
10.557591,-0.8439,0.5867,0.3130,-1.2650,-0.2640,6.3800,0.2472,-2.0838,-1.0522,
10.560962,-0.1046,0.1437,-0.1224,-1.2650,-0.2640,6.3800,0.2472,-2.0838,-1.0522,
10.563940,-0.1046,0.1437,-0.1224,5.8410,-4.8360,1.9850,0.2472,-2.0838,-1.0522,
10.569221,-0.1046,0.1437,-0.1224,5.8410,-4.8360,1.9850,-0.5307,-2.8288,1.9128,
10.570935,-0.1046,0.1437,-0.1224,8.9900,0.6540,-0.1720,-0.5307,-2.8288,1.9128,
10.590114,-0.1046,0.1437,-0.1224,1.9600,5.8640,7.4190,-0.5307,-2.8288,1.9128,
10.610678,-0.1046,0.1437,-0.1224,-0.0380,5.4130,6.4450,-0.5307,-2.8288,1.9128,
10.630985,0.2255,0.7329,-0.2992,-0.0380,5.4130,6.4450,-0.5307,-2.8288,1.9128,
10.634488,-0.4788,1.2943,0.5178,-0.0380,5.4130,6.4450,-0.5307,-2.8288,1.9128,
10.637996,-0.6687,1.2761,0.4684,-0.0380,5.4130,6.4450,-0.5307,-2.8288,1.9128,
10.640650,-0.6687,1.2761,0.4684,-0.0380,5.4130,6.4450,-0.9967,-1.8767,1.4329,
10.644517,-0.6687,1.2761,0.4684,-0.4610,0.1990,-1.1880,-0.9967,-1.8767,1.4329,
10.646972,-0.6999,0.7686,-0.2571,-0.4610,0.1990,-1.1880,-0.9967,-1.8767,1.4329,
10.649780,-0.6999,0.7686,-0.2571,-0.9160,-4.0190,-0.1540,-0.9967,-1.8767,1.4329,
10.671139,-0.6999,0.7686,-0.2571,-0.8700,-3.7810,-0.2090,-0.9967,-1.8767,1.4329,
10.690179,-0.6999,0.7686,-0.2571,0.8590,-3.0980,1.8880,-0.9967,-1.8767,1.4329,
10.712313,-0.7265,0.3592,-0.1210,0.8590,-3.0980,1.8880,-0.9967,-1.8767,1.4329,
10.716793,-0.7027,0.4017,-0.0948,0.8590,-3.0980,1.8880,-0.9967,-1.8767,1.4329,
10.720318,-0.5112,0.4851,0.1465,0.8590,-3.0980,1.8880,-0.9967,-1.8767,1.4329,
10.724017,-0.4469,0.4347,0.2279,0.8590,-3.0980,1.8880,-0.9967,-1.8767,1.4329,
10.728725,-0.4469,0.4347,0.2279,0.8590,-3.0980,1.8880,-1.3937,-0.3938,0.8368,
10.731481,-0.4469,0.4347,0.2279,1.3640,-3.7020,2.3930,-1.3937,-0.3938,0.8368,
10.732807,-0.4469,0.4347,0.2279,1.7650,-3.4720,0.5140,-1.3937,-0.3938,0.8368,
10.752108,-0.4469,0.4347,0.2279,1.0540,-1.6230,-0.6540,-1.3937,-0.3938,0.8368,
10.772145,-0.4469,0.4347,0.2279,1.0540,-1.6230,-0.6540,-0.8287,-0.6628,0.5908,
10.773874,-0.4469,0.4347,0.2279,-0.3250,-0.2220,-2.2690,-0.8287,-0.6628,0.5908,
10.793244,-0.3944,0.4667,0.0637,-0.3250,-0.2220,-2.2690,-0.8287,-0.6628,0.5908,
10.797624,-0.4546,0.6626,-0.0345,-0.3250,-0.2220,-2.2690,-0.8287,-0.6628,0.5908,
10.801221,-0.5858,0.8104,-0.1787,-0.3250,-0.2220,-2.2690,-0.8287,-0.6628,0.5908,
10.805044,-0.6232,0.7425,0.2215,-0.3250,-0.2220,-2.2690,-0.8287,-0.6628,0.5908,
10.809897,-0.6232,0.7425,0.2215,-0.7820,-0.9370,1.4940,-0.8287,-0.6628,0.5908,
10.813601,-0.6232,0.7425,0.2215,0.1960,-2.1880,2.9540,-0.8287,-0.6628,0.5908,
10.833088,-0.6232,0.7425,0.2215,0.1960,-2.1880,2.9540,-0.8448,-0.5698,0.8469,
10.835877,-0.6232,0.7425,0.2215,0.4570,-1.0690,-0.7560,-0.8448,-0.5698,0.8469,
10.853092,-0.6232,0.7425,0.2215,-1.0250,0.5660,-1.0460,-0.8448,-0.5698,0.8469,
10.874037,-0.5123,0.6212,0.3906,-1.0250,0.5660,-1.0460,-0.8448,-0.5698,0.8469,
10.878888,-0.4709,0.7421,0.0339,-1.0250,0.5660,-1.0460,-0.8448,-0.5698,0.8469,
10.882772,-0.6083,0.9138,0.0243,-1.0250,0.5660,-1.0460,-0.8448,-0.5698,0.8469,
10.886232,-0.7390,0.8172,0.2580,-1.0250,0.5660,-1.0460,-0.8448,-0.5698,0.8469,
10.889661,-0.7390,0.8172,0.2580,-2.4150,-0.4100,1.0760,-0.8448,-0.5698,0.8469,
10.894896,-0.7390,0.8172,0.2580,-2.4150,-0.4100,1.0760,-0.0608,-0.4627,0.1539,
10.896647,-0.7390,0.8172,0.2580,-2.2900,-0.2070,2.6710,-0.0608,-0.4627,0.1539,
10.913889,-0.7390,0.8172,0.2580,-2.4180,1.3170,1.7190,-0.0608,-0.4627,0.1539,
10.933544,-0.7390,0.8172,0.2580,-2.6400,2.3930,1.5510,-0.0608,-0.4627,0.1539,
10.954418,-0.7204,0.8397,0.4291,-2.6400,2.3930,1.5510,-0.0608,-0.4627,0.1539,
10.956634,-0.7305,0.9968,0.3342,-2.6400,2.3930,1.5510,-0.0608,-0.4627,0.1539,
10.958407,-0.7507,1.1090,0.3142,-2.6400,2.3930,1.5510,-0.0608,-0.4627,0.1539,
10.960425,-0.7507,1.1090,0.3142,-2.9390,2.1060,1.7900,-0.0608,-0.4627,0.1539,
10.961973,-0.7877,1.0774,0.3284,-2.9390,2.1060,1.7900,-0.0608,-0.4627,0.1539,
10.973783,-0.7877,1.0774,0.3284,-2.9390,2.1060,1.7900,0.5452,0.5122,-0.6182,
10.979164,-0.7877,1.0774,0.3284,-4.6090,0.7660,1.4110,0.5452,0.5122,-0.6182,
10.994888,-0.7877,1.0774,0.3284,-6.4270,1.2670,-0.5770,0.5452,0.5122,-0.6182,
11.014629,-0.7877,1.0774,0.3284,-1.5370,1.8620,0.5110,0.5452,0.5122,-0.6182,
11.035574,-0.9707,0.9357,0.2748,-1.5370,1.8620,0.5110,0.5452,0.5122,-0.6182,
11.038032,-1.1726,0.9812,0.0390,-1.5370,1.8620,0.5110,0.5452,0.5122,-0.6182,
11.039798,-0.6953,1.0328,0.0964,-1.5370,1.8620,0.5110,0.5452,0.5122,-0.6182,
11.041336,-0.3979,0.9944,0.2350,-1.5370,1.8620,0.5110,0.5452,0.5122,-0.6182,
11.043146,-0.3979,0.9944,0.2350,-1.5370,1.8620,0.5110,2.3552,1.7633,-1.2922,
11.044775,-0.3979,0.9944,0.2350,1.5900,1.6110,2.4470,2.3552,1.7633,-1.2922,
11.054787,-0.3979,0.9944,0.2350,0.6820,2.9760,4.3440,2.3552,1.7633,-1.2922,
11.075999,-0.3979,0.9944,0.2350,1.6220,5.4040,4.6040,2.3552,1.7633,-1.2922,
11.095613,-0.3979,0.9944,0.2350,1.6220,5.4040,4.6040,2.4742,0.5273,-1.5522,
11.099717,-0.3979,0.9944,0.2350,3.2980,7.6000,2.5500,2.4742,0.5273,-1.5522,
11.116609,-0.5098,1.1175,0.3741,3.2980,7.6000,2.5500,2.4742,0.5273,-1.5522,
11.119208,-0.4326,1.3463,0.3538,3.2980,7.6000,2.5500,2.4742,0.5273,-1.5522,
11.120896,-0.2845,1.5450,0.0991,3.2980,7.6000,2.5500,2.4742,0.5273,-1.5522,
11.122646,-0.2742,1.5203,-0.2417,3.2980,7.6000,2.5500,2.4742,0.5273,-1.5522,
11.124363,-0.2742,1.5203,-0.2417,3.6300,7.6430,-0.3960,2.4742,0.5273,-1.5522,
11.136698,-0.2742,1.5203,-0.2417,1.6070,5.0870,0.2840,2.4742,0.5273,-1.5522,
11.157590,-0.2742,1.5203,-0.2417,1.6070,5.0870,0.2840,1.1363,0.6692,-1.1301,
11.162685,-0.2742,1.5203,-0.2417,1.7750,2.2760,2.5760,1.1363,0.6692,-1.1301,
11.176646,-0.2742,1.5203,-0.2417,5.6120,0.2430,2.0050,1.1363,0.6692,-1.1301,
11.197679,-0.5002,1.2334,-0.2014,5.6120,0.2430,2.0050,1.1363,0.6692,-1.1301,
11.201480,-0.4942,0.9264,0.0072,5.6120,0.2430,2.0050,1.1363,0.6692,-1.1301,
11.204664,-0.1244,0.6887,-0.0736,5.6120,0.2430,2.0050,1.1363,0.6692,-1.1301,
11.207618,-0.1882,0.4995,-0.1862,5.6120,0.2430,2.0050,1.1363,0.6692,-1.1301,
11.210654,-0.1882,0.4995,-0.1862,5.2730,-1.1730,1.1580,1.1363,0.6692,-1.1301,
11.216572,-0.1882,0.4995,-0.1862,-0.3540,-1.7740,1.0970,1.1363,0.6692,-1.1301,
11.237501,-0.1882,0.4995,-0.1862,-0.3540,-1.7740,1.0970,0.3273,2.8563,-2.2862,
11.239170,-0.1882,0.4995,-0.1862,0.0960,-2.4470,1.7020,0.3273,2.8563,-2.2862,
11.257550,-0.1882,0.4995,-0.1862,3.8450,-2.2970,3.3100,0.3273,2.8563,-2.2862,
11.278863,-0.7786,0.3968,-0.2309,3.8450,-2.2970,3.3100,0.3273,2.8563,-2.2862,
11.281079,-0.7365,0.2942,-0.2158,3.8450,-2.2970,3.3100,0.3273,2.8563,-2.2862,
11.282798,-0.3511,0.2808,-0.0919,3.8450,-2.2970,3.3100,0.3273,2.8563,-2.2862,
11.284581,-0.1591,0.2668,-0.0836,3.8450,-2.2970,3.3100,0.3273,2.8563,-2.2862,
11.286121,-0.1591,0.2668,-0.0836,5.6690,-2.2600,3.6960,0.3273,2.8563,-2.2862,
11.297804,-0.1591,0.2668,-0.0836,5.6690,-2.2600,3.6960,-0.3407,1.8342,-1.0372,
11.300788,-0.1591,0.2668,-0.0836,6.9500,-1.9960,2.5980,-0.3407,1.8342,-1.0372,
11.318770,-0.1591,0.2668,-0.0836,6.5500,-1.1940,1.8050,-0.3407,1.8342,-1.0372,
11.338012,-0.1591,0.2668,-0.0836,4.1410,-0.7990,1.0280,-0.3407,1.8342,-1.0372,
11.359412,-0.0215,0.2817,-0.2190,4.1410,-0.7990,1.0280,-0.3407,1.8342,-1.0372,
11.363506,-0.0582,0.3546,-0.3146,4.1410,-0.7990,1.0280,-0.3407,1.8342,-1.0372,
11.366737,-0.3020,0.3891,-0.4028,4.1410,-0.7990,1.0280,-0.3407,1.8342,-1.0372,
11.370076,-0.5895,0.3746,-0.6132,4.1410,-0.7990,1.0280,-0.3407,1.8342,-1.0372,
11.373425,-0.5895,0.3746,-0.6132,4.1410,-0.7990,1.0280,-0.3178,0.6402,-0.7542,
11.377964,-0.5895,0.3746,-0.6132,1.3250,-0.8610,-0.9790,-0.3178,0.6402,-0.7542,
11.381275,-0.5895,0.3746,-0.6132,-2.0580,-1.3850,-2.0530,-0.3178,0.6402,-0.7542,
11.399791,-0.5895,0.3746,-0.6132,-4.2070,-2.0120,-2.0210,-0.3178,0.6402,-0.7542,
11.419325,-0.5895,0.3746,-0.6132,-4.2070,-2.0120,-2.0210,-0.9958,0.3762,0.0518,
11.420881,-0.5895,0.3746,-0.6132,-3.9560,-2.2400,-1.8450,-0.9958,0.3762,0.0518,
11.440568,-0.9333,0.3167,-0.7307,-3.9560,-2.2400,-1.8450,-0.9958,0.3762,0.0518,
11.443879,-1.1471,0.2541,-0.7330,-3.9560,-2.2400,-1.8450,-0.9958,0.3762,0.0518,
11.445509,-1.1163,0.2402,-0.7137,-3.9560,-2.2400,-1.8450,-0.9958,0.3762,0.0518,
11.447098,-0.8663,0.3870,-0.5201,-3.9560,-2.2400,-1.8450,-0.9958,0.3762,0.0518,
11.448672,-0.8663,0.3870,-0.5201,-1.5130,-0.8740,-0.0100,-0.9958,0.3762,0.0518,
11.459901,-0.8663,0.3870,-0.5201,1.5500,0.5230,-0.3230,-0.9958,0.3762,0.0518,
11.481299,-0.8663,0.3870,-0.5201,0.5650,3.4560,-1.3930,-0.9958,0.3762,0.0518,
11.500440,-0.8663,0.3870,-0.5201,0.5650,3.4560,-1.3930,-0.4338,-1.8557,0.7758,
11.502889,-0.8663,0.3870,-0.5201,0.3690,14.3480,-0.4660,-0.4338,-1.8557,0.7758,
11.521221,-0.5660,0.5308,-0.5343,0.3690,14.3480,-0.4660,-0.4338,-1.8557,0.7758,
11.523381,-0.6789,0.8407,-0.6154,0.3690,14.3480,-0.4660,-0.4338,-1.8557,0.7758,
11.526147,-0.7153,1.9612,-0.4834,0.3690,14.3480,-0.4660,-0.4338,-1.8557,0.7758,
11.527886,-0.5252,1.2183,-0.2547,0.3690,14.3480,-0.4660,-0.4338,-1.8557,0.7758,
11.529493,-0.5252,1.2183,-0.2547,2.3700,6.9130,1.3350,-0.4338,-1.8557,0.7758,
11.540515,-0.5252,1.2183,-0.2547,0.0180,-3.7390,5.6350,-0.4338,-1.8557,0.7758,
11.562269,-0.5252,1.2183,-0.2547,0.0180,-3.7390,5.6350,-0.2648,-2.2708,1.9188,
11.566726,-0.5252,1.2183,-0.2547,2.5420,0.6490,6.4350,-0.2648,-2.2708,1.9188,
11.580465,-0.5252,1.2183,-0.2547,1.6800,7.6330,4.1570,-0.2648,-2.2708,1.9188,
11.603191,-0.7679,0.1605,0.2338,1.6800,7.6330,4.1570,-0.2648,-2.2708,1.9188,
11.607592,-0.5035,0.6391,0.3522,1.6800,7.6330,4.1570,-0.2648,-2.2708,1.9188,
11.612083,-0.5035,0.6391,0.3522,-0.5630,7.3730,-0.2940,-0.2648,-2.2708,1.9188,
11.615671,-0.5829,1.3768,0.1483,-0.5630,7.3730,-0.2940,-0.2648,-2.2708,1.9188,
11.618156,-0.7994,1.3784,-0.2773,-0.5630,7.3730,-0.2940,-0.2648,-2.2708,1.9188,
11.620708,-0.7994,1.3784,-0.2773,-0.5630,7.3730,-0.2940,-0.6918,-1.9277,1.7269,
11.622139,-0.7994,1.3784,-0.2773,0.7590,1.9720,1.6290,-0.6918,-1.9277,1.7269,
11.643905,-0.7994,1.3784,-0.2773,3.0270,-0.6000,2.5090,-0.6918,-1.9277,1.7269,
11.661143,-0.7994,1.3784,-0.2773,2.4700,-1.4800,1.8380,-0.6918,-1.9277,1.7269,
11.684416,-0.6515,0.8560,-0.0450,2.4700,-1.4800,1.8380,-0.6918,-1.9277,1.7269,
11.688409,-0.4061,0.6190,0.0881,2.4700,-1.4800,1.8380,-0.6918,-1.9277,1.7269,
11.691937,-0.4450,0.5564,0.0623,2.4700,-1.4800,1.8380,-0.6918,-1.9277,1.7269,
11.695067,-0.6121,0.4953,0.0121,2.4700,-1.4800,1.8380,-0.6918,-1.9277,1.7269,
11.698093,-0.6121,0.4953,0.0121,2.4700,-1.4800,1.8380,-1.2537,-1.5177,1.8668,
11.700378,-0.6121,0.4953,0.0121,0.6050,-2.3550,0.9600,-1.2537,-1.5177,1.8668,
11.701577,-0.6121,0.4953,0.0121,-0.1400,-2.7780,-0.4590,-1.2537,-1.5177,1.8668,
11.724014,-0.6121,0.4953,0.0121,-0.8080,-3.1740,0.1420,-1.2537,-1.5177,1.8668,
11.742315,-0.6121,0.4953,0.0121,0.2740,-3.7600,0.8270,-1.2537,-1.5177,1.8668,
11.764973,-0.6640,0.4778,-0.0990,0.2740,-3.7600,0.8270,-1.2537,-1.5177,1.8668,
11.768549,-0.7078,0.4585,-0.0099,0.2740,-3.7600,0.8270,-1.2537,-1.5177,1.8668,
11.770277,-0.5746,0.4159,0.0903,0.2740,-3.7600,0.8270,-1.2537,-1.5177,1.8668,
11.771937,-0.2991,0.4496,0.0586,0.2740,-3.7600,0.8270,-1.2537,-1.5177,1.8668,
11.773481,-0.2991,0.4496,0.0586,0.2740,-3.7600,0.8270,-1.2268,-0.7718,1.3798,
11.775190,-0.2991,0.4496,0.0586,2.7640,-3.5790,0.2610,-1.2268,-0.7718,1.3798,
11.783395,-0.2991,0.4496,0.0586,3.5710,-2.4470,-0.1130,-1.2268,-0.7718,1.3798,
11.805038,-0.2991,0.4496,0.0586,2.2830,-2.4530,-0.1020,-1.2268,-0.7718,1.3798,
11.823354,-0.2991,0.4496,0.0586,2.2830,-2.4530,-0.1020,-1.0148,-0.5748,0.9349,
11.828954,-0.2991,0.4496,0.0586,1.2840,-1.3290,0.9620,-1.0148,-0.5748,0.9349,
11.846149,-0.1989,0.5757,0.0470,1.2840,-1.3290,0.9620,-1.0148,-0.5748,0.9349,
11.850493,-0.3115,0.5860,0.0749,1.2840,-1.3290,0.9620,-1.0148,-0.5748,0.9349,
11.854193,-0.3977,0.7074,0.2056,1.2840,-1.3290,0.9620,-1.0148,-0.5748,0.9349,
11.857873,-0.5168,0.8180,0.2529,1.2840,-1.3290,0.9620,-1.0148,-0.5748,0.9349,
11.861332,-0.5168,0.8180,0.2529,0.0290,-0.2940,1.2880,-1.0148,-0.5748,0.9349,
11.864411,-0.5168,0.8180,0.2529,-1.6390,-1.0510,1.8690,-1.0148,-0.5748,0.9349,
11.886769,-0.5168,0.8180,0.2529,-1.6390,-1.0510,1.8690,-0.6178,-0.2087,0.6978,
11.888738,-0.5168,0.8180,0.2529,-2.6150,-0.5690,0.2290,-0.6178,-0.2087,0.6978,
11.904425,-0.5168,0.8180,0.2529,-2.8130,0.1320,-0.3710,-0.6178,-0.2087,0.6978,
11.927797,-0.6776,0.7441,0.3247,-2.8130,0.1320,-0.3710,-0.6178,-0.2087,0.6978,
11.932262,-0.6776,0.7441,0.3247,-3.4120,0.2580,2.3230,-0.6178,-0.2087,0.6978,
11.935640,-0.7652,0.7979,0.1700,-3.4120,0.2580,2.3230,-0.6178,-0.2087,0.6978,
11.939481,-0.7740,0.8754,0.1206,-3.4120,0.2580,2.3230,-0.6178,-0.2087,0.6978,
11.943569,-0.8253,0.8915,0.4039,-3.4120,0.2580,2.3230,-0.6178,-0.2087,0.6978,
11.948006,-0.8253,0.8915,0.4039,-3.4120,0.2580,2.3230,0.2412,-0.7758,0.3138,
11.950347,-0.8253,0.8915,0.4039,-3.7180,1.4050,2.1410,0.2412,-0.7758,0.3138,
11.967672,-0.8253,0.8915,0.4039,-3.2430,2.3140,0.0300,0.2412,-0.7758,0.3138,
11.986760,-0.8253,0.8915,0.4039,-3.5590,1.6920,0.4860,0.2412,-0.7758,0.3138,
12.007555,-0.8465,1.0122,0.3899,-3.5590,1.6920,0.4860,0.2412,-0.7758,0.3138,
12.009877,-0.7928,1.1090,0.1751,-3.5590,1.6920,0.4860,0.2412,-0.7758,0.3138,
12.011526,-0.8234,1.0469,0.2135,-3.5590,1.6920,0.4860,0.2412,-0.7758,0.3138,
12.013090,-0.8791,0.8996,0.2206,-3.5590,1.6920,0.4860,0.2412,-0.7758,0.3138,
12.014577,-0.8791,0.8996,0.2206,-4.0470,0.2490,0.7230,0.2412,-0.7758,0.3138,
12.026714,-0.8791,0.8996,0.2206,-4.0470,0.2490,0.7230,0.8443,0.8913,-0.6791,
12.031545,-0.8791,0.8996,0.2206,-4.0260,-0.9420,1.1450,0.8443,0.8913,-0.6791,
12.047583,-0.8791,0.8996,0.2206,-3.9270,-0.8910,1.2010,0.8443,0.8913,-0.6791,
12.065747,-0.8791,0.8996,0.2206,0.5360,0.5130,1.3610,0.8443,0.8913,-0.6791,
12.088055,-0.8961,0.7720,0.2369,0.5360,0.5130,1.3610,0.8443,0.8913,-0.6791,
12.091145,-0.9126,0.7671,0.2020,0.5360,0.5130,1.3610,0.8443,0.8913,-0.6791,
12.092873,-0.4875,0.8942,0.1678,0.5360,0.5130,1.3610,0.8443,0.8913,-0.6791,
12.094560,-0.2950,1.1836,0.2350,0.5360,0.5130,1.3610,0.8443,0.8913,-0.6791,
12.096051,-0.2950,1.1836,0.2350,0.5360,0.5130,1.3610,2.3522,1.5243,-1.6882,
12.097711,-0.2950,1.1836,0.2350,2.6850,3.5260,2.5770,2.3522,1.5243,-1.6882,
12.106212,-0.2950,1.1836,0.2350,1.7770,6.6350,4.6840,2.3522,1.5243,-1.6882,
12.129311,-0.2950,1.1836,0.2350,3.6590,8.6490,2.2920,2.3522,1.5243,-1.6882,
12.147349,-0.2950,1.1836,0.2350,3.6590,8.6490,2.2920,2.3082,-0.3117,-1.7891,
12.151555,-0.2950,1.1836,0.2350,4.7790,9.1120,0.1700,2.3082,-0.3117,-1.7891,
12.170778,-0.4101,1.4812,0.3970,4.7790,9.1120,0.1700,2.3082,-0.3117,-1.7891,
12.173026,-0.2441,1.6620,0.1111,4.7790,9.1120,0.1700,2.3082,-0.3117,-1.7891,
12.174665,-0.1571,1.6794,-0.1400,4.7790,9.1120,0.1700,2.3082,-0.3117,-1.7891,
12.177204,-0.5083,1.3272,-0.1337,4.7790,9.1120,0.1700,2.3082,-0.3117,-1.7891,
12.178798,-0.5083,1.3272,-0.1337,1.5740,5.9240,0.5220,2.3082,-0.3117,-1.7891,
12.188521,-0.5083,1.3272,-0.1337,1.1320,2.1890,1.4120,2.3082,-0.3117,-1.7891,
12.210869,-0.5083,1.3272,-0.1337,1.1320,2.1890,1.4120,0.4773,1.2262,-2.4652,
12.215583,-0.5083,1.3272,-0.1337,4.1870,0.6800,-0.1970,0.4773,1.2262,-2.4652,
12.228247,-0.5083,1.3272,-0.1337,4.1760,-0.3650,0.8270,0.4773,1.2262,-2.4652,
12.251585,-0.5709,0.9201,-0.0716,4.1760,-0.3650,0.8270,0.4773,1.2262,-2.4652,
12.256602,-0.2812,0.7353,-0.2593,4.1760,-0.3650,0.8270,0.4773,1.2262,-2.4652,
12.260788,-0.3108,0.5867,-0.1818,4.1760,-0.3650,0.8270,0.4773,1.2262,-2.4652,
12.264607,-0.7283,0.4137,-0.0413,4.1760,-0.3650,0.8270,0.4773,1.2262,-2.4652,
12.267803,-0.7283,0.4137,-0.0413,0.2650,-1.6860,2.5580,0.4773,1.2262,-2.4652,
12.269430,-0.7283,0.4137,-0.0413,1.5230,-2.8640,2.4030,0.4773,1.2262,-2.4652,
12.290991,-0.7283,0.4137,-0.0413,1.5230,-2.8640,2.4030,-0.3138,3.0262,-1.9541,
12.292987,-0.7283,0.4137,-0.0413,4.3250,-3.2580,2.5740,-0.3138,3.0262,-1.9541,
12.309676,-0.7283,0.4137,-0.0413,5.4690,-3.1130,2.7930,-0.3138,3.0262,-1.9541,
12.331147,-0.6041,0.2622,-0.1002,5.4690,-3.1130,2.7930,-0.3138,3.0262,-1.9541,
12.333743,-0.3174,0.1967,-0.1214,5.4690,-3.1130,2.7930,-0.3138,3.0262,-1.9541,
12.336204,-0.1976,0.1955,-0.1251,5.4690,-3.1130,2.7930,-0.3138,3.0262,-1.9541,
12.338682,-0.1090,0.2367,-0.0550,5.4690,-3.1130,2.7930,-0.3138,3.0262,-1.9541,
12.340941,-0.1090,0.2367,-0.0550,6.3000,-2.6460,3.6310,-0.3138,3.0262,-1.9541,
12.348655,-0.1090,0.2367,-0.0550,6.3000,-2.6460,3.6310,-0.8698,0.8293,-0.3151,
12.351602,-0.1090,0.2367,-0.0550,7.7480,-1.8920,3.8590,-0.8698,0.8293,-0.3151,
12.371482,-0.1090,0.2367,-0.0550,7.2900,-1.7560,2.0380,-0.8698,0.8293,-0.3151,
12.389673,-0.1090,0.2367,-0.0550,5.3140,-2.5120,-0.7200,-0.8698,0.8293,-0.3151,
12.412601,0.0443,0.3180,-0.0335,5.3140,-2.5120,-0.7200,-0.8698,0.8293,-0.3151,
12.415981,-0.0005,0.3458,-0.2097,5.3140,-2.5120,-0.7200,-0.8698,0.8293,-0.3151,
12.418131,-0.1987,0.2930,-0.4663,5.3140,-2.5120,-0.7200,-0.8698,0.8293,-0.3151,
12.419521,-0.3639,0.2485,-0.6487,5.3140,-2.5120,-0.7200,-0.8698,0.8293,-0.3151,
12.420755,-0.3639,0.2485,-0.6487,5.3140,-2.5120,-0.7200,-1.4987,-0.7067,1.1168,
12.422051,-0.3639,0.2485,-0.6487,3.6260,-3.2200,-2.7790,-1.4987,-0.7067,1.1168,
12.430081,-0.3639,0.2485,-0.6487,0.9680,-1.6470,-3.1700,-1.4987,-0.7067,1.1168,
12.452999,-0.3639,0.2485,-0.6487,-5.7400,2.3270,-2.1700,-1.4987,-0.7067,1.1168,
12.470752,-0.3639,0.2485,-0.6487,-5.7400,2.3270,-2.1700,-0.1268,0.4932,-0.3502,
12.473030,-0.3639,0.2485,-0.6487,-12.1600,7.2960,1.7430,-0.1268,0.4932,-0.3502,
12.493502,-0.6291,0.4277,-0.6692,-12.1600,7.2960,1.7430,-0.1268,0.4932,-0.3502,
12.497144,-1.3104,0.8399,-0.5625,-12.1600,7.2960,1.7430,-0.1268,0.4932,-0.3502,
12.500078,-1.9644,1.3478,-0.1640,-12.1600,7.2960,1.7430,-0.1268,0.4932,-0.3502,
12.502966,-1.2845,1.4362,-0.0841,-12.1600,7.2960,1.7430,-0.1268,0.4932,-0.3502,
12.506212,-1.2845,1.4362,-0.0841,-5.4580,8.2740,2.6150,-0.1268,0.4932,-0.3502,
12.512260,-1.2845,1.4362,-0.0841,2.2420,1.4370,-3.5490,-0.1268,0.4932,-0.3502,
12.534112,-1.2845,1.4362,-0.0841,0.0510,-1.8640,-5.2450,-0.1268,0.4932,-0.3502,
12.553417,-1.2845,1.4362,-0.0841,0.0510,-1.8640,-5.2450,0.2152,-1.8547,0.9978,
12.556890,-1.2845,1.4362,-0.0841,0.8560,2.8380,-0.2470,0.2152,-1.8547,0.9978,
12.574733,-0.5076,0.7337,-0.7041,0.8560,2.8380,-0.2470,0.2152,-1.8547,0.9978,
12.578490,-0.7363,0.4059,-0.8490,0.8560,2.8380,-0.2470,0.2152,-1.8547,0.9978,
12.581262,-0.6520,0.8974,-0.3206,0.8560,2.8380,-0.2470,0.2152,-1.8547,0.9978,
12.584238,-0.5929,1.5970,0.2117,0.8560,2.8380,-0.2470,0.2152,-1.8547,0.9978,
12.587056,-0.5929,1.5970,0.2117,1.4830,9.6970,4.8390,0.2152,-1.8547,0.9978,
12.592582,-0.5929,1.5970,0.2117,2.1170,7.2110,4.9530,0.2152,-1.8547,0.9978,
12.614924,-0.5929,1.5970,0.2117,2.1170,7.2110,4.9530,0.6963,-1.4908,1.1689,
12.618645,-0.5929,1.5970,0.2117,3.5100,-3.1310,4.1170,0.6963,-1.4908,1.1689,
12.632565,-0.5929,1.5970,0.2117,7.8320,-2.5130,1.9770,0.6963,-1.4908,1.1689,
12.654957,-0.5377,1.3451,0.2506,7.8320,-2.5130,1.9770,0.6963,-1.4908,1.1689,
12.656896,-0.3879,0.3033,0.1807,7.8320,-2.5130,1.9770,0.6963,-1.4908,1.1689,
12.658641,0.0629,0.3866,-0.0116,7.8320,-2.5130,1.9770,0.6963,-1.4908,1.1689,
12.660291,-0.2649,0.9550,0.1717,7.8320,-2.5130,1.9770,0.6963,-1.4908,1.1689,
12.661752,-0.2649,0.9550,0.1717,4.4760,2.8070,3.5080,0.6963,-1.4908,1.1689,
12.673990,-0.2649,0.9550,0.1717,4.4760,2.8070,3.5080,-0.4998,-1.5458,1.8158,
12.676212,-0.2649,0.9550,0.1717,0.5280,4.7200,5.6470,-0.4998,-1.5458,1.8158,
12.695897,-0.2649,0.9550,0.1717,-0.2630,1.8210,0.5800,-0.4998,-1.5458,1.8158,
12.713635,-0.2649,0.9550,0.1717,0.1880,-1.0160,-2.1340,-0.4998,-1.5458,1.8158,
12.736521,-0.6489,1.1775,0.4181,0.1880,-1.0160,-2.1340,-0.4998,-1.5458,1.8158,
12.740164,-0.7111,0.9098,-0.0496,0.1880,-1.0160,-2.1340,-0.4998,-1.5458,1.8158,
12.744072,-0.6440,0.6437,-0.2803,0.1880,-1.0160,-2.1340,-0.4998,-1.5458,1.8158,
12.746906,-0.5548,0.5522,0.1873,0.1880,-1.0160,-2.1340,-0.4998,-1.5458,1.8158,
12.749780,-0.5548,0.5522,0.1873,0.1880,-1.0160,-2.1340,-0.9118,-0.0978,1.5788,
12.751741,-0.5548,0.5522,0.1873,0.8280,-2.1260,2.2490,-0.9118,-0.0978,1.5788,
12.754250,-0.5548,0.5522,0.1873,-0.4370,-3.0290,1.4260,-0.9118,-0.0978,1.5788,
12.777564,-0.5548,0.5522,0.1873,-0.3140,-3.3990,1.0080,-0.9118,-0.0978,1.5788,
12.795233,-0.5548,0.5522,0.1873,1.9610,-3.5900,1.0980,-0.9118,-0.0978,1.5788,
12.817366,-0.6613,0.4802,0.1213,1.9610,-3.5900,1.0980,-0.9118,-0.0978,1.5788,
12.821045,-0.6305,0.4565,0.1082,1.9610,-3.5900,1.0980,-0.9118,-0.0978,1.5788,
12.824044,-0.6305,0.4565,0.1082,1.9610,-3.5900,1.0980,-1.1008,-0.4907,1.1058,
12.827364,-0.6305,0.4565,0.1082,2.6740,-2.4040,0.6810,-1.1008,-0.4907,1.1058,
12.830196,-0.3812,0.4477,0.1509,2.6740,-2.4040,0.6810,-1.1008,-0.4907,1.1058,
12.831985,-0.2915,0.5809,0.1285,2.6740,-2.4040,0.6810,-1.1008,-0.4907,1.1058,
12.836164,-0.2915,0.5809,0.1285,3.1080,0.5670,-0.5610,-1.1008,-0.4907,1.1058,
12.857502,-0.2915,0.5809,0.1285,1.3150,1.2370,0.6900,-1.1008,-0.4907,1.1058,
12.875265,-0.2915,0.5809,0.1285,1.3150,1.2370,0.6900,0.0542,-1.0328,0.5668,
12.878852,-0.2915,0.5809,0.1285,-0.6240,-0.7700,1.7970,0.0542,-1.0328,0.5668,
12.898168,-0.2334,0.8915,0.0187,-0.6240,-0.7700,1.7970,0.0542,-1.0328,0.5668,
12.901748,-0.4042,0.9670,0.1588,-0.6240,-0.7700,1.7970,0.0542,-1.0328,0.5668,
12.905106,-0.5897,0.7673,0.2829,-0.6240,-0.7700,1.7970,0.0542,-1.0328,0.5668,
12.908073,-0.6752,0.6048,0.0784,-0.6240,-0.7700,1.7970,0.0542,-1.0328,0.5668,
12.912037,-0.6752,0.6048,0.0784,-1.5990,-2.4340,-0.3450,0.0542,-1.0328,0.5668,
12.916903,-0.6752,0.6048,0.0784,-2.0070,-2.1340,-1.9290,0.0542,-1.0328,0.5668,
12.938069,-0.6752,0.6048,0.0784,-2.0070,-2.1340,-1.9290,-0.7297,-0.2808,0.9518,
12.940514,-0.6752,0.6048,0.0784,-1.2800,-1.4570,-0.2420,-0.7297,-0.2808,0.9518,
12.956246,-0.6752,0.6048,0.0784,-0.7190,-0.6070,1.7000,-0.7297,-0.2808,0.9518,
12.978971,-0.6978,0.6442,-0.0692,-0.7190,-0.6070,1.7000,-0.7297,-0.2808,0.9518,
12.982306,-0.6065,0.7207,0.1201,-0.7190,-0.6070,1.7000,-0.7297,-0.2808,0.9518,
12.984934,-0.5340,0.8133,0.3284,-0.7190,-0.6070,1.7000,-0.7297,-0.2808,0.9518,
12.987850,-0.5361,0.8898,0.3310,-0.7190,-0.6070,1.7000,-0.7297,-0.2808,0.9518,
12.990788,-0.5361,0.8898,0.3310,-0.8230,0.1010,1.6900,-0.7297,-0.2808,0.9518,
12.996385,-0.5361,0.8898,0.3310,-0.8230,0.1010,1.6900,-0.1727,0.2313,0.1099,
12.997987,-0.5361,0.8898,0.3310,-1.8100,-1.0160,1.2820,-0.1727,0.2313,0.1099,
13.019677,-0.5361,0.8898,0.3310,-3.4900,-2.5780,2.3240,-0.1727,0.2313,0.1099,
13.037786,-0.5361,0.8898,0.3310,-5.8160,-1.6700,0.7570,-0.1727,0.2313,0.1099,
13.059679,-0.6335,0.7779,0.2912,-5.8160,-1.6700,0.7570,-0.1727,0.2313,0.1099,
13.061217,-0.8043,0.6183,0.4007,-5.8160,-1.6700,0.7570,-0.1727,0.2313,0.1099,
13.061971,-1.0384,0.7111,0.2457,-5.8160,-1.6700,0.7570,-0.1727,0.2313,0.1099,
13.063365,-0.8463,1.1582,0.0768,-5.8160,-1.6700,0.7570,-0.1727,0.2313,0.1099,
13.064122,-0.8463,1.1582,0.0768,-3.9000,2.7130,-0.8190,-0.1727,0.2313,0.1099,
13.077872,-0.8463,1.1582,0.0768,-3.9000,2.7130,-0.8190,0.7502,0.2193,-0.2742,
13.081166,-0.8463,1.1582,0.0768,0.1630,3.8720,-0.3890,0.7502,0.2193,-0.2742,
13.100601,-0.8463,1.1582,0.0768,-0.8630,0.0870,1.8030,0.7502,0.2193,-0.2742,
13.119168,-0.8463,1.1582,0.0768,-1.6900,-3.2130,3.2800,0.7502,0.2193,-0.2742,
13.141011,-0.4382,1.2771,0.0991,-1.6900,-3.2130,3.2800,0.7502,0.2193,-0.2742,
13.144123,-0.5599,0.8879,0.2816,-1.6900,-3.2130,3.2800,0.7502,0.2193,-0.2742,
13.146598,-0.5599,0.8879,0.2816,-1.6900,-3.2130,3.2800,1.8293,2.3892,-2.1051,
13.148870,-0.5599,0.8879,0.2816,0.1820,-1.7120,1.1580,1.8293,2.3892,-2.1051,
13.150914,-0.6703,0.5403,0.3802,0.1820,-1.7120,1.1580,1.8293,2.3892,-2.1051,
13.153387,-0.5161,0.6726,0.1079,0.1820,-1.7120,1.1580,1.8293,2.3892,-2.1051,
13.158610,-0.5161,0.6726,0.1079,0.1390,3.1150,1.1730,1.8293,2.3892,-2.1051,
13.181119,-0.5161,0.6726,0.1079,-0.4430,8.5880,2.5170,1.8293,2.3892,-2.1051,
13.199265,-0.5161,0.6726,0.1079,-0.4430,8.5880,2.5170,2.7632,-0.5918,-1.8411,
13.201473,-0.5161,0.6726,0.1079,2.3400,9.1330,3.5470,2.7632,-0.5918,-1.8411,
13.222051,-0.5543,1.1408,0.0568,2.3400,9.1330,3.5470,2.7632,-0.5918,-1.8411,
13.225450,-0.6408,1.6738,0.1495,2.3400,9.1330,3.5470,2.7632,-0.5918,-1.8411,
13.228326,-0.3876,1.7004,0.2169,2.3400,9.1330,3.5470,2.7632,-0.5918,-1.8411,
13.230489,-0.2146,1.3460,0.0444,2.3400,9.1330,3.5470,2.7632,-0.5918,-1.8411,
13.231717,-0.2146,1.3460,0.0444,4.3400,5.9850,2.1240,2.7632,-0.5918,-1.8411,
13.239360,-0.2146,1.3460,0.0444,2.6080,4.6100,0.1980,2.7632,-0.5918,-1.8411,
13.262422,-0.2146,1.3460,0.0444,2.6080,4.6100,0.1980,0.3153,0.9182,-1.6681,
13.265873,-0.2146,1.3460,0.0444,1.2070,2.9680,-1.8910,0.3153,0.9182,-1.6681,
13.281818,-0.2146,1.3460,0.0444,3.6010,0.9420,-0.3110,0.3153,0.9182,-1.6681,
13.302443,-0.4144,1.1764,-0.1831,3.6010,0.9420,-0.3110,0.3153,0.9182,-1.6681,
13.306115,-0.5753,0.9856,-0.4157,3.6010,0.9420,-0.3110,0.3153,0.9182,-1.6681,
13.310150,-0.3548,0.7456,-0.2752,3.6010,0.9420,-0.3110,0.3153,0.9182,-1.6681,
13.312264,-0.4231,0.5117,0.0231,3.6010,0.9420,-0.3110,0.3153,0.9182,-1.6681,
13.313661,-0.4231,0.5117,0.0231,3.1440,-0.9580,2.9470,0.3153,0.9182,-1.6681,
13.321591,-0.4231,0.5117,0.0231,-0.4610,-2.5320,2.7850,0.3153,0.9182,-1.6681,
13.342325,-0.4231,0.5117,0.0231,-0.4610,-2.5320,2.7850,-0.3077,3.4843,-1.7372,
13.344329,-0.4231,0.5117,0.0231,1.4460,-2.3670,3.2750,-0.3077,3.4843,-1.7372,
13.361876,-0.4231,0.5117,0.0231,4.2170,-1.0490,4.1080,-0.3077,3.4843,-1.7372,
13.384120,-0.7955,0.3218,-0.0418,4.2170,-1.0490,4.1080,-0.3077,3.4843,-1.7372,
13.387923,-0.5953,0.3180,-0.0379,4.2170,-1.0490,4.1080,-0.3077,3.4843,-1.7372,
13.390578,-0.3055,0.4403,0.0165,4.2170,-1.0490,4.1080,-0.3077,3.4843,-1.7372,
13.394532,-0.0825,0.5320,-0.0401,4.2170,-1.0490,4.1080,-0.3077,3.4843,-1.7372,
13.397017,-0.0825,0.5320,-0.0401,6.3410,-0.1130,3.7240,-0.3077,3.4843,-1.7372,
13.402516,-0.0825,0.5320,-0.0401,6.3410,-0.1130,3.7240,-1.0058,0.8803,-0.2241,
13.404094,-0.0825,0.5320,-0.0401,7.6280,-0.5690,2.6770,-1.0058,0.8803,-0.2241,
13.423556,-0.0825,0.5320,-0.0401,6.9670,-1.9400,1.0200,-1.0058,0.8803,-0.2241,
13.442905,-0.0825,0.5320,-0.0401,5.5620,-3.7190,-1.5370,-1.0058,0.8803,-0.2241,
13.464216,0.0545,0.4907,-0.1466,5.5620,-3.7190,-1.5370,-1.0058,0.8803,-0.2241,
13.467853,0.0545,0.4907,-0.1466,5.5620,-3.7190,-1.5370,-1.9158,-1.7588,1.8608,
13.470779,0.0545,0.4907,-0.1466,3.7740,-5.1960,-2.8110,-1.9158,-1.7588,1.8608,
13.473781,-0.0098,0.3693,-0.2982,3.7740,-5.1960,-2.8110,-1.9158,-1.7588,1.8608,
13.477613,-0.1500,0.2178,-0.5213,3.7740,-5.1960,-2.8110,-1.9158,-1.7588,1.8608,
13.479952,-0.3211,0.1048,-0.6042,3.7740,-5.1960,-2.8110,-1.9158,-1.7588,1.8608,
13.483198,-0.3211,0.1048,-0.6042,2.3330,-3.6940,-1.9660,-1.9158,-1.7588,1.8608,
13.504924,-0.3211,0.1048,-0.6042,-3.1270,2.5230,-1.6470,-1.9158,-1.7588,1.8608,
13.524116,-0.3211,0.1048,-0.6042,-3.1270,2.5230,-1.6470,0.0513,0.4403,-0.9312,
13.528520,-0.3211,0.1048,-0.6042,-13.2120,10.2340,0.1290,0.0513,0.4403,-0.9312,
13.545181,-0.4546,0.2873,-0.4868,-13.2120,10.2340,0.1290,0.0513,0.4403,-0.9312,
13.549281,-1.0064,0.9308,-0.4470,-13.2120,10.2340,0.1290,0.0513,0.4403,-0.9312,
13.552889,-2.0421,1.7114,-0.2635,-13.2120,10.2340,0.1290,0.0513,0.4403,-0.9312,
13.556407,-1.6760,1.6670,0.1066,-13.2120,10.2340,0.1290,0.0513,0.4403,-0.9312,
13.561217,-1.6760,1.6670,0.1066,-9.4970,9.9840,3.8750,0.0513,0.4403,-0.9312,
13.565348,-1.6760,1.6670,0.1066,1.1660,-1.2270,-4.4620,0.0513,0.4403,-0.9312,
13.586020,-1.6760,1.6670,0.1066,0.9670,-3.5030,-5.0060,0.0513,0.4403,-0.9312,
13.605406,-1.6760,1.6670,0.1066,0.9670,-3.5030,-5.0060,0.4583,-1.2078,0.9609,
13.609968,-1.6760,1.6670,0.1066,2.1680,6.5780,5.1430,0.4583,-1.2078,0.9609,
13.627448,-0.5992,0.5154,-0.7337,2.1680,6.5780,5.1430,0.4583,-1.2078,0.9609,
13.631546,-0.6195,0.2937,-0.7635,2.1680,6.5780,5.1430,0.4583,-1.2078,0.9609,
13.634790,-0.4897,1.3297,0.2716,2.1680,6.5780,5.1430,0.4583,-1.2078,0.9609,
13.638402,-0.3907,2.0558,0.5898,2.1680,6.5780,5.1430,0.4583,-1.2078,0.9609,
13.643328,-0.3907,2.0558,0.5898,3.2320,13.7440,8.0920,0.4583,-1.2078,0.9609,
