
time,gFx,gFy,gFz,ax,ay,az,wx,wy,wz,
0.026880,0.0000,0.0000,0.0000,0.0000,0.0000,0.0000,-0.2157,0.2903,0.0197,
0.046681,-0.0081,0.2436,0.8382,0.0000,0.0000,0.0000,-0.2157,0.2903,0.0197,
0.048153,-0.0081,0.2436,0.8382,0.0000,0.0000,0.0000,-0.2157,0.2903,0.0197,
0.067159,-0.0081,0.2436,0.8382,0.0000,0.0000,0.0000,-0.2157,0.2903,0.0197,
0.086990,0.0274,0.3083,0.8245,0.0000,0.0000,0.0000,-0.2157,0.2903,0.0197,
0.088687,0.0274,0.3083,0.8245,-0.0365,-0.4115,-1.1006,-0.2157,0.2903,0.0197,
0.090181,0.0274,0.3083,0.8245,-0.0365,-0.4115,-1.1006,-0.2157,0.2903,0.0197,
0.106884,0.0274,0.3083,0.8245,-0.0365,-0.4115,-1.1006,0.5923,-1.3167,0.6828,
0.127105,0.1622,0.2973,0.8485,-0.0365,-0.4115,-1.1006,0.5923,-1.3167,0.6828,
0.129572,0.1622,0.2973,0.8485,0.6525,-0.4225,-0.8589,0.5923,-1.3167,0.6828,
0.131364,0.1622,0.2973,0.8485,0.6525,-0.4225,-0.8589,0.7744,-1.7113,0.6205,
0.146995,0.1622,0.2973,0.8485,0.6525,-0.4225,-0.8589,0.4378,-1.5697,0.5044,
0.167653,0.2096,0.2123,0.8079,0.6525,-0.4225,-0.8589,0.4378,-1.5697,0.5044,
0.169756,0.2096,0.2123,0.8079,0.5011,-0.8800,-1.3015,0.4378,-1.5697,0.5044,
0.171594,0.2096,0.2123,0.8079,0.5011,-0.8800,-1.3015,-0.1310,-1.7827,0.3483,
0.187001,0.2096,0.2123,0.8079,0.5011,-0.8800,-1.3015,-0.4069,-0.9262,0.4426,
0.206620,0.4134,0.2924,1.0774,0.5011,-0.8800,-1.3015,-0.4069,-0.9262,0.4426,
0.208671,0.4134,0.2924,1.0774,1.5485,0.1707,1.4676,-0.4069,-0.9262,0.4426,
0.210204,0.4134,0.2924,1.0774,1.5485,0.1707,1.4676,-0.2274,-0.4714,0.2232,
0.227239,0.4134,0.2924,1.0774,1.5485,0.1707,1.4676,0.2051,-0.1475,0.0740,
0.246822,0.3398,0.3430,1.1778,1.5485,0.1707,1.4676,0.2051,-0.1475,0.0740,
0.248948,0.3398,0.3430,1.1778,0.7714,0.6919,2.4597,0.2051,-0.1475,0.0740,
0.250713,0.3398,0.3430,1.1778,0.7714,0.6919,2.4597,0.7031,0.4810,-0.0959,
0.267452,0.3398,0.3430,1.1778,0.7714,0.6919,2.4597,1.2346,1.0189,-0.3244,
0.288529,0.2025,0.2575,0.9452,0.7714,0.6919,2.4597,1.2346,1.0189,-0.3244,
0.291482,0.2025,0.2575,0.9452,-0.3447,-0.0889,0.1024,1.2346,1.0189,-0.3244,
0.293512,0.2025,0.2575,0.9452,-0.3447,-0.0889,0.1024,1.4472,1.1851,-0.4485,
0.307147,0.2025,0.2575,0.9452,-0.3447,-0.0889,0.1024,1.4605,0.0549,-0.3483,
0.327278,0.2634,0.3972,0.9623,-0.3447,-0.0889,0.1024,1.4605,0.0549,-0.3483,
0.329381,0.2634,0.3972,0.9623,0.2154,0.8389,0.4170,1.4605,0.0549,-0.3483,
0.331063,0.2634,0.3972,0.9623,0.2154,0.8389,0.4170,1.3113,-0.9241,-0.4719,
0.346875,0.2634,0.3972,0.9623,0.2154,0.8389,0.4170,0.8495,-1.0605,-0.4117,
0.367359,0.2533,0.3987,0.7288,0.2154,0.8389,0.4170,0.8495,-1.0605,-0.4117,
0.369194,0.2533,0.3987,0.7288,-0.1755,0.4227,-1.6308,0.8495,-1.0605,-0.4117,
0.371115,0.2533,0.3987,0.7288,-0.1755,0.4227,-1.6308,0.1103,-0.8442,-0.3270,
0.386925,0.2533,0.3987,0.7288,-0.1755,0.4227,-1.6308,-0.7521,-0.4213,-0.3206,
0.406924,0.3696,0.3000,0.9506,-0.1755,0.4227,-1.6308,-0.7521,-0.4213,-0.3206,
0.409368,0.3696,0.3000,0.9506,0.7858,-0.4650,0.5677,-0.7521,-0.4213,-0.3206,
0.410941,0.3696,0.3000,0.9506,0.7858,-0.4650,0.5677,-1.0152,-0.6141,-0.4458,
0.426686,0.3696,0.3000,0.9506,0.7858,-0.4650,0.5677,-0.6887,-0.5582,-0.6780,
0.446994,0.3156,0.3403,1.1436,0.7858,-0.4650,0.5677,-0.6887,-0.5582,-0.6780,
0.449520,0.3156,0.3403,1.1436,0.1244,0.1631,2.4156,-0.6887,-0.5582,-0.6780,
0.451000,0.3156,0.3403,1.1436,0.1244,0.1631,2.4156,-0.1875,-0.5838,-0.8682,
0.466718,0.3156,0.3403,1.1436,0.1244,0.1631,2.4156,0.2487,-0.2077,-0.9092,
0.487008,0.2309,0.4244,0.8656,0.1244,0.1631,2.4156,0.2487,-0.2077,-0.9092,
0.490039,0.2309,0.4244,0.8656,-0.7233,0.8660,-0.2588,0.2487,-0.2077,-0.9092,
0.492547,0.2309,0.4244,0.8656,-0.7233,0.8660,-0.2588,0.0186,0.9428,-0.8277,
0.507183,0.2309,0.4244,0.8656,-0.7233,0.8660,-0.2588,-0.0250,0.5417,-0.8772,
0.526982,0.1517,0.4131,0.7923,-0.7233,0.8660,-0.2588,-0.0250,0.5417,-0.8772,
0.529158,0.1517,0.4131,0.7923,-1.1107,0.6447,-1.0581,-0.0250,0.5417,-0.8772,
0.531329,0.1517,0.4131,0.7923,-1.1107,0.6447,-1.0581,-0.0197,0.5806,-0.8069,
0.546392,0.1517,0.4131,0.7923,-1.1107,0.6447,-1.0581,0.0352,1.4328,-0.7963,
0.566949,0.1258,0.4212,0.7603,-1.1107,0.6447,-1.0581,0.0352,1.4328,-0.7963,
0.571831,0.1258,0.4212,0.7603,-0.8942,0.6324,-1.4615,0.0352,1.4328,-0.7963,
0.574009,0.1258,0.4212,0.7603,-0.8942,0.6324,-1.4615,0.1550,1.5899,-0.7531,
0.586755,0.1258,0.4212,0.7603,-0.8942,0.6324,-1.4615,0.4666,0.9129,-0.5864,
0.606140,0.1732,0.2907,0.9391,-0.8942,0.6324,-1.4615,0.4666,0.9129,-0.5864,
0.608408,0.1732,0.2907,0.9391,0.1091,-0.8059,0.2429,0.4666,0.9129,-0.5864,
0.610141,0.1732,0.2907,0.9391,0.1091,-0.8059,0.2429,0.9049,0.6093,-0.6253,
0.626682,0.1732,0.2907,0.9391,0.1091,-0.8059,0.2429,1.3673,0.9262,-0.8756,
0.646571,0.1984,0.3386,0.8990,0.1091,-0.8059,0.2429,1.3673,0.9262,-0.8756,
0.649854,0.1984,0.3386,0.8990,0.7252,-0.7663,-0.0211,1.3673,0.9262,-0.8756,
0.651710,0.1984,0.3386,0.8990,0.7252,-0.7663,-0.0211,1.6773,0.8820,-1.1239,
0.666484,0.1984,0.3386,0.8990,0.7252,-0.7663,-0.0211,1.6011,0.3888,-1.2277,
0.686467,0.2003,0.4466,0.7552,0.7252,-0.7663,-0.0211,1.6011,0.3888,-1.2277,
0.687635,0.2003,0.4466,0.7552,1.1550,-0.3160,-1.1726,1.6011,0.3888,-1.2277,
0.688639,0.2003,0.4466,0.7552,1.1550,-0.3160,-1.1726,1.3838,0.4655,-1.4354,
0.706016,0.2003,0.4466,0.7552,1.1550,-0.3160,-1.1726,1.3199,0.7574,-1.6325,
0.726344,0.0718,0.5116,0.7195,1.1550,-0.3160,-1.1726,1.3199,0.7574,-1.6325,
0.729035,0.0718,0.5116,0.7195,0.4004,-0.1685,-1.2693,1.3199,0.7574,-1.6325,
0.730834,0.0718,0.5116,0.7195,0.4004,-0.1685,-1.2693,1.2410,0.8831,-1.7305,
0.746314,0.0718,0.5116,0.7195,0.4004,-0.1685,-1.2693,1.1521,0.9763,-1.8829,
0.766230,-0.1395,0.5758,0.7029,0.4004,-0.1685,-1.2693,1.1521,0.9763,-1.8829,
0.768294,-0.1395,0.5758,0.7029,-0.9777,0.0725,-1.1733,1.1521,0.9763,-1.8829,
0.769971,-0.1395,0.5758,0.7029,-0.9777,0.0725,-1.1733,1.1105,1.0775,-1.9159,
0.786672,-0.1395,0.5758,0.7029,-0.9777,0.0725,-1.1733,1.0045,0.9880,-1.7348,
0.806170,-0.2240,0.5587,0.6792,-0.9777,0.0725,-1.1733,1.0045,0.9880,-1.7348,
0.808506,-0.2240,0.5587,0.6792,-1.0623,-0.3746,-1.1327,1.0045,0.9880,-1.7348,
0.810447,-0.2240,0.5587,0.6792,-1.0623,-0.3746,-1.1327,0.8373,0.5918,-1.6645,
0.827574,-0.2240,0.5587,0.6792,-1.0623,-0.3746,-1.1327,0.8112,0.5385,-1.7374,
0.846238,-0.2851,0.5512,0.7158,-1.0623,-0.3746,-1.1327,0.8112,0.5385,-1.7374,
0.848150,-0.2851,0.5512,0.7158,-1.0839,-0.6038,-0.5470,0.8112,0.5385,-1.7374,
0.850067,-0.2851,0.5512,0.7158,-1.0839,-0.6038,-0.5470,0.9049,0.9348,-1.7561,
0.866059,-0.2851,0.5512,0.7158,-1.0839,-0.6038,-0.5470,0.7665,-0.3872,2.1076,
0.887018,-0.0740,0.5626,0.4950,-1.0839,-0.6038,-0.5470,0.7665,-0.3872,2.1076,
0.889753,-0.0740,0.5626,0.4950,1.0201,-0.7535,-2.4872,0.7665,-0.3872,2.1076,
0.891953,-0.0740,0.5626,0.4950,1.0201,-0.7535,-2.4872,0.3393,-0.0160,2.6504,
0.907034,-0.0740,0.5626,0.4950,1.0201,-0.7535,-2.4872,0.4368,1.1867,2.1103,
0.926366,-0.0430,0.4791,0.7649,1.0201,-0.7535,-2.4872,0.4368,1.1867,2.1103,
0.928457,-0.0430,0.4791,0.7649,0.8859,-1.8259,0.2894,0.4368,1.1867,2.1103,
0.930132,-0.0430,0.4791,0.7649,0.8859,-1.8259,0.2894,1.0179,1.9915,0.9998,
0.945949,-0.0430,0.4791,0.7649,0.8859,-1.8259,0.2894,1.2101,1.4552,-0.1582,
0.966172,-0.0723,0.7818,0.6582,0.8859,-1.8259,0.2894,1.2101,1.4552,-0.1582,
0.968180,-0.0723,0.7818,0.6582,0.9637,0.8077,-0.3617,1.2101,1.4552,-0.1582,
0.969806,-0.0723,0.7818,0.6582,0.9637,0.8077,-0.3617,0.9747,0.8389,-2.4783,
0.985787,-0.0723,0.7818,0.6582,0.9637,0.8077,-0.3617,0.0282,0.1262,-1.9223,
1.005926,-0.4129,0.6973,0.8961,0.9637,0.8077,-0.3617,0.0282,0.1262,-1.9223,
1.007966,-0.4129,0.6973,0.8961,-1.6478,0.0392,2.1290,0.0282,0.1262,-1.9223,
1.009519,-0.4129,0.6973,0.8961,-1.6478,0.0392,2.1290,-0.3734,-1.4269,-1.3012,
1.025419,-0.4129,0.6973,0.8961,-1.6478,0.0392,2.1290,0.3451,-1.7193,-1.2639,
1.046193,-0.3745,0.7153,0.5736,-1.6478,0.0392,2.1290,0.3451,-1.7193,-1.2639,
1.049596,-0.3745,0.7153,0.5736,-1.3347,0.3420,-1.1791,0.3451,-1.7193,-1.2639,
1.051663,-0.3745,0.7153,0.5736,-1.3347,0.3420,-1.1791,0.6796,-1.4472,-1.0200,
1.067100,-0.3745,0.7153,0.5736,-1.3347,0.3420,-1.1791,0.6013,-0.8879,-0.9422,
1.085941,-0.3738,0.8275,0.4989,-1.3347,0.3420,-1.1791,0.6013,-0.8879,-0.9422,
1.088847,-0.3738,0.8275,0.4989,-1.3497,1.3394,-1.8184,0.6013,-0.8879,-0.9422,
1.090682,-0.3738,0.8275,0.4989,-1.3497,1.3394,-1.8184,0.5172,-0.2221,-0.9470,
1.106152,-0.3738,0.8275,0.4989,-1.3497,1.3394,-1.8184,0.4133,0.4405,-0.8751,
1.125667,-0.3494,0.7449,0.5924,-1.3497,1.3394,-1.8184,0.4133,0.4405,-0.8751,
1.127646,-0.3494,0.7449,0.5924,-0.8112,0.4795,-0.7383,0.4133,0.4405,-0.8751,
1.129439,-0.3494,0.7449,0.5924,-0.8112,0.4795,-0.7383,0.4224,0.3617,-0.8362,
1.146089,-0.3494,0.7449,0.5924,-0.8112,0.4795,-0.7383,0.5092,0.1262,-0.9326,
1.165512,-0.3274,0.7681,0.5634,-0.8112,0.4795,-0.7383,0.5092,0.1262,-0.9326,
1.167775,-0.3274,0.7681,0.5634,-0.2797,0.6662,-0.8444,0.5092,0.1262,-0.9326,
1.169603,-0.3274,0.7681,0.5634,-0.2797,0.6662,-0.8444,0.6983,0.4490,-1.0322,
1.185445,-0.3274,0.7681,0.5634,-0.2797,0.6662,-0.8444,0.9092,0.9049,-1.0637,
1.205316,-0.4813,0.7090,0.9482,-0.2797,0.6662,-0.8444,0.9092,0.9049,-1.0637,
1.207707,-0.4813,0.7090,0.9482,-1.3318,0.0188,3.2339,0.9092,0.9049,-1.0637,
1.209299,-0.4813,0.7090,0.9482,-1.3318,0.0188,3.2339,1.2570,0.6583,-1.0338,
1.226086,-0.4813,0.7090,0.9482,-1.3318,0.0188,3.2339,1.5281,0.3601,-1.0099,
1.246039,-0.4774,0.7231,0.4002,-1.3318,0.0188,3.2339,1.5281,0.3601,-1.0099,
1.248031,-0.4774,0.7231,0.4002,-0.8806,-0.0144,-1.6748,1.5281,0.3601,-1.0099,
1.249822,-0.4774,0.7231,0.4002,-0.8806,-0.0144,-1.6748,1.3108,0.8165,-0.9694,
1.265641,-0.4774,0.7231,0.4002,-0.8806,-0.0144,-1.6748,1.0978,0.9822,-1.1803,
1.285688,-0.2761,0.7434,0.3552,-0.8806,-0.0144,-1.6748,1.0978,0.9822,-1.1803,
1.287932,-0.2761,0.7434,0.3552,1.5789,0.0920,-1.6245,1.0978,0.9822,-1.1803,
1.289569,-0.2761,0.7434,0.3552,1.5789,0.0920,-1.6245,1.0440,1.0530,-1.4903,
1.306440,-0.2761,0.7434,0.3552,1.5789,0.0920,-1.6245,0.9832,1.2709,-1.8072,
1.325135,-0.2538,0.8942,0.3376,1.5789,0.0920,-1.6245,0.9832,1.2709,-1.8072,
1.327271,-0.2538,0.8942,0.3376,2.4508,1.6459,-1.2883,0.9832,1.2709,-1.8072,
1.329105,-0.2538,0.8942,0.3376,2.4508,1.6459,-1.2883,0.8405,1.8067,-2.0011,
1.345255,-0.2538,0.8942,0.3376,2.4508,1.6459,-1.2883,1.1766,2.1018,-1.9819,
1.366615,-0.7608,0.8990,0.3056,2.4508,1.6459,-1.2883,1.1766,2.1018,-1.9819,
1.370225,-0.7608,0.8990,0.3056,-1.6484,1.9308,-0.8927,1.1766,2.1018,-1.9819,
1.372391,-0.7608,0.8990,0.3056,-1.6484,1.9308,-0.8927,1.7220,0.9422,-1.6671,
1.387824,-0.7608,0.8990,0.3056,-1.6484,1.9308,-0.8927,2.1273,-0.0437,-0.8234,
1.406333,-0.5370,0.9574,0.3303,-1.6484,1.9308,-0.8927,2.1273,-0.0437,-0.8234,
1.408582,-0.5370,0.9574,0.3303,0.9475,2.5266,-0.0184,2.1273,-0.0437,-0.8234,
1.410311,-0.5370,0.9574,0.3303,0.9475,2.5266,-0.0184,2.5721,-0.6429,0.1742,
1.426216,-0.5370,0.9574,0.3303,0.9475,2.5266,-0.0184,2.5060,-0.5475,0.5912,
1.445275,-0.4053,0.8377,0.1998,0.9475,2.5266,-0.0184,2.5060,-0.5475,0.5912,
1.448601,-0.4053,0.8377,0.1998,2.0175,0.9254,-0.7314,2.5060,-0.5475,0.5912,
1.450457,-0.4053,0.8377,0.1998,2.0175,0.9254,-0.7314,2.0554,0.3270,0.7744,
1.465389,-0.4053,0.8377,0.1998,2.0175,0.9254,-0.7314,1.6331,0.5422,0.9577,
1.486812,-0.6701,0.6650,0.3496,2.0175,0.9254,-0.7314,1.6331,0.5422,0.9577,
1.489563,-0.6701,0.6650,0.3496,-0.8087,-1.1447,1.3507,1.6331,0.5422,0.9577,
1.491787,-0.6701,0.6650,0.3496,-0.8087,-1.1447,1.3507,1.4663,0.2929,1.2623,
1.506051,-0.6701,0.6650,0.3496,-0.8087,-1.1447,1.3507,1.5840,0.1795,1.3460,
1.525822,-0.7571,0.6608,0.4593,-0.8087,-1.1447,1.3507,1.5840,0.1795,1.3460,
1.527840,-0.7571,0.6608,0.4593,-2.0341,-1.5634,2.9107,1.5840,0.1795,1.3460,
1.529979,-0.7571,0.6608,0.4593,-2.0341,-1.5634,2.9107,1.6000,0.1891,1.1995,
1.546197,-0.7571,0.6608,0.4593,-2.0341,-1.5634,2.9107,1.3167,0.0224,1.0077,
1.565069,-1.0268,0.6445,0.2712,-2.0341,-1.5634,2.9107,1.3167,0.0224,1.0077,
1.568011,-1.0268,0.6445,0.2712,-5.0326,-2.0314,1.5668,1.3167,0.0224,1.0077,
1.570162,-1.0268,0.6445,0.2712,-5.0326,-2.0314,1.5668,0.7627,-0.2450,0.7910,
1.585164,-1.0268,0.6445,0.2712,-5.0326,-2.0314,1.5668,0.1310,-0.2647,0.3968,
1.604954,-0.9846,0.5890,0.2042,-5.0326,-2.0314,1.5668,0.1310,-0.2647,0.3968,
1.607639,-0.9846,0.5890,0.2042,-4.8284,-2.7101,1.0108,0.1310,-0.2647,0.3968,
1.609537,-0.9846,0.5890,0.2042,-4.8284,-2.7101,1.0108,-0.2871,-0.1470,-0.0128,
1.625675,-0.9846,0.5890,0.2042,-4.8284,-2.7101,1.0108,-0.4575,-0.0799,-0.2381,
1.645976,-0.8973,0.6183,0.0901,-4.8284,-2.7101,1.0108,-0.4575,-0.0799,-0.2381,
1.647944,-0.8973,0.6183,0.0901,-3.9360,-2.3827,-0.2551,-0.4575,-0.0799,-0.2381,
1.649760,-0.8973,0.6183,0.0901,-3.9360,-2.3827,-0.2551,-0.5784,-0.1486,-0.4810,
1.665405,-0.8973,0.6183,0.0901,-3.9360,-2.3827,-0.2551,-0.6466,-0.0991,-0.8570,
1.685098,-0.7278,0.5419,0.0051,-3.9360,-2.3827,-0.2551,-0.6466,-0.0991,-0.8570,
1.687166,-0.7278,0.5419,0.0051,-1.9911,-2.9284,-1.3141,-0.6466,-0.0991,-0.8570,
1.689185,-0.7278,0.5419,0.0051,-1.9911,-2.9284,-1.3141,-0.6264,0.0197,-1.1334,
1.704816,-0.7278,0.5419,0.0051,-1.9911,-2.9284,-1.3141,-0.5007,0.3446,-1.2128,
1.725691,-0.6367,0.7376,-0.0156,-1.9911,-2.9284,-1.3141,-0.5007,0.3446,-1.2128,
1.729304,-0.6367,0.7376,-0.0156,-0.6384,-0.6852,-1.6297,-0.5007,0.3446,-1.2128,
1.731482,-0.6367,0.7376,-0.0156,-0.6384,-0.6852,-1.6297,-0.2716,0.6397,-1.1601,
1.744949,-0.6367,0.7376,-0.0156,-0.6384,-0.6852,-1.6297,-0.0751,0.6210,-1.0035,
1.765192,-0.7850,0.5661,-0.0513,-0.6384,-0.6852,-1.6297,-0.0751,0.6210,-1.0035,
1.768541,-0.7850,0.5661,-0.0513,-1.6643,-2.0693,-1.8508,-0.0751,0.6210,-1.0035,
1.770608,-0.7850,0.5661,-0.0513,-1.6643,-2.0693,-1.8508,0.0362,0.5326,-0.8927,
1.785008,-0.7850,0.5661,-0.0513,-1.6643,-2.0693,-1.8508,0.0953,0.2951,-0.9918,
1.805628,-0.6799,0.4537,-0.0941,-1.6643,-2.0693,-1.8508,0.0953,0.2951,-0.9918,
1.807693,-0.6799,0.4537,-0.0941,-0.3256,-2.9373,-2.1433,0.0953,0.2951,-0.9918,
1.809635,-0.6799,0.4537,-0.0941,-0.3256,-2.9373,-2.1433,0.2051,0.2104,-1.1766,
1.825266,-0.6799,0.4537,-0.0941,-0.3256,-2.9373,-2.1433,0.2684,0.5268,-1.4456,
1.845438,-0.6794,0.4097,-0.1102,-0.3256,-2.9373,-2.1433,0.2684,0.5268,-1.4456,
1.847613,-0.6794,0.4097,-0.1102,0.0740,-3.0369,-2.1365,0.2684,0.5268,-1.4456,
1.849371,-0.6794,0.4097,-0.1102,0.0740,-3.0369,-2.1365,0.7308,0.5694,-1.4610,
1.865556,-0.6794,0.4097,-0.1102,0.0740,-3.0369,-2.1365,1.2219,0.4922,-1.2863,
1.885069,-0.6423,0.6088,-0.0716,0.0740,-3.0369,-2.1365,1.2219,0.4922,-1.2863,
1.886990,-0.6423,0.6088,-0.0716,0.8338,-0.7379,-1.3441,1.2219,0.4922,-1.2863,
1.888859,-0.6423,0.6088,-0.0716,0.8338,-0.7379,-1.3441,1.4035,0.8352,-1.0157,
1.904561,-0.6423,0.6088,-0.0716,0.8338,-0.7379,-1.3441,1.1143,1.1595,-0.3531,
1.924875,-0.5697,0.5353,-0.1368,0.8338,-0.7379,-1.3441,1.1143,1.1595,-0.3531,
1.927813,-0.5697,0.5353,-0.1368,1.7381,-1.2787,-1.3625,1.1143,1.1595,-0.3531,
1.929831,-0.5697,0.5353,-0.1368,1.7381,-1.2787,-1.3625,0.6413,0.8442,0.2290,
1.945139,-0.5697,0.5353,-0.1368,1.7381,-1.2787,-1.3625,0.6685,0.4671,0.3952,
1.964980,-0.4933,0.6484,-0.0086,1.7381,-1.2787,-1.3625,0.6685,0.4671,0.3952,
1.966816,-0.4933,0.6484,-0.0086,2.4018,-0.2563,0.2572,0.6685,0.4671,0.3952,
1.968519,-0.4933,0.6484,-0.0086,2.4018,-0.2563,0.2572,0.9923,0.2999,0.6402,
1.984978,-0.4933,0.6484,-0.0086,2.4018,-0.2563,0.2572,1.1164,0.5566,1.3332,
2.004235,-0.4740,0.5458,-0.2861,2.4018,-0.2563,0.2572,1.1164,0.5566,1.3332,
2.006134,-0.4740,0.5458,-0.2861,2.3156,-1.5192,-2.0581,1.1164,0.5566,1.3332,
2.007934,-0.4740,0.5458,-0.2861,2.3156,-1.5192,-2.0581,0.6551,1.1175,2.3841,
2.025010,-0.4740,0.5458,-0.2861,2.3156,-1.5192,-2.0581,0.5939,1.4253,3.5164,
2.044693,-0.5453,0.8812,0.0151,2.3156,-1.5192,-2.0581,0.5939,1.4253,3.5164,
2.047875,-0.5453,0.8812,0.0151,0.7112,1.0249,1.4053,0.5939,1.4253,3.5164,
2.049257,-0.5453,0.8812,0.0151,0.7112,1.0249,1.4053,0.9662,1.3465,4.6605,
2.064756,-0.5453,0.8812,0.0151,0.7112,1.0249,1.4053,0.8863,1.2634,5.2981,
2.085339,-0.6667,0.7894,-0.3215,0.7112,1.0249,1.4053,0.8863,1.2634,5.2981,
2.087086,-0.6667,0.7894,-0.3215,-2.1293,-0.8324,-1.3179,0.8863,1.2634,5.2981,
2.089118,-0.6667,0.7894,-0.3215,-2.1293,-0.8324,-1.3179,0.4842,1.5185,5.1948,
2.104252,-0.6667,0.7894,-0.3215,-2.1293,-0.8324,-1.3179,-0.1401,0.9209,3.7130,
2.124551,-0.2941,0.8250,-0.0660,-2.1293,-0.8324,-1.3179,-0.1401,0.9209,3.7130,
2.126578,-0.2941,0.8250,-0.0660,-0.1426,-1.1017,1.4182,-0.1401,0.9209,3.7130,
2.128403,-0.2941,0.8250,-0.0660,-0.1426,-1.1017,1.4182,-0.2967,-0.9694,2.0799,
2.143807,-0.2941,0.8250,-0.0660,-0.1426,-1.1017,1.4182,-0.0895,-2.2046,1.6778,
2.163987,-0.5387,2.5635,-0.3125,-0.1426,-1.1017,1.4182,-0.0895,-2.2046,1.6778,
2.166335,-0.5387,2.5635,-0.3125,-3.1139,15.7370,-1.2192,-0.0895,-2.2046,1.6778,
2.168383,-0.5387,2.5635,-0.3125,-3.1139,15.7370,-1.2192,0.9742,-4.0134,1.8370,
2.184662,-0.5387,2.5635,-0.3125,-3.1139,15.7370,-1.2192,1.1936,-4.3111,1.0551,
2.204755,0.2851,1.9630,-0.8866,-3.1139,15.7370,-1.2192,1.1936,-4.3111,1.0551,
2.206824,0.2851,1.9630,-0.8866,4.7269,9.8162,-6.7716,1.1936,-4.3111,1.0551,
2.208543,0.2851,1.9630,-0.8866,4.7269,9.8162,-6.7716,-0.2711,-4.1300,-0.9310,
2.224483,0.2851,1.9630,-0.8866,4.7269,9.8162,-6.7716,-1.3177,-3.0387,-1.3385,
2.244034,-0.4324,0.9213,0.0774,4.7269,9.8162,-6.7716,-1.3177,-3.0387,-1.3385,
2.246307,-0.4324,0.9213,0.0774,-1.6399,-0.3381,2.0585,-1.3177,-3.0387,-1.3385,
2.248078,-0.4324,0.9213,0.0774,-1.6399,-0.3381,2.0585,-0.8378,-0.7819,-0.3766,
2.264098,-0.4324,0.9213,0.0774,-1.6399,-0.3381,2.0585,-0.2514,-0.0341,0.3888,
2.283905,-0.1224,0.9201,-0.1595,-1.6399,-0.3381,2.0585,-0.2514,-0.0341,0.3888,
2.285808,-0.1224,0.9201,-0.1595,1.4154,-0.3762,-0.5106,-0.2514,-0.0341,0.3888,
2.287640,-0.1224,0.9201,-0.1595,1.4154,-0.3762,-0.5106,-0.2866,0.7915,0.6328,
2.303464,-0.1224,0.9201,-0.1595,1.4154,-0.3762,-0.5106,-0.2999,0.9561,0.4538,
2.323795,-0.2116,0.9755,-0.0762,1.4154,-0.3762,-0.5106,-0.2999,0.9561,0.4538,
2.326021,-0.2116,0.9755,-0.0762,0.3008,0.1009,0.2820,-0.2999,0.9561,0.4538,
2.327562,-0.2116,0.9755,-0.0762,0.3008,0.1009,0.2820,-0.2360,0.6871,0.2439,
2.343737,-0.2116,0.9755,-0.0762,0.3008,0.1009,0.2820,-0.1262,0.1230,0.2253,
2.364272,-0.5179,0.9474,-0.0853,0.3008,0.1009,0.2820,-0.1262,0.1230,0.2253,
2.366734,-0.5179,0.9474,-0.0853,-2.8043,-0.2029,0.1631,-0.1262,0.1230,0.2253,
2.368438,-0.5179,0.9474,-0.0853,-2.8043,-0.2029,0.1631,0.1193,-0.1933,0.3595,
2.385512,-0.5179,0.9474,-0.0853,-2.8043,-0.2029,0.1631,0.0905,0.0863,0.8543,
2.404314,-0.1058,0.9164,-0.3137,-2.8043,-0.2029,0.1631,0.0905,0.0863,0.8543,
2.406358,-0.1058,0.9164,-0.3137,1.0134,-0.5506,-2.0150,0.0905,0.0863,0.8543,
2.408401,-0.1058,0.9164,-0.3137,1.0134,-0.5506,-2.0150,-0.0831,0.4906,0.8400,
2.424371,-0.1058,0.9164,-0.3137,1.0134,-0.5506,-2.0150,-0.0810,0.3782,0.3872,
2.443055,-0.3032,0.8673,-0.0122,1.0134,-0.5506,-2.0150,-0.0810,0.3782,0.3872,
2.444495,-0.3032,0.8673,-0.0122,-1.1460,-1.0767,0.9466,-0.0810,0.3782,0.3872,
2.445052,-0.3032,0.8673,-0.0122,-1.1460,-1.0767,0.9466,0.3324,0.3915,0.7601,
2.463698,-0.3032,0.8673,-0.0122,-1.1460,-1.0767,0.9466,0.3148,-0.5103,0.9502,
2.485039,-0.1947,0.6259,-0.2656,-1.1460,-1.0767,0.9466,0.3148,-0.5103,0.9502,
2.488497,-0.1947,0.6259,-0.2656,-0.4073,-3.4841,-1.4147,0.3148,-0.5103,0.9502,
2.490388,-0.1947,0.6259,-0.2656,-0.4073,-3.4841,-1.4147,0.0815,-0.9545,1.0802,
2.504417,-0.1947,0.6259,-0.2656,-0.4073,-3.4841,-1.4147,-0.2972,-0.8671,0.9167,
2.523348,-0.1375,0.9088,-0.3916,-0.4073,-3.4841,-1.4147,-0.2972,-0.8671,0.9167,
2.526296,-0.1375,0.9088,-0.3916,-0.1855,-0.7681,-2.7322,-0.2972,-0.8671,0.9167,
2.529223,-0.1375,0.9088,-0.3916,-0.1855,-0.7681,-2.7322,-0.9992,-0.5774,0.9529,
2.543265,-0.1375,0.9088,-0.3916,-0.1855,-0.7681,-2.7322,-1.2895,0.4682,1.4227,
2.563639,-0.1647,1.2457,-0.3535,-0.1855,-0.7681,-2.7322,-1.2895,0.4682,1.4227,
2.565970,-0.1647,1.2457,-0.3535,-0.8995,2.4508,-2.7884,-1.2895,0.4682,1.4227,
2.567681,-0.1647,1.2457,-0.3535,-0.8995,2.4508,-2.7884,-1.4860,0.6471,1.9106,
2.584486,-0.1647,1.2457,-0.3535,-0.8995,2.4508,-2.7884,-2.1588,-0.6903,2.1470,
2.603359,0.1893,0.7051,0.5570,-0.8995,2.4508,-2.7884,-2.1588,-0.6903,2.1470,
2.605934,0.1893,0.7051,0.5570,1.7727,-2.8966,5.4277,-2.1588,-0.6903,2.1470,
2.607837,0.1893,0.7051,0.5570,1.7727,-2.8966,5.4277,-1.4882,-0.4655,1.9367,
2.623753,0.1893,0.7051,0.5570,1.7727,-2.8966,5.4277,0.0101,-0.0336,1.9329,
2.643696,0.2685,0.9457,0.0823,1.7727,-2.8966,5.4277,0.0101,-0.0336,1.9329,
2.646986,0.2685,0.9457,0.0823,1.7882,-0.4971,0.4860,0.0101,-0.0336,1.9329,
2.648534,0.2685,0.9457,0.0823,1.7882,-0.4971,0.4860,0.4890,0.3835,1.8903,
2.663816,0.2685,0.9457,0.0823,1.7882,-0.4971,0.4860,0.6812,0.6392,1.6671,
2.683273,0.1549,1.2650,0.2736,1.7882,-0.4971,0.4860,0.6812,0.6392,1.6671,
2.685234,0.1549,1.2650,0.2736,-0.0086,2.7109,2.5524,0.6812,0.6392,1.6671,
2.686830,0.1549,1.2650,0.2736,-0.0086,2.7109,2.5524,1.3444,0.2370,1.2272,
2.703484,0.1549,1.2650,0.2736,-0.0086,2.7109,2.5524,1.5564,-0.1593,0.6557,
2.722989,0.3225,1.0505,-0.5319,-0.0086,2.7109,2.5524,1.5564,-0.1593,0.6557,
2.725145,0.3225,1.0505,-0.5319,1.2719,0.6817,-4.7803,1.5564,-0.1593,0.6557,
2.726803,0.3225,1.0505,-0.5319,1.2719,0.6817,-4.7803,0.9507,-0.5491,0.2269,
2.744090,0.3225,1.0505,-0.5319,1.2719,0.6817,-4.7803,0.3617,-0.5252,-0.0687,
2.763382,0.3337,1.0332,-0.2575,1.2719,0.6817,-4.7803,0.3617,-0.5252,-0.0687,
2.765470,0.3337,1.0332,-0.2575,1.3638,0.5330,-1.7973,0.3617,-0.5252,-0.0687,
2.766752,0.3337,1.0332,-0.2575,1.3638,0.5330,-1.7973,0.0373,-0.5635,-0.3638,
2.784317,0.3337,1.0332,-0.2575,1.3638,0.5330,-1.7973,-0.2700,-0.5566,-0.5731,
2.803041,0.2262,1.0007,-0.2069,1.3638,0.5330,-1.7973,-0.2700,-0.5566,-0.5731,
2.805492,0.2262,1.0007,-0.2069,0.5007,0.1793,-1.2944,-0.2700,-0.5566,-0.5731,
2.807132,0.2262,1.0007,-0.2069,0.5007,0.1793,-1.2944,-0.5545,-0.3808,-0.7595,
2.823817,0.2262,1.0007,-0.2069,0.5007,0.1793,-1.2944,-0.7388,-0.2860,-0.6839,
2.843646,-0.0694,0.8162,-0.0987,0.5007,0.1793,-1.2944,-0.7388,-0.2860,-0.6839,
2.846740,-0.0694,0.8162,-0.0987,-2.1034,-1.6893,-0.4382,-0.7388,-0.2860,-0.6839,
2.848634,-0.0694,0.8162,-0.0987,-2.1034,-1.6893,-0.4382,-0.8277,-0.1369,-0.3201,
2.862536,-0.0694,0.8162,-0.0987,-2.1034,-1.6893,-0.4382,-0.7297,-0.0794,-0.1236,
2.883360,0.0054,0.9381,-0.0525,-2.1034,-1.6893,-0.4382,-0.7297,-0.0794,-0.1236,
2.885765,0.0054,0.9381,-0.0525,-1.2713,-0.5199,-0.2649,-0.7297,-0.0794,-0.1236,
2.887353,0.0054,0.9381,-0.0525,-1.2713,-0.5199,-0.2649,-0.7153,-0.1289,0.0165,
2.902752,0.0054,0.9381,-0.0525,-1.2713,-0.5199,-0.2649,-0.6983,-0.0874,0.1475,
2.923144,0.1691,0.9836,-0.0843,-1.2713,-0.5199,-0.2649,-0.6983,-0.0874,0.1475,
2.925894,0.1691,0.9836,-0.0843,0.3078,-0.0744,-0.8168,-0.6983,-0.0874,0.1475,
2.927877,0.1691,0.9836,-0.0843,0.3078,-0.0744,-0.8168,-0.6631,-0.1603,0.2184,
2.942538,0.1691,0.9836,-0.0843,0.3078,-0.0744,-0.8168,-0.7393,-0.1198,0.1007,
2.963035,0.1224,0.8766,-0.0723,0.3078,-0.0744,-0.8168,-0.7393,-0.1198,0.1007,
2.966554,0.1224,0.8766,-0.0723,-0.2094,-1.1116,-0.9478,-0.7393,-0.1198,0.1007,
2.968381,0.1224,0.8766,-0.0723,-0.2094,-1.1116,-0.9478,-0.8517,0.0442,0.0426,
2.983649,0.1224,0.8766,-0.0723,-0.2094,-1.1116,-0.9478,-0.8661,0.0399,0.0453,
3.004128,0.2380,0.9753,0.0823,-0.2094,-1.1116,-0.9478,-0.8661,0.0399,0.0453,
3.006166,0.2380,0.9753,0.0823,0.6155,-0.0965,0.9571,-0.8661,0.0399,0.0453,
3.007869,0.2380,0.9753,0.0823,0.6155,-0.0965,0.9571,-0.7505,0.0490,-0.1001,
3.023743,0.2380,0.9753,0.0823,0.6155,-0.0965,0.9571,-0.6179,0.0027,-0.2210,
3.043708,0.0826,0.9318,0.0349,0.6155,-0.0965,0.9571,-0.6179,0.0027,-0.2210,
3.045679,0.0826,0.9318,0.0349,-0.8403,-0.5348,0.2279,-0.6179,0.0027,-0.2210,
3.047618,0.0826,0.9318,0.0349,-0.8403,-0.5348,0.2279,-0.6003,-0.1523,-0.1747,
3.063271,0.0826,0.9318,0.0349,-0.8403,-0.5348,0.2279,-0.6812,-0.1385,-0.0469,
3.083188,0.1014,1.0034,0.0161,-0.8403,-0.5348,0.2279,-0.6812,-0.1385,-0.0469,
3.085271,0.1014,1.0034,0.0161,-0.1991,0.0997,0.0504,-0.6812,-0.1385,-0.0469,
3.086829,0.1014,1.0034,0.0161,-0.1991,0.0997,0.0504,-0.7084,-0.0634,-0.0053,
3.102576,0.1014,1.0034,0.0161,-0.1991,0.0997,0.0504,-0.6573,0.0261,0.0240,
3.122524,0.0799,0.9569,0.0100,-0.1991,0.0997,0.0504,-0.6573,0.0261,0.0240,
3.124284,0.0799,0.9569,0.0100,-0.2495,-0.3735,-0.0072,-0.6573,0.0261,0.0240,
3.126185,0.0799,0.9569,0.0100,-0.2495,-0.3735,-0.0072,-0.5428,0.0613,-0.0016,
3.142121,0.0799,0.9569,0.0100,-0.2495,-0.3735,-0.0072,-0.3856,0.0996,-0.1065,
3.162526,0.1730,0.9391,-0.0474,-0.2495,-0.3735,-0.0072,-0.3856,0.0996,-0.1065,
3.164798,0.1730,0.9391,-0.0474,0.6761,-0.5463,-0.7432,-0.3856,0.0996,-0.1065,
3.166501,0.1730,0.9391,-0.0474,0.6761,-0.5463,-0.7432,-0.3531,0.0000,-0.3542,
3.182793,0.1730,0.9391,-0.0474,0.6761,-0.5463,-0.7432,-0.6381,-0.3222,-0.4698,
3.203352,0.0205,1.0684,-0.0518,0.6761,-0.5463,-0.7432,-0.6381,-0.3222,-0.4698,
3.205525,0.0205,1.0684,-0.0518,-0.6587,0.7107,-0.9447,-0.6381,-0.3222,-0.4698,
3.207291,0.0205,1.0684,-0.0518,-0.6587,0.7107,-0.9447,-1.1745,-0.8639,-0.4868,
3.222137,0.0205,1.0684,-0.0518,-0.6587,0.7107,-0.9447,-1.5036,-0.7404,-0.2929,
3.242957,0.0428,1.0420,0.1422,-0.6587,0.7107,-0.9447,-1.5036,-0.7404,-0.2929,
3.244992,0.0428,1.0420,0.1422,-0.3073,0.4746,0.4764,-1.5036,-0.7404,-0.2929,
3.246455,0.0428,1.0420,0.1422,-0.3073,0.4746,0.4764,-1.5228,-0.1401,-0.0991,
3.262672,0.0428,1.0420,0.1422,-0.3073,0.4746,0.4764,-1.3103,0.2413,-0.1443,
3.282672,0.0921,0.9384,0.2812,-0.3073,0.4746,0.4764,-1.3103,0.2413,-0.1443,
3.284514,0.0921,0.9384,0.2812,0.2260,-0.4766,1.2889,-1.3103,0.2413,-0.1443,
3.286076,0.0921,0.9384,0.2812,0.2260,-0.4766,1.2889,-1.0738,0.1481,-0.2498,
3.302301,0.0921,0.9384,0.2812,0.2260,-0.4766,1.2889,-0.8810,-0.0751,-0.3340,
3.322580,0.0882,0.9977,0.3142,0.2260,-0.4766,1.2889,-0.8810,-0.0751,-0.3340,
3.324530,0.0882,0.9977,0.3142,0.2945,0.1648,1.2259,-0.8810,-0.0751,-0.3340,
3.326046,0.0882,0.9977,0.3142,0.2945,0.1648,1.2259,-0.7867,-0.3137,-0.3851,
3.342482,0.0882,0.9977,0.3142,0.2945,0.1648,1.2259,-0.7558,-0.5305,-0.3931,
3.361738,0.0625,0.9914,0.3225,0.2945,0.1648,1.2259,-0.7558,-0.5305,-0.3931,
3.364135,0.0625,0.9914,0.3225,0.1508,0.1589,1.0096,-0.7558,-0.5305,-0.3931,
3.365661,0.0625,0.9914,0.3225,0.1508,0.1589,1.0096,-0.6951,-0.5225,-0.3388,
3.382539,0.0625,0.9914,0.3225,0.1508,0.1589,1.0096,-0.6658,-0.2541,-0.2461,
3.402976,-0.0078,0.8959,0.2929,0.1508,0.1589,1.0096,-0.6658,-0.2541,-0.2461,
3.404997,-0.0078,0.8959,0.2929,-0.4623,-0.7173,0.4558,-0.6658,-0.2541,-0.2461,
3.406834,-0.0078,0.8959,0.2929,-0.4623,-0.7173,0.4558,-0.5167,-0.2189,-0.1646,
3.422747,-0.0078,0.8959,0.2929,-0.4623,-0.7173,0.4558,-0.5491,-0.0682,-0.1619,
3.441892,-0.0633,0.9323,0.2619,-0.4623,-0.7173,0.4558,-0.5491,-0.0682,-0.1619,
3.445060,-0.0633,0.9323,0.2619,-0.9459,-0.3091,-0.0503,-0.5491,-0.0682,-0.1619,
3.446995,-0.0633,0.9323,0.2619,-0.9459,-0.3091,-0.0503,-0.5987,-0.0570,-0.1843,
3.462354,-0.0633,0.9323,0.2619,-0.9459,-0.3091,-0.0503,-0.5731,-0.1385,-0.2290,
3.482419,-0.1151,0.9274,0.2336,-0.9459,-0.3091,-0.0503,-0.5731,-0.1385,-0.2290,
3.484842,-0.1151,0.9274,0.2336,-0.5994,-0.3615,-0.2783,-0.5731,-0.1385,-0.2290,
3.486807,-0.1151,0.9274,0.2336,-0.5994,-0.3615,-0.2783,-0.6338,-0.1593,-0.2658,
3.502950,-0.1151,0.9274,0.2336,-0.5994,-0.3615,-0.2783,-0.8325,-0.0021,-0.3324,
3.522579,-0.1441,0.9203,0.3244,-0.5994,-0.3615,-0.2783,-0.8325,-0.0021,-0.3324,
3.525111,-0.1441,0.9203,0.3244,-0.7729,-0.3442,0.3347,-0.8325,-0.0021,-0.3324,
3.527475,-0.1441,0.9203,0.3244,-0.7729,-0.3442,0.3347,-0.9310,-0.0005,-0.3824,
3.542281,-0.1441,0.9203,0.3244,-0.7729,-0.3442,0.3347,-0.8639,-0.2439,-0.3957,
3.562105,-0.1742,0.9489,0.4727,-0.7729,-0.3442,0.3347,-0.8639,-0.2439,-0.3957,
3.565283,-0.1742,0.9489,0.4727,-0.9220,0.0605,1.4385,-0.8639,-0.2439,-0.3957,
3.567043,-0.1742,0.9489,0.4727,-0.9220,0.0605,1.4385,-0.6754,-0.4746,-0.3915,
3.581554,-0.1742,0.9489,0.4727,-0.9220,0.0605,1.4385,-0.4091,-0.6631,-0.3382,
3.601872,-0.2057,1.0095,0.5521,-0.9220,0.0605,1.4385,-0.4091,-0.6631,-0.3382,
3.605938,-0.2057,1.0095,0.5521,-1.1668,0.7404,1.9930,-0.4091,-0.6631,-0.3382,
3.607717,-0.2057,1.0095,0.5521,-1.1668,0.7404,1.9930,-0.1694,-0.7361,-0.2541,
3.621681,-0.2057,1.0095,0.5521,-1.1668,0.7404,1.9930,-0.0208,-0.6013,-0.1731,
3.642104,-0.1913,0.9091,0.5311,-1.1668,0.7404,1.9930,-0.0208,-0.6013,-0.1731,
3.644281,-0.1913,0.9091,0.5311,-1.0314,-0.2186,1.7193,-0.0208,-0.6013,-0.1731,
3.646152,-0.1913,0.9091,0.5311,-1.0314,-0.2186,1.7193,0.0538,-0.4932,-0.1049,
3.662262,-0.1913,0.9091,0.5311,-1.0314,-0.2186,1.7193,0.0623,-0.6248,-0.0927,
3.681541,-0.0989,0.8802,0.5431,-1.0314,-0.2186,1.7193,0.0623,-0.6248,-0.0927,
3.683840,-0.0989,0.8802,0.5431,-0.1590,-0.4966,1.8172,0.0623,-0.6248,-0.0927,
3.685716,-0.0989,0.8802,0.5431,-0.1590,-0.4966,1.8172,0.0405,-0.9651,-0.1507,
3.701639,-0.0989,0.8802,0.5431,-0.1590,-0.4966,1.8172,0.0911,-1.3231,-0.1774,
3.722118,-0.0738,0.9362,0.5020,-0.1590,-0.4966,1.8172,0.0911,-1.3231,-0.1774,
3.724334,-0.0738,0.9362,0.5020,-0.0076,0.0554,1.3846,0.0911,-1.3231,-0.1774,
3.726005,-0.0738,0.9362,0.5020,-0.0076,0.0554,1.3846,0.1465,-1.4855,-0.1561,
3.742114,-0.0738,0.9362,0.5020,-0.0076,0.0554,1.3846,0.2083,-1.4498,-0.1076,
3.760931,-0.0310,0.9865,0.4102,-0.0076,0.0554,1.3846,0.2083,-1.4498,-0.1076,
3.763237,-0.0310,0.9865,0.4102,0.2553,0.5320,0.4991,0.2083,-1.4498,-0.1076,
3.764819,-0.0310,0.9865,0.4102,0.2553,0.5320,0.4991,0.2402,-1.2773,-0.0559,
3.781926,-0.0310,0.9865,0.4102,0.2553,0.5320,0.4991,0.2360,-1.0189,0.0213,
3.801833,-0.0755,1.0004,0.3274,0.2553,0.5320,0.4991,0.2360,-1.0189,0.0213,
3.805148,-0.0755,1.0004,0.3274,-0.3287,0.6381,-0.2533,0.2360,-1.0189,0.0213,
3.806676,-0.0755,1.0004,0.3274,-0.3287,0.6381,-0.2533,0.2093,-0.7270,0.1214,
3.822109,-0.0755,1.0004,0.3274,-0.3287,0.6381,-0.2533,0.2093,-0.4607,0.1816,
3.841698,-0.0804,0.9787,0.2888,-0.3287,0.6381,-0.2533,0.2093,-0.4607,0.1816,
3.844120,-0.0804,0.9787,0.2888,-0.5024,0.3943,-0.5622,0.2093,-0.4607,0.1816,
3.845965,-0.0804,0.9787,0.2888,-0.5024,0.3943,-0.5622,0.2258,-0.3712,0.1561,
3.861497,-0.0804,0.9787,0.2888,-0.5024,0.3943,-0.5622,0.2152,-0.3718,0.0863,
3.881697,-0.0909,1.0151,0.2800,-0.5024,0.3943,-0.5622,0.2152,-0.3718,0.0863,
3.885398,-0.0909,1.0151,0.2800,-0.6869,0.7184,-0.5647,0.2152,-0.3718,0.0863,
3.887456,-0.0909,1.0151,0.2800,-0.6869,0.7184,-0.5647,0.1784,-0.3643,-0.0208,
3.901021,-0.0909,1.0151,0.2800,-0.6869,0.7184,-0.5647,0.1177,-0.3617,-0.1252,
3.921445,-0.1087,1.0266,0.3608,-0.6869,0.7184,-0.5647,0.1177,-0.3617,-0.1252,
3.923574,-0.1087,1.0266,0.3608,-0.8730,0.8117,0.2814,0.1177,-0.3617,-0.1252,
3.925252,-0.1087,1.0266,0.3608,-0.8730,0.8117,0.2814,0.1129,-0.4645,-0.1481,
3.941493,-0.1087,1.0266,0.3608,-0.8730,0.8117,0.2814,0.2605,-0.6131,-0.1598,
3.961167,0.0557,0.9946,0.4148,-0.8730,0.8117,0.2814,0.2605,-0.6131,-0.1598,
3.964846,0.0557,0.9946,0.4148,0.7706,0.5128,0.7710,0.2605,-0.6131,-0.1598,
3.966441,0.0557,0.9946,0.4148,0.7706,0.5128,0.7710,0.4671,-0.7505,-0.2083,
3.981062,0.0557,0.9946,0.4148,0.7706,0.5128,0.7710,0.6221,-0.8719,-0.2370,
4.001410,0.1634,0.9376,0.3679,0.7706,0.5128,0.7710,0.6221,-0.8719,-0.2370,
4.005315,0.1634,0.9376,0.3679,1.7891,-0.1100,0.4969,0.6221,-0.8719,-0.2370,
4.007313,0.1634,0.9376,0.3679,1.7891,-0.1100,0.4969,0.7260,-0.9630,-0.2562,
4.020891,0.1634,0.9376,0.3679,1.7891,-0.1100,0.4969,0.7958,-1.1830,-0.2850,
4.041858,0.3535,0.8485,0.3836,1.7891,-0.1100,0.4969,0.7958,-1.1830,-0.2850,
4.044084,0.3535,0.8485,0.3836,3.5557,-1.0636,0.8947,0.7958,-1.1830,-0.2850,
4.045736,0.3535,0.8485,0.3836,3.5557,-1.0636,0.8947,0.8293,-1.5633,-0.3515,
4.061487,0.3535,0.8485,0.3836,3.5557,-1.0636,0.8947,0.7798,-1.9164,-0.4117,
4.081313,0.4727,0.9416,0.3420,3.5557,-1.0636,0.8947,0.7798,-1.9164,-0.4117,
4.083366,0.4727,0.9416,0.3420,4.6278,-0.2330,0.7685,0.7798,-1.9164,-0.4117,
4.085005,0.4727,0.9416,0.3420,4.6278,-0.2330,0.7685,0.5838,-1.9255,-0.3654,
4.101476,0.4727,0.9416,0.3420,4.6278,-0.2330,0.7685,0.3169,-1.3907,-0.2205,
4.121418,0.3985,0.8981,0.2868,4.6278,-0.2330,0.7685,0.3169,-1.3907,-0.2205,
4.123468,0.3985,0.8981,0.2868,3.7835,-0.6996,0.3835,0.3169,-1.3907,-0.2205,
4.125110,0.3985,0.8981,0.2868,3.7835,-0.6996,0.3835,0.1688,-0.5188,-0.1049,
4.140762,0.3985,0.8981,0.2868,3.7835,-0.6996,0.3835,0.1635,-0.0980,-0.0618,
4.161474,0.1901,0.9496,0.2643,3.7835,-0.6996,0.3835,0.1635,-0.0980,-0.0618,
4.163834,0.1901,0.9496,0.2643,1.6658,-0.2048,0.2089,0.1635,-0.0980,-0.0618,
4.165550,0.1901,0.9496,0.2643,1.6658,-0.2048,0.2089,0.1870,-0.1774,0.0053,
4.181291,0.1901,0.9496,0.2643,1.6658,-0.2048,0.2089,0.2583,-0.4037,-0.0123,
4.201737,0.1649,0.8978,0.2714,1.6658,-0.2048,0.2089,0.2583,-0.4037,-0.0123,
4.204044,0.1649,0.8978,0.2714,1.3208,-0.7259,0.3435,0.2583,-0.4037,-0.0123,
4.205743,0.1649,0.8978,0.2714,1.3208,-0.7259,0.3435,0.4192,-0.6344,-0.0815,
4.221610,0.1649,0.8978,0.2714,1.3208,-0.7259,0.3435,0.5965,-0.6567,-0.1220,
4.241121,0.1439,0.9342,0.1798,1.3208,-0.7259,0.3435,0.5965,-0.6567,-0.1220,
4.243243,0.1439,0.9342,0.1798,1.0480,-0.4113,-0.3632,0.5965,-0.6567,-0.1220,
4.245051,0.1439,0.9342,0.1798,1.0480,-0.4113,-0.3632,0.6786,-0.6163,-0.0932,
4.260158,0.1439,0.9342,0.1798,1.0480,-0.4113,-0.3632,0.6908,-0.5156,-0.0884,
4.281206,0.1097,0.9865,0.1686,1.0480,-0.4113,-0.3632,0.6908,-0.5156,-0.0884,
4.284108,0.1097,0.9865,0.1686,0.6615,0.0487,-0.2114,0.6908,-0.5156,-0.0884,
4.285892,0.1097,0.9865,0.1686,0.6615,0.0487,-0.2114,0.7127,-0.2668,-0.0959,
4.305171,0.1097,0.9865,0.1686,0.6615,0.0487,-0.2114,0.7643,-0.0581,0.0138,
4.321106,0.0633,1.1390,0.2687,0.6615,0.0487,-0.2114,0.7643,-0.0581,0.0138,
4.323250,0.0633,1.1390,0.2687,0.2012,1.4931,1.0488,0.7643,-0.0581,0.0138,
4.324838,0.0633,1.1390,0.2687,0.2012,1.4931,1.0488,0.8996,-0.0368,0.1699,
4.341478,0.0633,1.1390,0.2687,0.2012,1.4931,1.0488,1.0440,-0.1023,0.4288,
4.360993,-0.0484,1.3591,0.2665,0.2012,1.4931,1.0488,1.0440,-0.1023,0.4288,
4.364423,-0.0484,1.3591,0.2665,-1.0127,3.6018,1.4049,1.0440,-0.1023,0.4288,
4.366032,-0.0484,1.3591,0.2665,-1.0127,3.6018,1.4049,1.0365,-0.3270,0.7691,
4.379985,-0.0484,1.3591,0.2665,-1.0127,3.6018,1.4049,0.9273,-0.5332,1.1047,
4.400866,0.1725,1.1192,0.1776,-1.0127,3.6018,1.4049,0.9273,-0.5332,1.1047,
4.404239,0.1725,1.1192,0.1776,0.7712,1.2383,0.9273,0.9273,-0.5332,1.1047,
4.405773,0.1725,1.1192,0.1776,0.7712,1.2383,0.9273,0.7627,-0.7313,1.2863,
4.420885,0.1725,1.1192,0.1776,0.7712,1.2383,0.9273,0.5598,-0.6168,1.1388,
4.440679,0.6374,0.7681,0.0816,0.7712,1.2383,0.9273,0.5598,-0.6168,1.1388,
4.442752,0.6374,0.7681,0.0816,4.8059,-2.1576,0.2549,0.5598,-0.6168,1.1388,
4.444601,0.6374,0.7681,0.0816,4.8059,-2.1576,0.2549,0.5710,-0.3451,0.7995,
4.460168,0.6374,0.7681,0.0816,4.8059,-2.1576,0.2549,0.7936,-0.3894,0.3723,
4.480710,0.5995,0.8521,-0.0090,4.8059,-2.1576,0.2549,0.7936,-0.3894,0.3723,
4.482876,0.5995,0.8521,-0.0090,4.1407,-1.2972,-0.3602,0.7936,-0.3894,0.3723,
4.484799,0.5995,0.8521,-0.0090,4.1407,-1.2972,-0.3602,0.9476,-0.4123,0.0682,
4.503064,0.5995,0.8521,-0.0090,4.1407,-1.2972,-0.3602,0.8320,-0.2924,-0.1806,
4.520760,0.4422,0.9264,-0.1791,4.1407,-1.2972,-0.3602,0.8320,-0.2924,-0.1806,
4.523111,0.4422,0.9264,-0.1791,2.5517,-0.5641,-1.6548,0.8320,-0.2924,-0.1806,
4.525433,0.4422,0.9264,-0.1791,2.5517,-0.5641,-1.6548,0.4719,0.0368,-0.4309,
4.539726,0.4422,0.9264,-0.1791,2.5517,-0.5641,-1.6548,0.2535,0.2887,-0.5603,
4.560646,0.3125,0.8006,-0.2289,2.5517,-0.5641,-1.6548,0.2535,0.2887,-0.5603,
4.562762,0.3125,0.8006,-0.2289,1.4162,-1.8185,-1.9932,0.2535,0.2887,-0.5603,
4.564729,0.3125,0.8006,-0.2289,1.4162,-1.8185,-1.9932,0.0479,0.2466,-0.6514,
4.579868,0.3125,0.8006,-0.2289,1.4162,-1.8185,-1.9932,-0.1726,0.3052,-0.6498,
4.600269,0.2575,0.8883,-0.1742,1.4162,-1.8185,-1.9932,-0.1726,0.3052,-0.6498,
4.602779,0.2575,0.8883,-0.1742,1.0860,-0.9926,-1.4735,-0.1726,0.3052,-0.6498,
4.604684,0.2575,0.8883,-0.1742,1.0860,-0.9926,-1.4735,-0.4740,0.2290,-0.6338,
4.619987,0.2575,0.8883,-0.1742,1.0860,-0.9926,-1.4735,-0.6637,0.3036,-0.5928,
4.640453,0.2883,0.7586,0.0178,1.0860,-0.9926,-1.4735,-0.6637,0.3036,-0.5928,
4.642852,0.2883,0.7586,0.0178,1.6245,-2.2989,0.1736,-0.6637,0.3036,-0.5928,
4.644573,0.2883,0.7586,0.0178,1.6245,-2.2989,0.1736,-0.6328,0.1923,-0.5326,
4.661025,0.2883,0.7586,0.0178,1.6245,-2.2989,0.1736,-0.5204,-0.0282,-0.5161,
4.680391,0.2113,0.7146,0.0347,1.6245,-2.2989,0.1736,-0.5204,-0.0282,-0.5161,
4.682648,0.2113,0.7146,0.0347,1.0744,-2.7501,0.1107,-0.5204,-0.0282,-0.5161,
4.684393,0.2113,0.7146,0.0347,1.0744,-2.7501,0.1107,-0.4421,-0.0905,-0.4810,
4.700821,0.2113,0.7146,0.0347,1.0744,-2.7501,0.1107,-0.3526,-0.1646,-0.4005,
4.719880,0.1273,0.7852,-0.0814,1.0744,-2.7501,0.1107,-0.3526,-0.1646,-0.4005,
4.721907,0.1273,0.7852,-0.0814,0.4210,-2.0694,-1.1769,-0.3526,-0.1646,-0.4005,
4.723884,0.1273,0.7852,-0.0814,0.4210,-2.0694,-1.1769,-0.3430,-0.2141,-0.2312,
4.739967,0.1273,0.7852,-0.0814,0.4210,-2.0694,-1.1769,-0.4677,-0.3297,-0.2312,
4.760528,0.1600,0.9489,-0.0364,0.4210,-2.0694,-1.1769,-0.4677,-0.3297,-0.2312,
4.764012,0.1600,0.9489,-0.0364,0.8270,-0.4652,-0.8860,-0.4677,-0.3297,-0.2312,
4.766060,0.1600,0.9489,-0.0364,0.8270,-0.4652,-0.8860,-0.6290,-0.2679,-0.2503,
4.779964,0.1600,0.9489,-0.0364,0.8270,-0.4652,-0.8860,-0.7617,-0.0863,-0.3430,
4.799786,0.1138,0.9657,0.0391,0.8270,-0.4652,-0.8860,-0.7617,-0.0863,-0.3430,
4.802766,0.1138,0.9657,0.0391,0.4797,-0.2898,-0.4072,-0.7617,-0.0863,-0.3430,
4.804794,0.1138,0.9657,0.0391,0.4797,-0.2898,-0.4072,-0.8762,0.0511,-0.3925,
4.819778,0.1138,0.9657,0.0391,0.4797,-0.2898,-0.4072,-0.9044,0.0096,-0.3654,
4.839566,0.1722,0.9442,0.1796,0.4797,-0.2898,-0.4072,-0.9044,0.0096,-0.3654,
4.841995,0.1722,0.9442,0.1796,1.1826,-0.4744,0.6279,-0.9044,0.0096,-0.3654,
4.843794,0.1722,0.9442,0.1796,1.1826,-0.4744,0.6279,-0.8080,-0.1997,-0.3004,
4.859285,0.1722,0.9442,0.1796,1.1826,-0.4744,0.6279,-0.8240,-0.4959,-0.0341,
4.879728,0.4090,1.2113,0.3142,1.1826,-0.4744,0.6279,-0.8240,-0.4959,-0.0341,
4.881332,0.4090,1.2113,0.3142,3.5434,2.1816,1.6366,-0.8240,-0.4959,-0.0341,
4.882544,0.4090,1.2113,0.3142,3.5434,2.1816,1.6366,-0.9294,-0.5337,-0.0394,
4.900193,0.4090,1.2113,0.3142,3.5434,2.1816,1.6366,-0.7681,-0.2035,-0.3031,
4.919564,0.2069,0.9364,0.4046,3.5434,2.1816,1.6366,-0.7681,-0.2035,-0.3031,
4.922499,0.2069,0.9364,0.4046,1.5789,-0.4572,2.1895,-0.7681,-0.2035,-0.3031,
4.924651,0.2069,0.9364,0.4046,1.5789,-0.4572,2.1895,-0.2738,0.1060,-0.6301,
4.940705,0.2069,0.9364,0.4046,1.5789,-0.4572,2.1895,-0.0362,0.0985,-0.6748,
4.959208,-0.0156,0.6987,0.0760,1.5789,-0.4572,2.1895,-0.0362,0.0985,-0.6748,
4.962020,-0.0156,0.6987,0.0760,-0.3438,-2.7839,-1.0916,-0.0362,0.0985,-0.6748,
4.963740,-0.0156,0.6987,0.0760,-0.3438,-2.7839,-1.0916,-0.2242,-0.0772,-0.3494,
4.979848,-0.0156,0.6987,0.0760,-0.3438,-2.7839,-1.0916,-0.2977,-0.5124,-0.0154,
5.000531,0.1104,1.0029,0.1422,-0.3438,-2.7839,-1.0916,-0.2977,-0.5124,-0.0154,
5.004899,0.1104,1.0029,0.1422,0.9172,0.2150,-0.5379,-0.2977,-0.5124,-0.0154,
5.006452,0.1104,1.0029,0.1422,0.9172,0.2150,-0.5379,-0.2818,-0.7079,-0.0080,
5.019699,0.1104,1.0029,0.1422,0.9172,0.2150,-0.5379,-0.2653,-0.6466,-0.0868,
5.039754,0.1546,1.0031,0.2274,0.9172,0.2150,-0.5379,-0.2653,-0.6466,-0.0868,
5.041801,0.1546,1.0031,0.2274,1.2746,0.2389,0.2011,-0.2653,-0.6466,-0.0868,
5.043298,0.1546,1.0031,0.2274,1.2746,0.2389,0.2011,-0.2168,-0.6061,-0.0858,
5.059765,0.1546,1.0031,0.2274,1.2746,0.2389,0.2011,-0.1124,-0.6887,-0.0794,
5.079279,0.0787,0.9611,0.2326,1.2746,0.2389,0.2011,-0.1124,-0.6887,-0.0794,
5.081303,0.0787,0.9611,0.2326,-0.3343,-0.0991,0.1917,-0.1124,-0.6887,-0.0794,
5.082959,0.0787,0.9611,0.2326,-0.3343,-0.0991,0.1917,-0.0618,-0.7121,-0.0591,
5.099375,0.0787,0.9611,0.2326,-0.3343,-0.0991,0.1917,0.0059,-0.8144,0.0538,
5.119068,0.0945,0.9738,0.2223,-0.3343,-0.0991,0.1917,0.0059,-0.8144,0.0538,
5.121469,0.0945,0.9738,0.2223,-0.1222,0.0251,0.0635,0.0059,-0.8144,0.0538,
5.123074,0.0945,0.9738,0.2223,-0.1222,0.0251,0.0635,0.0953,-0.8693,0.1422,
5.139240,0.0945,0.9738,0.2223,-0.1222,0.0251,0.0635,0.1976,-0.8208,0.1300,
5.159267,0.0889,0.9433,0.1522,-0.1222,0.0251,0.0635,0.1976,-0.8208,0.1300,
5.162694,0.0889,0.9433,0.1522,-0.2948,-0.2814,-0.5274,0.1976,-0.8208,0.1300,
5.166327,0.0889,0.9433,0.1522,-0.2948,-0.2814,-0.5274,0.3143,-0.7622,0.0778,
5.179137,0.0889,0.9433,0.1522,-0.2948,-0.2814,-0.5274,0.4085,-0.6956,0.0490,
5.199699,0.0437,0.8819,0.0889,-0.2948,-0.2814,-0.5274,0.4085,-0.6956,0.0490,
5.203757,0.0437,0.8819,0.0889,-0.8112,-0.9091,-0.9698,0.4085,-0.6956,0.0490,
5.206013,0.0437,0.8819,0.0889,-0.8112,-0.9091,-0.9698,0.4202,-0.6727,0.0879,
5.218925,0.0437,0.8819,0.0889,-0.8112,-0.9091,-0.9698,0.3489,-0.7430,0.1454,
5.241036,0.0237,0.9430,0.0362,-0.8112,-0.9091,-0.9698,0.3489,-0.7430,0.1454,
5.243546,0.0237,0.9430,0.0362,-0.5011,-0.4664,-0.8231,0.3489,-0.7430,0.1454,
5.245554,0.0237,0.9430,0.0362,-0.5011,-0.4664,-0.8231,0.2509,-0.7883,0.2173,
5.259772,0.0237,0.9430,0.0362,-0.5011,-0.4664,-0.8231,0.2051,-0.7116,0.3350,
5.279310,0.0643,1.0354,0.0086,-0.5011,-0.4664,-0.8231,0.2051,-0.7116,0.3350,
5.282527,0.0643,1.0354,0.0086,-0.2349,0.4348,-0.9666,0.2051,-0.7116,0.3350,
5.284676,0.0643,1.0354,0.0086,-0.2349,0.4348,-0.9666,0.1390,-0.6716,0.4639,
5.298328,0.0643,1.0354,0.0086,-0.2349,0.4348,-0.9666,-0.0154,-0.6296,0.4874,
5.319356,0.1038,0.9821,-0.0144,-0.2349,0.4348,-0.9666,-0.0154,-0.6296,0.4874,
5.321603,0.1038,0.9821,-0.0144,-0.0481,-0.0747,-1.1190,-0.0154,-0.6296,0.4874,
5.323634,0.1038,0.9821,-0.0144,-0.0481,-0.0747,-1.1190,-0.2280,-0.4788,0.4133,
5.339028,0.1038,0.9821,-0.0144,-0.0481,-0.0747,-1.1190,-0.4384,-0.3249,0.3148,
5.358579,0.0591,0.9909,0.0501,-0.0481,-0.0747,-1.1190,-0.4384,-0.3249,0.3148,
5.361506,0.0591,0.9909,0.0501,-0.6252,0.0368,-0.5728,-0.4384,-0.3249,0.3148,
5.363141,0.0591,0.9909,0.0501,-0.6252,0.0368,-0.5728,-0.6083,-0.2317,0.2908,
5.379329,0.0591,0.9909,0.0501,-0.6252,0.0368,-0.5728,-0.7159,-0.0581,0.3483,
5.400127,0.0601,1.0102,0.1002,-0.6252,0.0368,-0.5728,-0.7159,-0.0581,0.3483,
5.403365,0.0601,1.0102,0.1002,-0.7184,0.2662,-0.3034,-0.7159,-0.0581,0.3483,
5.405332,0.0601,1.0102,0.1002,-0.7184,0.2662,-0.3034,-0.7947,0.1481,0.3595,
5.418585,0.0601,1.0102,0.1002,-0.7184,0.2662,-0.3034,-0.8922,0.2471,0.3910,
5.439797,0.0733,0.9943,0.1380,-0.7184,0.2662,-0.3034,-0.8922,0.2471,0.3910,
5.442910,0.0733,0.9943,0.1380,-0.6914,0.1712,-0.2401,-0.8922,0.2471,0.3910,
5.444889,0.0733,0.9943,0.1380,-0.6914,0.1712,-0.2401,-1.0211,0.2935,0.4634,
5.458739,0.0733,0.9943,0.1380,-0.6914,0.1712,-0.2401,-1.0653,0.3856,0.5135,
5.478842,0.1065,0.9831,0.2211,-0.6914,0.1712,-0.2401,-1.0653,0.3856,0.5135,
5.481542,0.1065,0.9831,0.2211,-0.4988,0.1562,0.1776,-1.0653,0.3856,0.5135,
5.483055,0.1065,0.9831,0.2211,-0.4988,0.1562,0.1776,-1.0685,0.4037,0.5742,
5.499198,0.1065,0.9831,0.2211,-0.4988,0.1562,0.1776,-1.0509,0.3782,0.6589,
5.518408,0.1691,0.9513,0.3046,-0.4988,0.1562,0.1776,-1.0509,0.3782,0.6589,
5.520342,0.1691,0.9513,0.3046,0.4741,-0.1802,0.8737,-1.0509,0.3782,0.6589,
5.522434,0.1691,0.9513,0.3046,0.4741,-0.1802,0.8737,-1.0669,0.4687,0.6471,
5.539141,0.1691,0.9513,0.3046,0.4741,-0.1802,0.8737,-1.0173,0.5183,0.5843,
5.558164,0.2990,0.9183,0.4539,0.4741,-0.1802,0.8737,-1.0173,0.5183,0.5843,
5.560291,0.2990,0.9183,0.4539,1.0329,-0.1226,1.3903,-1.0173,0.5183,0.5843,
5.561905,0.2990,0.9183,0.4539,1.0329,-0.1226,1.3903,-0.8442,0.5316,0.4975,
5.579053,0.2990,0.9183,0.4539,1.0329,-0.1226,1.3903,-0.5784,0.5683,0.2999,
5.599356,0.3200,0.9176,0.5800,1.0329,-0.1226,1.3903,-0.5784,0.5683,0.2999,
5.601640,0.3200,0.9176,0.5800,1.1596,-0.0027,2.3152,-0.5784,0.5683,0.2999,
5.603224,0.3200,0.9176,0.5800,1.1596,-0.0027,2.3152,-0.2493,0.6360,0.0916,
5.619111,0.3200,0.9176,0.5800,1.1596,-0.0027,2.3152,-0.0405,0.7654,-0.0399,
5.638968,0.2081,0.8893,0.6122,1.1596,-0.0027,2.3152,-0.0405,0.7654,-0.0399,
5.641267,0.2081,0.8893,0.6122,0.1471,-0.2528,2.5116,-0.0405,0.7654,-0.0399,
5.642947,0.2081,0.8893,0.6122,0.1471,-0.2528,2.5116,0.1832,0.7995,-0.0858,
5.658206,0.2081,0.8893,0.6122,0.1471,-0.2528,2.5116,0.3995,0.8005,-0.1156,
5.679661,0.1058,0.8519,0.5267,0.1471,-0.2528,2.5116,0.3995,0.8005,-0.1156,
5.682691,0.1058,0.8519,0.5267,-0.7076,-0.6541,1.6863,0.3995,0.8005,-0.1156,
5.683975,0.1058,0.8519,0.5267,-0.7076,-0.6541,1.6863,0.5438,0.8820,-0.0309,
5.698839,0.1058,0.8519,0.5267,-0.7076,-0.6541,1.6863,0.6408,0.8916,0.0362,
5.718606,0.1168,0.8753,0.5165,-0.7076,-0.6541,1.6863,0.6408,0.8916,0.0362,
5.721010,0.1168,0.8753,0.5165,-0.4760,-0.4893,1.6965,0.6408,0.8916,0.0362,
5.722827,0.1168,0.8753,0.5165,-0.4760,-0.4893,1.6965,0.7707,0.8709,0.0932,
5.738818,0.1168,0.8753,0.5165,-0.4760,-0.4893,1.6965,0.9065,0.8815,0.1949,
5.759002,0.1500,0.8910,0.4757,-0.4760,-0.4893,1.6965,0.9065,0.8815,0.1949,
5.762272,0.1500,0.8910,0.4757,-0.0866,-0.4191,1.4974,0.9065,0.8815,0.1949,
5.764185,0.1500,0.8910,0.4757,-0.0866,-0.4191,1.4974,1.0535,0.9598,0.2940,
5.778732,0.1500,0.8910,0.4757,-0.0866,-0.4191,1.4974,1.1702,0.9401,0.3308,
5.798920,0.2018,0.9572,0.4051,-0.0866,-0.4191,1.4974,1.1702,0.9401,0.3308,
5.801955,0.2018,0.9572,0.4051,0.4175,0.1284,1.1175,1.1702,0.9401,0.3308,
5.803322,0.2018,0.9572,0.4051,0.4175,0.1284,1.1175,1.1649,0.8458,0.2898,
5.818404,0.2018,0.9572,0.4051,0.4175,0.1284,1.1175,1.0674,0.7824,0.2562,
5.838292,0.1932,1.0021,0.3669,0.4175,0.1284,1.1175,1.0674,0.7824,0.2562,
5.840703,0.1932,1.0021,0.3669,0.2219,0.8980,-0.1127,1.0674,0.7824,0.2562,
5.842352,0.1932,1.0021,0.3669,0.2219,0.8980,-0.1127,0.9758,0.8682,0.2754,
5.858014,0.1932,1.0021,0.3669,0.2219,0.8980,-0.1127,0.9731,1.0200,0.3249,
5.878084,0.2314,0.9472,0.3469,0.2219,0.8980,-0.1127,0.9731,1.0200,0.3249,
5.880306,0.2314,0.9472,0.3469,0.3661,0.3755,-0.2368,0.9731,1.0200,0.3249,
5.881952,0.2314,0.9472,0.3469,0.3661,0.3755,-0.2368,1.0104,1.0413,0.3467,
5.898295,0.2314,0.9472,0.3469,0.3661,0.3755,-0.2368,1.0402,0.9721,0.3467,
5.918362,0.2463,0.9154,0.3010,0.3661,0.3755,-0.2368,1.0402,0.9721,0.3467,
5.921402,0.2463,0.9154,0.3010,0.2904,0.0062,-0.4111,1.0402,0.9721,0.3467,
5.923746,0.2463,0.9154,0.3010,0.2904,0.0062,-0.4111,0.9444,0.8826,0.3377,
5.938821,0.2463,0.9154,0.3010,0.2904,0.0062,-0.4111,0.7952,0.9513,0.2578,
5.958168,0.1700,0.8751,0.2521,0.2904,0.0062,-0.4111,0.7952,0.9513,0.2578,
5.961736,0.1700,0.8751,0.2521,-0.3725,-0.5019,-0.6284,0.7952,0.9513,0.2578,
5.963326,0.1700,0.8751,0.2521,-0.3725,-0.5019,-0.6284,0.7100,1.0578,0.1822,
5.978384,0.1700,0.8751,0.2521,-0.3725,-0.5019,-0.6284,0.7015,1.0764,0.2013,
5.998076,0.0774,0.9416,0.2221,-0.3725,-0.5019,-0.6284,0.7015,1.0764,0.2013,
6.001287,0.0774,0.9416,0.2221,-1.2068,0.0749,-0.7461,0.7015,1.0764,0.2013,
6.003295,0.0774,0.9416,0.2221,-1.2068,0.0749,-0.7461,0.7244,1.1159,0.2557,
6.018066,0.0774,0.9416,0.2221,-1.2068,0.0749,-0.7461,0.7398,1.1068,0.3388,
6.037976,0.1793,0.8988,0.2221,-1.2068,0.0749,-0.7461,0.7398,1.1068,0.3388,
6.040106,0.1793,0.8988,0.2221,0.1137,-0.5158,-0.3790,0.7398,1.1068,0.3388,
6.041931,0.1793,0.8988,0.2221,0.1137,-0.5158,-0.3790,0.6898,0.9273,0.3063,
6.057677,0.1793,0.8988,0.2221,0.1137,-0.5158,-0.3790,0.6509,0.8725,0.3345,
6.077650,0.1896,0.9423,0.2228,0.1137,-0.5158,-0.3790,0.6509,0.8725,0.3345,
6.080051,0.1896,0.9423,0.2228,0.1826,-0.1341,-0.1816,0.6509,0.8725,0.3345,
6.081560,0.1896,0.9423,0.2228,0.1826,-0.1341,-0.1816,0.6322,0.8011,0.3617,
6.097589,0.1896,0.9423,0.2228,0.1826,-0.1341,-0.1816,0.5912,0.4900,0.3478,
6.117702,0.1151,1.0107,0.2077,0.1826,-0.1341,-0.1816,0.5912,0.4900,0.3478,
6.120421,0.1151,1.0107,0.2077,-0.6116,0.5033,-0.1457,0.5912,0.4900,0.3478,
6.122429,0.1151,1.0107,0.2077,-0.6116,0.5033,-0.1457,0.5364,0.2482,0.4730,
6.138244,0.1151,1.0107,0.2077,-0.6116,0.5033,-0.1457,0.5385,0.0730,0.7222,
6.158049,0.2321,1.1128,0.2314,-0.6116,0.5033,-0.1457,0.5385,0.0730,0.7222,
6.161200,0.2321,1.1128,0.2314,0.3271,1.5029,0.2756,0.5385,0.0730,0.7222,
6.163051,0.2321,1.1128,0.2314,0.3271,1.5029,0.2756,0.5678,-0.2008,0.8144,
6.177686,0.2321,1.1128,0.2314,0.3271,1.5029,0.2756,0.6908,-0.2189,0.7111,
6.198157,0.3237,0.8922,0.1190,0.3271,1.5029,0.2756,0.6908,-0.2189,0.7111,
6.200408,0.3237,0.8922,0.1190,0.9219,-0.6417,-0.5721,0.6908,-0.2189,0.7111,
6.202203,0.3237,0.8922,0.1190,0.9219,-0.6417,-0.5721,0.8112,-0.1609,0.4687,
6.219538,0.3237,0.8922,0.1190,0.9219,-0.6417,-0.5721,0.7521,-0.2067,0.3036,
6.238150,0.2448,0.9017,-0.0188,0.9219,-0.6417,-0.5721,0.7521,-0.2067,0.3036,
6.241398,0.2448,0.9017,-0.0188,-0.0094,-0.5636,-1.5979,0.7521,-0.2067,0.3036,
6.243677,0.2448,0.9017,-0.0188,-0.0094,-0.5636,-1.5979,0.5390,-0.1715,0.2828,
6.258387,0.2448,0.9017,-0.0188,-0.0094,-0.5636,-1.5979,0.4053,-0.0698,0.3057,
6.277654,0.2287,0.9413,-0.0366,-0.0094,-0.5636,-1.5979,0.4053,-0.0698,0.3057,
6.280767,0.2287,0.9413,-0.0366,-0.2810,-0.1755,-1.5603,0.4053,-0.0698,0.3057,
6.282772,0.2287,0.9413,-0.0366,-0.2810,-0.1755,-1.5603,0.4096,-0.0874,0.2818,
6.298098,0.2287,0.9413,-0.0366,-0.2810,-0.1755,-1.5603,0.4794,-0.1571,0.2035,
6.317293,0.1974,0.9489,-0.1256,-0.2810,-0.1755,-1.5603,0.4794,-0.1571,0.2035,
6.320768,0.1974,0.9489,-0.1256,-0.6738,-0.1029,-2.2153,0.4794,-0.1571,0.2035,
6.323053,0.1974,0.9489,-0.1256,-0.6738,-0.1029,-2.2153,0.5017,-0.2764,0.1337,
6.336917,0.1974,0.9489,-0.1256,-0.6738,-0.1029,-2.2153,0.4027,-0.2983,0.1156,
6.356798,0.1989,1.0307,-0.2072,-0.6738,-0.1029,-2.2153,0.4027,-0.2983,0.1156,
6.357876,0.1989,1.0307,-0.2072,-0.1021,0.5681,-0.9889,0.4027,-0.2983,0.1156,
6.358522,0.1989,1.0307,-0.2072,-0.1021,0.5681,-0.9889,0.2029,-0.2168,0.0879,
6.377757,0.1989,1.0307,-0.2072,-0.1021,0.5681,-0.9889,-0.0719,-0.1198,0.1081,
6.397231,0.2604,1.0889,-0.1578,-0.1021,0.5681,-0.9889,-0.0719,-0.1198,0.1081,
6.399619,0.2604,1.0889,-0.1578,0.4707,1.1489,-0.4659,-0.0719,-0.1198,0.1081,
6.401179,0.2604,1.0889,-0.1578,0.4707,1.1489,-0.4659,-0.2876,-0.1651,0.1390,
6.418109,0.2604,1.0889,-0.1578,0.4707,1.1489,-0.4659,-0.5284,-0.2072,0.0991,
6.437313,0.2712,1.0938,-0.0464,0.4707,1.1489,-0.4659,-0.5284,-0.2072,0.0991,
6.439015,0.2712,1.0938,-0.0464,0.5381,1.1903,0.4860,-0.5284,-0.2072,0.0991,
6.440532,0.2712,1.0938,-0.0464,0.5381,1.1903,0.4860,-0.6946,-0.0575,0.1268,
6.456872,0.2712,1.0938,-0.0464,0.5381,1.1903,0.4860,-0.7627,0.0352,0.1268,
6.478570,0.3638,0.9682,0.0533,0.5381,1.1903,0.4860,-0.7627,0.0352,0.1268,
6.479542,0.3638,0.9682,0.0533,1.3884,-0.0511,1.1805,-0.7627,0.0352,0.1268,
6.480181,0.3638,0.9682,0.0533,1.3884,-0.0511,1.1805,-0.7409,0.0575,0.0453,
6.497335,0.3638,0.9682,0.0533,1.3884,-0.0511,1.1805,-0.6786,0.0463,-0.0549,
6.516714,0.3012,0.9472,0.1454,1.3884,-0.0511,1.1805,-0.6786,0.0463,-0.0549,
6.518512,0.3012,0.9472,0.1454,0.1086,-0.0933,0.9968,-0.6786,0.0463,-0.0549,
6.520850,0.3012,0.9472,0.1454,0.1086,-0.0933,0.9968,-0.6306,0.0671,-0.0229,
6.536508,0.3012,0.9472,0.1454,0.1086,-0.0933,0.9968,-0.7286,0.1135,-0.0554,
6.556584,0.3059,0.8834,0.2213,0.1086,-0.0933,0.9968,-0.7286,0.1135,-0.0554,
6.558263,0.3059,0.8834,0.2213,0.0260,-0.6125,0.9821,-0.7286,0.1135,-0.0554,
6.559516,0.3059,0.8834,0.2213,0.0260,-0.6125,0.9821,-0.7904,0.1901,-0.0586,
6.577185,0.3059,0.8834,0.2213,0.0260,-0.6125,0.9821,-0.6770,0.2328,-0.0820,
6.597163,0.3970,0.8387,0.2968,0.0260,-0.6125,0.9821,-0.6770,0.2328,-0.0820,
6.599379,0.3970,0.8387,0.2968,0.4631,-0.7568,0.9463,-0.6770,0.2328,-0.0820,
6.601079,0.3970,0.8387,0.2968,0.4631,-0.7568,0.9463,-0.5497,0.0336,-0.0826,
6.616865,0.3970,0.8387,0.2968,0.4631,-0.7568,0.9463,-0.4160,0.0852,-0.1081,
6.637906,0.3582,1.0004,0.2675,0.4631,-0.7568,0.9463,-0.4160,0.0852,-0.1081,
6.641362,0.3582,1.0004,0.2675,0.1218,0.8546,0.4780,-0.4160,0.0852,-0.1081,
6.643271,0.3582,1.0004,0.2675,0.1218,0.8546,0.4780,-0.3952,0.2147,-0.1609,
6.657927,0.3582,1.0004,0.2675,0.1218,0.8546,0.4780,-0.3766,0.5289,-0.1475,
6.676974,0.4068,1.0219,0.2902,0.1218,0.8546,0.4780,-0.3766,0.5289,-0.1475,
6.680851,0.4068,1.0219,0.2902,0.6864,1.0792,0.5133,-0.3766,0.5289,-0.1475,
6.682469,0.4068,1.0219,0.2902,0.6864,1.0792,0.5133,-0.1252,0.7425,-0.2605,
6.697581,0.4068,1.0219,0.2902,0.6864,1.0792,0.5133,0.1539,0.2131,-0.4527,
6.717356,0.3867,0.7881,0.2406,0.6864,1.0792,0.5133,0.1539,0.2131,-0.4527,
6.719807,0.3867,0.7881,0.2406,0.6402,-1.2507,-0.0311,0.1539,0.2131,-0.4527,
6.722051,0.3867,0.7881,0.2406,0.6402,-1.2507,-0.0311,0.2983,-0.0581,-0.6067,
6.737182,0.3867,0.7881,0.2406,0.6402,-1.2507,-0.0311,0.4256,-0.0586,-0.6732,
6.757062,0.1869,0.8736,0.1620,0.6402,-1.2507,-0.0311,0.4256,-0.0586,-0.6732,
6.760442,0.1869,0.8736,0.1620,-1.0939,-0.5238,-0.6635,0.4256,-0.0586,-0.6732,
6.763014,0.1869,0.8736,0.1620,-1.0939,-0.5238,-0.6635,0.4155,-0.1768,-0.5566,
6.777594,0.1869,0.8736,0.1620,-1.0939,-0.5238,-0.6635,0.4123,-0.1380,-0.5268,
6.796935,0.2526,0.8057,0.0281,-1.0939,-0.5238,-0.6635,0.4123,-0.1380,-0.5268,
6.800433,0.2526,0.8057,0.0281,-0.2664,-1.2866,-1.8054,0.4123,-0.1380,-0.5268,
6.802638,0.2526,0.8057,0.0281,-0.2664,-1.2866,-1.8054,0.2541,-0.0469,-0.5151,
6.816600,0.2526,0.8057,0.0281,-0.2664,-1.2866,-1.8054,0.1246,-0.0549,-0.4490,
6.837479,0.2113,0.8844,-0.0015,-0.2664,-1.2866,-1.8054,0.1246,-0.0549,-0.4490,
6.840018,0.2113,0.8844,-0.0015,-0.4979,-0.5826,-2.0185,0.1246,-0.0549,-0.4490,
6.841908,0.2113,0.8844,-0.0015,-0.4979,-0.5826,-2.0185,-0.0969,-0.1225,-0.3808,
6.856808,0.2113,0.8844,-0.0015,-0.4979,-0.5826,-2.0185,-0.3073,-0.1976,-0.3084,
6.877318,0.1761,0.9662,0.0545,-0.4979,-0.5826,-2.0185,-0.3073,-0.1976,-0.3084,
6.881059,0.1761,0.9662,0.0545,-0.7259,0.1964,-1.5093,-0.3073,-0.1976,-0.3084,
6.882938,0.1761,0.9662,0.0545,-0.7259,0.1964,-1.5093,-0.5603,-0.1854,-0.2658,
6.897031,0.1761,0.9662,0.0545,-0.7259,0.1964,-1.5093,-0.5918,-0.2083,-0.2328,
6.917743,0.1788,0.9010,0.2003,-0.7259,0.1964,-1.5093,-0.5918,-0.2083,-0.2328,
6.920031,0.1788,0.9010,0.2003,-0.6206,-0.4217,-0.2611,-0.5918,-0.2083,-0.2328,
6.922005,0.1788,0.9010,0.2003,-0.6206,-0.4217,-0.2611,-0.5316,-0.1571,-0.1917,
6.938486,0.1788,0.9010,0.2003,-0.6206,-0.4217,-0.2611,-0.4272,-0.1161,-0.1523,
6.957596,0.2138,0.8521,0.1739,-0.6206,-0.4217,-0.2611,-0.4272,-0.1161,-0.1523,
6.960126,0.2138,0.8521,0.1739,-0.2266,-0.8742,-0.6780,-0.4272,-0.1161,-0.1523,
6.962033,0.2138,0.8521,0.1739,-0.2266,-0.8742,-0.6780,-0.2722,-0.1182,-0.1108,
6.976633,0.2138,0.8521,0.1739,-0.2266,-0.8742,-0.6780,-0.2370,-0.1502,-0.0666,
6.997580,0.2189,0.8915,0.0977,-0.2266,-0.8742,-0.6780,-0.2370,-0.1502,-0.0666,
7.000256,0.2189,0.8915,0.0977,-0.1564,-0.4746,-1.4978,-0.2370,-0.1502,-0.0666,
7.002082,0.2189,0.8915,0.0977,-0.1564,-0.4746,-1.4978,-0.2663,-0.1907,-0.0352,
7.016747,0.2189,0.8915,0.0977,-0.1564,-0.4746,-1.4978,-0.2519,-0.1806,-0.0229,
7.037060,0.1564,0.8367,0.1334,-0.1564,-0.4746,-1.4978,-0.2519,-0.1806,-0.0229,
7.039459,0.1564,0.8367,0.1334,-0.7772,-0.9878,-1.2264,-0.2519,-0.1806,-0.0229,
7.041436,0.1564,0.8367,0.1334,-0.7772,-0.9878,-1.2264,-0.2125,-0.0724,-0.0080,
7.056706,0.1564,0.8367,0.1334,-0.7772,-0.9878,-1.2264,-0.1076,0.0623,0.0256,
7.077171,0.1568,0.8451,0.1991,-0.7772,-0.9878,-1.2264,-0.1076,0.0623,0.0256,
7.080990,0.1568,0.8451,0.1991,-0.7761,-0.8892,-0.6406,-0.1076,0.0623,0.0256,
7.083197,0.1568,0.8451,0.1991,-0.7761,-0.8892,-0.6406,0.0538,0.2115,0.0282,
7.096387,0.1568,0.8451,0.1991,-0.7761,-0.8892,-0.6406,0.2253,0.2898,0.0304,
7.116545,0.1595,0.8910,0.1300,-0.7761,-0.8892,-0.6406,0.2253,0.2898,0.0304,
7.118882,0.1595,0.8910,0.1300,-0.7346,-0.4508,-1.2901,0.2253,0.2898,0.0304,
7.121024,0.1595,0.8910,0.1300,-0.7346,-0.4508,-1.2901,0.3041,0.2961,-0.0533,
7.136212,0.1595,0.8910,0.1300,-0.7346,-0.4508,-1.2901,0.2764,0.2605,-0.0868,
7.155985,0.1322,0.9467,0.1104,-0.7346,-0.4508,-1.2901,0.2764,0.2605,-0.0868,
7.157949,0.1322,0.9467,0.1104,-0.9428,0.0551,-1.3894,0.2764,0.2605,-0.0868,
7.159457,0.1322,0.9467,0.1104,-0.9428,0.0551,-1.3894,0.2104,0.2487,-0.0527,
7.176805,0.1322,0.9467,0.1104,-0.9428,0.0551,-1.3894,0.1710,0.2040,-0.0373,
7.196576,0.1593,1.0361,0.1500,-0.9428,0.0551,-1.3894,0.1710,0.2040,-0.0373,
7.198787,0.1593,1.0361,0.1500,0.0094,0.5707,0.0818,0.1710,0.2040,-0.0373,
7.200433,0.1593,1.0361,0.1500,0.0094,0.5707,0.0818,0.1614,0.0506,-0.0357,
7.218368,0.1593,1.0361,0.1500,0.0094,0.5707,0.0818,0.1406,0.0378,-0.0485,
7.237079,0.1590,1.0373,0.2055,0.0094,0.5707,0.0818,0.1406,0.0378,-0.0485,
7.239270,0.1590,1.0373,0.2055,0.0484,0.6111,0.4015,0.1406,0.0378,-0.0485,
7.240881,0.1590,1.0373,0.2055,0.0484,0.6111,0.4015,0.1230,0.1438,-0.0394,
7.256161,0.1590,1.0373,0.2055,0.0484,0.6111,0.4015,0.1832,0.3143,-0.0234,
7.277033,0.1571,1.0620,0.2626,0.0484,0.6111,0.4015,0.1832,0.3143,-0.0234,
7.280627,0.1571,1.0620,0.2626,0.0562,0.8424,0.9999,0.1832,0.3143,-0.0234,
7.282093,0.1571,1.0620,0.2626,0.0562,0.8424,0.9999,0.2892,0.4309,0.0048,
7.296437,0.1571,1.0620,0.2626,0.0562,0.8424,0.9999,0.3851,0.3824,0.0288,
7.316437,0.1661,1.0806,0.2797,0.0562,0.8424,0.9999,0.3851,0.3824,0.0288,
7.318385,0.1661,1.0806,0.2797,0.1633,1.0054,1.2686,0.3851,0.3824,0.0288,
7.320000,0.1661,1.0806,0.2797,0.1633,1.0054,1.2686,0.4836,0.3446,0.0964,
7.336861,0.1661,1.0806,0.2797,0.1633,1.0054,1.2686,0.6269,0.3015,0.1971,
7.356827,0.2055,1.0532,0.2529,0.1633,1.0054,1.2686,0.6269,0.3015,0.1971,
7.358804,0.2055,1.0532,0.2529,0.5100,0.7158,1.1962,0.6269,0.3015,0.1971,
7.360396,0.2055,1.0532,0.2529,0.5100,0.7158,1.1962,0.7622,0.2796,0.1971,
7.376512,0.2055,1.0532,0.2529,0.5100,0.7158,1.1962,0.9151,0.3649,0.1859,
7.396642,0.1583,1.0508,0.3489,0.5100,0.7158,1.1962,0.9151,0.3649,0.1859,
7.398682,0.1583,1.0508,0.3489,-0.0111,0.6658,2.4396,0.9151,0.3649,0.1859,
7.400382,0.1583,1.0508,0.3489,-0.0111,0.6658,2.4396,1.2075,0.4980,0.1912,
7.420346,0.1583,1.0508,0.3489,-0.0111,0.6658,2.4396,1.4674,0.7505,0.1901,
7.436523,0.3315,0.9921,0.1373,-0.0111,0.6658,2.4396,1.4674,0.7505,0.1901,
7.438614,0.3315,0.9921,0.1373,1.6253,0.0655,0.8269,1.4674,0.7505,0.1901,
7.440276,0.3315,0.9921,0.1373,1.6253,0.0655,0.8269,1.6149,0.7835,0.1161,
7.456086,0.3315,0.9921,0.1373,1.6253,0.0655,0.8269,1.6778,0.6189,-0.0256,
7.475940,0.3046,0.9152,-0.1393,1.6253,0.0655,0.8269,1.6778,0.6189,-0.0256,
7.477938,0.3046,0.9152,-0.1393,1.3189,-0.6952,-1.3181,1.6778,0.6189,-0.0256,
7.479739,0.3046,0.9152,-0.1393,1.3189,-0.6952,-1.3181,1.6251,0.5742,-0.0794,
7.495849,0.3046,0.9152,-0.1393,1.3189,-0.6952,-1.3181,1.3790,0.8261,0.0101,
7.516166,0.3152,0.9660,-0.1749,1.3189,-0.6952,-1.3181,1.3790,0.8261,0.0101,
7.518396,0.3152,0.9660,-0.1749,1.3867,-0.1742,-1.1423,1.3790,0.8261,0.0101,
7.520306,0.3152,0.9660,-0.1749,1.3867,-0.1742,-1.1423,1.0519,0.8655,0.0847,
7.534890,0.3152,0.9660,-0.1749,1.3867,-0.1742,-1.1423,0.7020,0.6226,0.1097,
7.555798,0.2805,1.0205,-0.2304,1.3867,-0.1742,-1.1423,0.7020,0.6226,0.1097,
7.558687,0.2805,1.0205,-0.2304,0.9654,0.3962,-1.3932,0.7020,0.6226,0.1097,
7.560591,0.2805,1.0205,-0.2304,0.9654,0.3962,-1.3932,0.3601,0.3830,0.0820,
7.575802,0.2805,1.0205,-0.2304,0.9654,0.3962,-1.3932,0.0863,0.3526,0.0842,
7.595988,0.2485,0.8734,0.0081,0.9654,0.3962,-1.3932,0.0863,0.3526,0.0842,
7.598089,0.2485,0.8734,0.0081,0.5785,-1.0265,0.9938,0.0863,0.3526,0.0842,
7.599778,0.2485,0.8734,0.0081,0.5785,-1.0265,0.9938,0.0730,0.4048,0.0772,
7.617917,0.2485,0.8734,0.0081,0.5785,-1.0265,0.9938,0.2413,0.4000,0.0320,
7.636041,0.2790,0.8795,-0.0186,0.5785,-1.0265,0.9938,0.2413,0.4000,0.0320,
7.638514,0.2790,0.8795,-0.0186,0.8216,-0.9537,0.7522,0.2413,0.4000,0.0320,
7.640130,0.2790,0.8795,-0.0186,0.8216,-0.9537,0.7522,0.3542,0.3137,0.0192,
7.655844,0.2790,0.8795,-0.0186,0.8216,-0.9537,0.7522,0.3595,0.1662,0.0282,
7.675130,0.2851,0.9912,-0.0406,0.8216,-0.9537,0.7522,0.3595,0.1662,0.0282,
7.677277,0.2851,0.9912,-0.0406,0.8333,0.1600,0.6328,0.3595,0.1662,0.0282,
7.678461,0.2851,0.9912,-0.0406,0.8333,0.1600,0.6328,0.4506,0.1103,0.0405,
7.694802,0.2851,0.9912,-0.0406,0.8333,0.1600,0.6328,0.6349,0.0117,-0.0059,
7.714824,0.2380,0.9667,-0.0855,0.8333,0.1600,0.6328,0.6349,0.0117,-0.0059,
7.716425,0.2380,0.9667,-0.0855,0.3393,-0.0517,0.3714,0.6349,0.0117,-0.0059,
7.717581,0.2380,0.9667,-0.0855,0.3393,-0.0517,0.3714,0.7265,-0.0431,0.0005,
7.735720,0.2380,0.9667,-0.0855,0.3393,-0.0517,0.3714,0.7238,-0.0426,0.0644,
7.755207,0.2096,1.0422,-0.2800,0.3393,-0.0517,0.3714,0.7238,-0.0426,0.0644,
7.757463,0.2096,1.0422,-0.2800,0.0458,0.7309,-1.2559,0.7238,-0.0426,0.0644,
7.759106,0.2096,1.0422,-0.2800,0.0458,0.7309,-1.2559,0.6344,-0.0282,0.1832,
7.775770,0.2096,1.0422,-0.2800,0.0458,0.7309,-1.2559,0.4756,0.0405,0.3031,
7.795770,0.2636,0.9486,-0.1964,0.0458,0.7309,-1.2559,0.4756,0.0405,0.3031,
7.799082,0.2636,0.9486,-0.1964,0.4740,-0.1291,-0.2289,0.4756,0.0405,0.3031,
7.801242,0.2636,0.9486,-0.1964,0.4740,-0.1291,-0.2289,0.3398,-0.0565,0.2956,
7.817978,0.2636,0.9486,-0.1964,0.4740,-0.1291,-0.2289,0.2397,-0.1055,0.3281,
7.836005,0.2257,0.9223,-0.1764,0.4740,-0.1291,-0.2289,0.2397,-0.1055,0.3281,
7.838324,0.2257,0.9223,-0.1764,-0.0110,-0.3401,0.0815,0.2397,-0.1055,0.3281,
7.840074,0.2257,0.9223,-0.1764,-0.0110,-0.3401,0.0815,0.1555,-0.0650,0.4224,
7.855367,0.2257,0.9223,-0.1764,-0.0110,-0.3401,0.0815,0.0953,-0.0953,0.5161,
7.876115,0.2360,0.9670,-0.1947,-0.0110,-0.3401,0.0815,0.0953,-0.0953,0.5161,
7.878359,0.2360,0.9670,-0.1947,-0.0790,0.1501,-0.0447,0.0953,-0.0953,0.5161,
7.880163,0.2360,0.9670,-0.1947,-0.0790,0.1501,-0.0447,0.0597,-0.1470,0.5161,
7.896173,0.2360,0.9670,-0.1947,-0.0790,0.1501,-0.0447,0.0080,-0.1992,0.5236,
7.915785,0.2949,0.9926,-0.1752,-0.0790,0.1501,-0.0447,0.0080,-0.1992,0.5236,
7.918742,0.2949,0.9926,-0.1752,0.3672,0.4137,0.0317,0.0080,-0.1992,0.5236,
7.920348,0.2949,0.9926,-0.1752,0.3672,0.4137,0.0317,-0.0288,-0.2226,0.4852,
7.935688,0.2949,0.9926,-0.1752,0.3672,0.4137,0.0317,0.0597,-0.1550,0.4000,
7.955701,0.3496,1.0808,-0.1901,0.3672,0.4137,0.0317,0.0597,-0.1550,0.4000,
7.958953,0.3496,1.0808,-0.1901,0.7446,1.3245,-0.1035,0.0597,-0.1550,0.4000,
7.960884,0.3496,1.0808,-0.1901,0.7446,1.3245,-0.1035,0.1571,-0.1380,0.2802,
7.975068,0.3496,1.0808,-0.1901,0.7446,1.3245,-0.1035,0.1342,-0.1656,0.0932,
7.995486,0.3433,1.1026,-0.2169,0.7446,1.3245,-0.1035,0.1342,-0.1656,0.0932,
7.997875,0.3433,1.1026,-0.2169,0.6243,1.5683,-0.2965,0.1342,-0.1656,0.0932,
7.999358,0.3433,1.1026,-0.2169,0.6243,1.5683,-0.2965,0.0288,-0.2461,0.0096,
8.015479,0.3433,1.1026,-0.2169,0.6243,1.5683,-0.2965,-0.0879,-0.3025,0.0176,
8.035363,0.4053,1.0837,-0.2216,0.6243,1.5683,-0.2965,-0.0879,-0.3025,0.0176,
8.037647,0.4053,1.0837,-0.2216,1.2476,1.3832,-0.3230,-0.0879,-0.3025,0.0176,
8.039872,0.4053,1.0837,-0.2216,1.2476,1.3832,-0.3230,-0.2642,-0.4021,0.0165,
8.055576,0.4053,1.0837,-0.2216,1.2476,1.3832,-0.3230,-0.4831,-0.4783,-0.0618,
8.075061,0.3667,0.9381,-0.1698,1.2476,1.3832,-0.3230,-0.4831,-0.4783,-0.0618,
8.077642,0.3667,0.9381,-0.1698,0.9073,-0.0725,0.0940,-0.4831,-0.4783,-0.0618,
8.079265,0.3667,0.9381,-0.1698,0.9073,-0.0725,0.0940,-0.7031,-0.6077,-0.0927,
8.095046,0.3667,0.9381,-0.1698,0.9073,-0.0725,0.0940,-0.8219,-0.5348,-0.1374,
8.115510,0.3498,0.8878,-0.1737,0.9073,-0.0725,0.0940,-0.8219,-0.5348,-0.1374,
8.117783,0.3498,0.8878,-0.1737,0.8039,-0.6220,-0.1619,-0.8219,-0.5348,-0.1374,
8.119544,0.3498,0.8878,-0.1737,0.8039,-0.6220,-0.1619,-0.9507,-0.4171,-0.1715,
8.136463,0.3498,0.8878,-0.1737,0.8039,-0.6220,-0.1619,-1.1446,-0.3388,-0.1971,
8.155927,0.3237,0.8758,-0.1737,0.8039,-0.6220,-0.1619,-1.1446,-0.3388,-0.1971,
8.158581,0.3237,0.8758,-0.1737,0.6042,-0.8034,-0.4915,-1.1446,-0.3388,-0.1971,
8.160432,0.3237,0.8758,-0.1737,0.6042,-0.8034,-0.4915,-1.3268,-0.2301,-0.2796,
8.175298,0.3237,0.8758,-0.1737,0.6042,-0.8034,-0.4915,-1.3774,-0.0048,-0.3425,
8.195306,0.2516,0.8392,-0.1278,0.6042,-0.8034,-0.4915,-1.3774,-0.0048,-0.3425,
8.198543,0.2516,0.8392,-0.1278,0.0062,-1.2408,-0.5205,-1.3774,-0.0048,-0.3425,
8.200555,0.2516,0.8392,-0.1278,0.0062,-1.2408,-0.5205,-1.5047,-0.1236,-0.3441,
8.215233,0.2516,0.8392,-0.1278,0.0062,-1.2408,-0.5205,-1.6064,-0.0948,-0.3249,
8.235141,0.3032,0.8451,0.0621,0.0062,-1.2408,-0.5205,-1.6064,-0.0948,-0.3249,
8.238962,0.3032,0.8451,0.0621,0.6324,-1.2408,0.7647,-1.6064,-0.0948,-0.3249,
8.241122,0.3032,0.8451,0.0621,0.6324,-1.2408,0.7647,-1.5532,-0.0943,-0.3622,
8.256109,0.3032,0.8451,0.0621,0.6324,-1.2408,0.7647,-1.2171,-0.2445,-0.4298,
8.274924,0.2296,0.7996,0.1165,0.6324,-1.2408,0.7647,-1.2171,-0.2445,-0.4298,
8.277696,0.2296,0.7996,0.1165,0.0614,-1.7163,0.7860,-1.2171,-0.2445,-0.4298,
8.279062,0.2296,0.7996,0.1165,0.0614,-1.7163,0.7860,-0.9332,-0.2035,-0.3910,
8.294829,0.2296,0.7996,0.1165,0.0614,-1.7163,0.7860,-0.7702,-0.1395,-0.2525,
8.315067,0.2629,0.8976,0.1583,0.0614,-1.7163,0.7860,-0.7702,-0.1395,-0.2525,
8.317025,0.2629,0.8976,0.1583,0.5040,-0.7657,0.8843,-0.7702,-0.1395,-0.2525,
8.318729,0.2629,0.8976,0.1583,0.5040,-0.7657,0.8843,-0.5907,-0.1449,-0.1161,
8.335199,0.2629,0.8976,0.1583,0.5040,-0.7657,0.8843,-0.4938,-0.1012,-0.1188,
8.354974,0.2929,0.8651,0.0687,0.5040,-0.7657,0.8843,-0.4938,-0.1012,-0.1188,
8.357086,0.2929,0.8651,0.0687,0.8354,-1.0763,-0.1910,-0.4938,-0.1012,-0.1188,
8.358896,0.2929,0.8651,0.0687,0.8354,-1.0763,-0.1910,-0.3499,-0.0474,-0.1901,
8.375284,0.2929,0.8651,0.0687,0.8354,-1.0763,-0.1910,-0.3334,0.0288,-0.2226,
8.394934,0.2602,0.8477,0.0034,0.8354,-1.0763,-0.1910,-0.3334,0.0288,-0.2226,
8.397363,0.2602,0.8477,0.0034,0.5930,-1.2501,-0.9599,-0.3334,0.0288,-0.2226,
8.398814,0.2602,0.8477,0.0034,0.5930,-1.2501,-0.9599,-0.4724,0.1177,-0.2290,
8.415960,0.2602,0.8477,0.0034,0.5930,-1.2501,-0.9599,-0.5390,0.1278,-0.2519,
8.435100,0.1456,0.8819,0.1307,0.5930,-1.2501,-0.9599,-0.5390,0.1278,-0.2519,
8.437495,0.1456,0.8819,0.1307,-0.4327,-0.9111,0.0851,-0.5390,0.1278,-0.2519,
8.439363,0.1456,0.8819,0.1307,-0.4327,-0.9111,0.0851,-0.4565,0.1353,-0.2088,
8.454848,0.1456,0.8819,0.1307,-0.4327,-0.9111,0.0851,-0.3372,0.1843,-0.1491,
8.474668,0.2133,0.9567,0.0322,-0.4327,-0.9111,0.0851,-0.3372,0.1843,-0.1491,
8.477927,0.2133,0.9567,0.0322,-0.0075,-0.1631,-0.5687,-0.3372,0.1843,-0.1491,
8.480108,0.2133,0.9567,0.0322,-0.0075,-0.1631,-0.5687,-0.2061,0.2274,-0.0794,
8.494326,0.2133,0.9567,0.0322,-0.0075,-0.1631,-0.5687,-0.1129,0.2285,-0.0943,
8.514994,0.1964,0.9501,-0.0105,-0.0075,-0.1631,-0.5687,-0.1129,0.2285,-0.0943,
8.518495,0.1964,0.9501,-0.0105,-0.1329,-0.2299,-1.0549,-0.1129,0.2285,-0.0943,
8.520884,0.1964,0.9501,-0.0105,-0.1329,-0.2299,-1.0549,-0.1108,0.2312,-0.1459,
8.534966,0.1964,0.9501,-0.0105,-0.1329,-0.2299,-1.0549,-0.1507,0.2232,-0.1427,
8.555255,0.2096,0.9623,0.0366,-0.1329,-0.2299,-1.0549,-0.1507,0.2232,-0.1427,
8.557681,0.2096,0.9623,0.0366,-0.0636,-0.1387,0.0270,-0.1507,0.2232,-0.1427,
8.559551,0.2096,0.9623,0.0366,-0.0636,-0.1387,0.0270,-0.2210,0.1800,-0.1385,
8.574953,0.2096,0.9623,0.0366,-0.0636,-0.1387,0.0270,-0.2722,0.1060,-0.1593,
8.595118,0.1937,0.8607,0.1038,-0.0636,-0.1387,0.0270,-0.2722,0.1060,-0.1593,
8.597452,0.1937,0.8607,0.1038,-0.1897,-1.1320,0.4827,-0.2722,0.1060,-0.1593,
8.599250,0.1937,0.8607,0.1038,-0.1897,-1.1320,0.4827,-0.2439,0.1246,-0.1497,
8.615524,0.1937,0.8607,0.1038,-0.1897,-1.1320,0.4827,-0.1731,0.0772,-0.1225,
8.634626,0.1935,0.9425,0.1261,-0.1897,-1.1320,0.4827,-0.1731,0.0772,-0.1225,
8.637179,0.1935,0.9425,0.1261,-0.1543,-0.3118,0.3470,-0.1731,0.0772,-0.1225,
8.639002,0.1935,0.9425,0.1261,-0.1543,-0.3118,0.3470,-0.1001,0.0682,-0.1156,
8.654006,0.1935,0.9425,0.1261,-0.1543,-0.3118,0.3470,-0.0575,0.0330,-0.1406,
8.674435,0.2602,1.0068,0.1077,-0.1543,-0.3118,0.3470,-0.0575,0.0330,-0.1406,
8.677968,0.2602,1.0068,0.1077,0.5213,0.3170,0.1275,-0.0575,0.0330,-0.1406,
8.679579,0.2602,1.0068,0.1077,0.5213,0.3170,0.1275,-0.0282,0.1087,-0.2551,
8.694041,0.2602,1.0068,0.1077,0.5213,0.3170,0.1275,0.0085,0.1081,-0.3680,
8.714198,0.2590,0.9953,0.1148,0.5213,0.3170,0.1275,0.0085,0.1081,-0.3680,
8.716714,0.2590,0.9953,0.1148,0.5544,0.1977,0.1696,0.0085,0.1081,-0.3680,
8.718096,0.2590,0.9953,0.1148,0.5544,0.1977,0.1696,0.0383,-0.0724,-0.4341,
8.734592,0.2590,0.9953,0.1148,0.5544,0.1977,0.1696,0.0437,-0.1262,-0.4826,
8.755026,0.3037,1.0752,0.1121,0.5544,0.1977,0.1696,0.0437,-0.1262,-0.4826,
8.757233,0.3037,1.0752,0.1121,1.1526,0.9466,0.1652,0.0437,-0.1262,-0.4826,
8.758756,0.3037,1.0752,0.1121,1.1526,0.9466,0.1652,-0.0085,-0.1294,-0.5055,
8.774316,0.3037,1.0752,0.1121,1.1526,0.9466,0.1652,-0.0735,-0.1481,-0.5444,
8.795097,0.2165,1.1214,0.1378,1.1526,0.9466,0.1652,-0.0735,-0.1481,-0.5444,
8.798610,0.2165,1.1214,0.1378,0.4496,1.3732,0.3993,-0.0735,-0.1481,-0.5444,
8.800734,0.2165,1.1214,0.1378,0.4496,1.3732,0.3993,-0.1816,-0.2338,-0.5726,
8.815540,0.2165,1.1214,0.1378,0.4496,1.3732,0.3993,-0.2929,-0.1827,-0.5667,
8.834875,0.1459,0.9609,0.2177,0.4496,1.3732,0.3993,-0.2929,-0.1827,-0.5667,
8.836967,0.1459,0.9609,0.2177,-0.0399,-0.2237,1.0943,-0.2929,-0.1827,-0.5667,
8.838682,0.1459,0.9609,0.2177,-0.0399,-0.2237,1.0943,-0.2695,0.0985,-0.6013,
8.854771,0.1459,0.9609,0.2177,-0.0399,-0.2237,1.0943,-0.1470,0.3633,-0.5582,
8.874294,0.1564,0.9413,0.2424,-0.0399,-0.2237,1.0943,-0.1470,0.3633,-0.5582,
8.876991,0.1564,0.9413,0.2424,0.2801,-0.4326,1.2195,-0.1470,0.3633,-0.5582,
8.878674,0.1564,0.9413,0.2424,0.2801,-0.4326,1.2195,0.0559,0.4527,-0.5278,
8.893918,0.1564,0.9413,0.2424,0.2801,-0.4326,1.2195,0.1513,0.2370,-0.5177,
8.914211,0.0877,1.0134,0.2052,0.2801,-0.4326,1.2195,0.1513,0.2370,-0.5177,
8.917177,0.0877,1.0134,0.2052,-0.1844,0.2488,0.8565,0.1513,0.2370,-0.5177,
8.918776,0.0877,1.0134,0.2052,-0.1844,0.2488,0.8565,0.1593,0.0277,-0.4602,
8.935046,0.0877,1.0134,0.2052,-0.1844,0.2488,0.8565,0.1092,-0.0298,-0.3361,
8.953599,0.1234,1.0180,0.2446,-0.1844,0.2488,0.8565,0.1092,-0.0298,-0.3361,
8.956756,0.1234,1.0180,0.2446,0.3098,0.2765,1.2697,0.1092,-0.0298,-0.3361,
8.958528,0.1234,1.0180,0.2446,0.3098,0.2765,1.2697,0.1119,-0.0192,-0.3206,
8.973585,0.1234,1.0180,0.2446,0.3098,0.2765,1.2697,0.1017,-0.0533,-0.3020,
8.993979,0.1082,1.0779,0.2199,0.3098,0.2765,1.2697,0.1017,-0.0533,-0.3020,
8.996453,0.1082,1.0779,0.2199,0.2757,0.8498,1.0579,0.1017,-0.0533,-0.3020,
8.997956,0.1082,1.0779,0.2199,0.2757,0.8498,1.0579,0.0985,0.0037,-0.2450,
9.015132,0.1082,1.0779,0.2199,0.2757,0.8498,1.0579,0.1566,-0.0293,-0.0921,
9.034332,0.0796,1.0850,0.1962,0.2757,0.8498,1.0579,0.1566,-0.0293,-0.0921,
9.036459,0.0796,1.0850,0.1962,-0.0188,0.9517,0.5768,0.1566,-0.0293,-0.0921,
9.038061,0.0796,1.0850,0.1962,-0.0188,0.9517,0.5768,0.2376,-0.1912,0.0650,
9.054518,0.0796,1.0850,0.1962,-0.0188,0.9517,0.5768,0.2668,-0.2839,0.1992,
9.073627,0.1622,0.9567,0.1143,-0.0188,0.9517,0.5768,0.2668,-0.2839,0.1992,
9.076693,0.1622,0.9567,0.1143,0.7178,-0.3119,-0.1290,0.2668,-0.2839,0.1992,
9.078710,0.1622,0.9567,0.1143,0.7178,-0.3119,-0.1290,0.1417,-0.3840,0.2024,
9.094096,0.1622,0.9567,0.1143,0.7178,-0.3119,-0.1290,-0.0005,-0.4980,0.2205,
9.114249,0.1478,0.9100,0.1349,0.7178,-0.3119,-0.1290,-0.0005,-0.4980,0.2205,
9.117943,0.1478,0.9100,0.1349,0.4593,-0.7620,0.1041,-0.0005,-0.4980,0.2205,
9.119873,0.1478,0.9100,0.1349,0.4593,-0.7620,0.1041,-0.0399,-0.4879,0.2450,
9.135904,0.1478,0.9100,0.1349,0.4593,-0.7620,0.1041,-0.0288,-0.5119,0.2013,
9.154733,0.0965,0.9066,0.1297,0.4593,-0.7620,0.1041,-0.0288,-0.5119,0.2013,
9.156929,0.0965,0.9066,0.1297,-0.1564,-0.7836,0.0562,-0.0288,-0.5119,0.2013,
9.158648,0.0965,0.9066,0.1297,-0.1564,-0.7836,0.0562,0.0304,-0.5609,0.1481,
9.174007,0.0965,0.9066,0.1297,-0.1564,-0.7836,0.0562,0.0623,-0.6125,0.1539,
9.194329,0.0027,0.9516,0.1307,-0.1564,-0.7836,0.0562,0.0623,-0.6125,0.1539,
9.196666,0.0027,0.9516,0.1307,-0.6839,-0.3530,-0.1313,0.0623,-0.6125,0.1539,
9.198454,0.0027,0.9516,0.1307,-0.6839,-0.3530,-0.1313,0.1007,-0.6924,0.2232,
9.216533,0.0027,0.9516,0.1307,-0.6839,-0.3530,-0.1313,0.0964,-0.7888,0.3100,
9.233400,0.0579,1.0793,0.1102,-0.6839,-0.3530,-0.1313,0.0964,-0.7888,0.3100,
9.237180,0.0579,1.0793,0.1102,-0.0566,0.8672,-0.1405,0.0964,-0.7888,0.3100,
9.240002,0.0579,1.0793,0.1102,-0.0566,0.8672,-0.1405,0.0011,-1.1132,0.3159,
9.254699,0.0579,1.0793,0.1102,-0.0566,0.8672,-0.1405,0.0527,-0.9156,0.3819,
9.273708,0.2318,1.1746,0.0933,-0.0566,0.8672,-0.1405,0.0527,-0.9156,0.3819,
9.277414,0.2318,1.1746,0.0933,1.4624,1.8097,-0.2659,0.0527,-0.9156,0.3819,
9.279017,0.2318,1.1746,0.0933,1.4624,1.8097,-0.2659,0.0304,-0.9060,0.2892,
9.293405,0.2318,1.1746,0.0933,1.4624,1.8097,-0.2659,0.0884,-0.8517,0.3409,
9.313683,0.1942,1.2225,0.0782,1.4624,1.8097,-0.2659,0.0884,-0.8517,0.3409,
9.316034,0.1942,1.2225,0.0782,0.9311,2.2875,-0.3602,0.0884,-0.8517,0.3409,
9.317820,0.1942,1.2225,0.0782,0.9311,2.2875,-0.3602,0.1337,-0.7212,0.2866,
9.333036,0.1942,1.2225,0.0782,0.9311,2.2875,-0.3602,0.0320,-0.9140,0.2919,
9.353688,0.2067,1.0254,0.0120,0.9311,2.2875,-0.3602,0.0320,-0.9140,0.2919,
9.354918,0.2067,1.0254,0.0120,0.9057,0.3638,-0.9427,0.0320,-0.9140,0.2919,
9.355796,0.2067,1.0254,0.0120,0.9057,0.3638,-0.9427,-0.1635,-1.0450,0.2903,
9.373748,0.2067,1.0254,0.0120,0.9057,0.3638,-0.9427,-0.4469,-1.1430,0.2365,
9.394149,0.2810,0.7786,0.0073,0.9057,0.3638,-0.9427,-0.4469,-1.1430,0.2365,
9.396439,0.2810,0.7786,0.0073,1.4524,-2.0271,-1.0292,-0.4469,-1.1430,0.2365,
9.398251,0.2810,0.7786,0.0073,1.4524,-2.0271,-1.0292,-0.6935,-1.0802,0.1513,
9.417469,0.2810,0.7786,0.0073,1.4524,-2.0271,-1.0292,-0.8714,-1.0706,0.1491,
9.434590,0.2077,0.8873,0.0589,1.4524,-2.0271,-1.0292,-0.8714,-1.0706,0.1491,
9.436932,0.2077,0.8873,0.0589,0.6068,-0.9153,-0.7491,-0.8714,-1.0706,0.1491,
9.438717,0.2077,0.8873,0.0589,0.6068,-0.9153,-0.7491,-0.9875,-0.9731,0.1933,
9.453848,0.2077,0.8873,0.0589,0.6068,-0.9153,-0.7491,-1.1079,-0.9183,0.1667,
9.473498,0.3156,0.9809,0.2030,0.6068,-0.9153,-0.7491,-1.1079,-0.9183,0.1667,
9.476534,0.3156,0.9809,0.2030,1.5027,0.0778,0.3384,-1.1079,-0.9183,0.1667,
9.478195,0.3156,0.9809,0.2030,1.5027,0.0778,0.3384,-1.1079,-0.8171,0.0581,
9.493860,0.3156,0.9809,0.2030,1.5027,0.0778,0.3384,-0.9705,-0.4602,-0.1071,
9.513638,0.2937,1.0083,0.2585,1.5027,0.0778,0.3384,-0.9705,-0.4602,-0.1071,
9.515814,0.2937,1.0083,0.2585,1.2213,0.4233,0.5380,-0.9705,-0.4602,-0.1071,
9.517571,0.2937,1.0083,0.2585,1.2213,0.4233,0.5380,-0.8565,-0.2397,-0.2626,
9.533849,0.2937,1.0083,0.2585,1.2213,0.4233,0.5380,-0.7196,-0.2583,-0.3159,
9.553707,0.2956,0.7906,0.2959,1.2213,0.4233,0.5380,-0.7196,-0.2583,-0.3159,
9.555733,0.2956,0.7906,0.2959,1.2932,-1.6551,0.6220,-0.7196,-0.2583,-0.3159,
9.557473,0.2956,0.7906,0.2959,1.2932,-1.6551,0.6220,-0.5273,-0.3547,-0.3941,
9.573687,0.2956,0.7906,0.2959,1.2932,-1.6551,0.6220,-0.2855,-0.6120,-0.3462,
9.593615,0.1764,0.7610,0.2404,1.2932,-1.6551,0.6220,-0.2855,-0.6120,-0.3462,
9.595811,0.1764,0.7610,0.2404,0.2178,-1.9297,-0.0442,-0.2855,-0.6120,-0.3462,
9.597520,0.1764,0.7610,0.2404,0.2178,-1.9297,-0.0442,-0.0980,-0.7984,-0.2221,
9.612967,0.1764,0.7610,0.2404,0.2178,-1.9297,-0.0442,-0.1166,-0.7420,-0.1374,
9.632909,0.2455,0.9455,0.1063,0.2178,-1.9297,-0.0442,-0.1166,-0.7420,-0.1374,
9.635314,0.2455,0.9455,0.1063,0.8755,-0.1221,-1.3458,-0.1166,-0.7420,-0.1374,
9.636959,0.2455,0.9455,0.1063,0.8755,-0.1221,-1.3458,-0.2631,-0.6445,-0.1545,
9.653841,0.2455,0.9455,0.1063,0.8755,-0.1221,-1.3458,-0.4032,-0.4607,-0.1987,
9.673655,0.1788,0.8954,0.1881,0.8755,-0.1221,-1.3458,-0.4032,-0.4607,-0.1987,
9.676057,0.1788,0.8954,0.1881,0.2252,-0.5917,-0.6278,-0.4032,-0.4607,-0.1987,
9.677740,0.1788,0.8954,0.1881,0.2252,-0.5917,-0.6278,-0.4037,-0.3212,-0.2567,
9.693450,0.1788,0.8954,0.1881,0.2252,-0.5917,-0.6278,-0.3712,-0.2077,-0.2658,
9.712855,0.1368,0.8248,0.1520,0.2252,-0.5917,-0.6278,-0.3712,-0.2077,-0.2658,
9.716451,0.1368,0.8248,0.1520,-0.1157,-1.2599,-1.1112,-0.3712,-0.2077,-0.2658,
9.718495,0.1368,0.8248,0.1520,-0.1157,-1.2599,-1.1112,-0.3691,-0.1023,-0.2392,
9.733691,0.1368,0.8248,0.1520,-0.1157,-1.2599,-1.1112,-0.4091,-0.0538,-0.2205,
9.753442,0.1678,0.8238,0.1473,-0.1157,-1.2599,-1.1112,-0.4091,-0.0538,-0.2205,
9.755959,0.1678,0.8238,0.1473,0.2657,-1.2410,-1.2972,-0.4091,-0.0538,-0.2205,
9.757671,0.1678,0.8238,0.1473,0.2657,-1.2410,-1.2972,-0.4495,-0.0085,-0.2162,
9.772606,0.1678,0.8238,0.1473,0.2657,-1.2410,-1.2972,-0.4043,-0.0075,-0.2131,
9.793623,0.1339,0.8270,0.1678,0.2657,-1.2410,-1.2972,-0.4043,-0.0075,-0.2131,
9.795904,0.1339,0.8270,0.1678,0.0117,-1.1733,-1.2542,-0.4043,-0.0075,-0.2131,
9.797559,0.1339,0.8270,0.1678,0.0117,-1.1733,-1.2542,-0.3814,0.0213,-0.1688,
9.812647,0.1339,0.8270,0.1678,0.0117,-1.1733,-1.2542,-0.3206,-0.0069,-0.1225,
9.833847,0.1358,0.9623,0.1923,0.0117,-1.1733,-1.2542,-0.3206,-0.0069,-0.1225,
9.835987,0.1358,0.9623,0.1923,-0.0478,0.0709,-0.6967,-0.3206,-0.0069,-0.1225,
9.837893,0.1358,0.9623,0.1923,-0.0478,0.0709,-0.6967,-0.2679,0.0479,-0.1124,
9.853385,0.1358,0.9623,0.1923,-0.0478,0.0709,-0.6967,-0.2120,0.0304,-0.1321,
9.872535,0.1366,0.9398,0.2707,-0.0478,0.0709,-0.6967,-0.2120,0.0304,-0.1321,
9.874841,0.1366,0.9398,0.2707,-0.1353,-0.2175,0.3918,-0.2120,0.0304,-0.1321,
9.876659,0.1366,0.9398,0.2707,-0.1353,-0.2175,0.3918,-0.1630,-0.0788,-0.1822,
9.892727,0.1366,0.9398,0.2707,-0.1353,-0.2175,0.3918,-0.0810,-0.0959,-0.1704,
9.912881,0.1981,0.8409,0.3469,-0.1353,-0.2175,0.3918,-0.0810,-0.0959,-0.1704,
9.915056,0.1981,0.8409,0.3469,0.5019,-1.1724,1.0570,-0.0810,-0.0959,-0.1704,
9.916786,0.1981,0.8409,0.3469,0.5019,-1.1724,1.0570,0.0613,-0.0815,-0.1971,
9.932688,0.1981,0.8409,0.3469,0.5019,-1.1724,1.0570,0.2812,-0.0117,-0.2589,
9.952922,0.1307,0.9335,0.3034,0.5019,-1.1724,1.0570,0.2812,-0.0117,-0.2589,
9.956282,0.1307,0.9335,0.3034,-0.0819,-0.2892,0.6826,0.2812,-0.0117,-0.2589,
9.957998,0.1307,0.9335,0.3034,-0.0819,-0.2892,0.6826,0.5007,-0.0245,-0.2455,
9.973074,0.1307,0.9335,0.3034,-0.0819,-0.2892,0.6826,0.6264,-0.1087,-0.1774,
9.992949,0.1544,1.0911,0.2766,-0.0819,-0.2892,0.6826,0.6264,-0.1087,-0.1774,
9.995345,0.1544,1.0911,0.2766,0.2203,1.1988,0.6202,0.6264,-0.1087,-0.1774,
9.996979,0.1544,1.0911,0.2766,0.2203,1.1988,0.6202,0.6264,-0.2599,-0.1870,
10.012541,0.1544,1.0911,0.2766,0.2203,1.1988,0.6202,0.5470,-0.2967,-0.2418,
10.032656,0.1527,1.0808,0.3020,0.2203,1.1988,0.6202,0.5470,-0.2967,-0.2418,
10.034671,0.1527,1.0808,0.3020,0.2617,1.0429,1.0986,0.5470,-0.2967,-0.2418,
10.036307,0.1527,1.0808,0.3020,0.2617,1.0429,1.0986,0.4836,-0.1278,-0.2439,
10.082382,0.1527,1.0808,0.3020,0.2617,1.0429,1.0986,0.4794,0.1635,-0.1678,
10.085149,0.1417,1.0148,0.2995,0.2617,1.0429,1.0986,0.4794,0.1635,-0.1678,
10.087577,0.1417,1.0148,0.2995,0.2314,0.3549,1.2467,0.4794,0.1635,-0.1678,
10.088968,0.1417,1.0148,0.2995,0.2314,0.3549,1.2467,0.4820,0.4442,-0.1012,
10.091887,0.1417,1.0148,0.2995,0.2314,0.3549,1.2467,0.5321,0.6141,-0.0091,
10.112676,0.1390,0.9846,0.3112,0.2314,0.3549,1.2467,0.5321,0.6141,-0.0091,
10.114560,0.1390,0.9846,0.3112,0.2560,0.0269,1.5112,0.5321,0.6141,-0.0091,
10.116140,0.1390,0.9846,0.3112,0.2560,0.0269,1.5112,0.6413,0.5811,0.0900,
10.133209,0.1390,0.9846,0.3112,0.2560,0.0269,1.5112,0.6285,0.3963,0.0325,
10.153000,0.0880,0.9938,0.2560,0.2560,0.0269,1.5112,0.6285,0.3963,0.0325,
10.156489,0.0880,0.9938,0.2560,-0.2406,0.0885,1.1636,0.6285,0.3963,0.0325,
10.159006,0.0880,0.9938,0.2560,-0.2406,0.0885,1.1636,0.4996,0.3446,0.0410,
10.172323,0.0880,0.9938,0.2560,-0.2406,0.0885,1.1636,0.3947,0.3744,0.0921,
10.192624,0.1270,0.9284,0.2575,-0.2406,0.0885,1.1636,0.3947,0.3744,0.0921,
10.194586,0.1270,0.9284,0.2575,0.1317,-0.5662,1.2844,0.3947,0.3744,0.0921,
10.196369,0.1270,0.9284,0.2575,0.1317,-0.5662,1.2844,0.3750,0.4384,0.1028,
10.213448,0.1270,0.9284,0.2575,0.1317,-0.5662,1.2844,0.3979,0.4368,0.0314,
10.231853,0.1187,0.9342,0.1915,0.1317,-0.5662,1.2844,0.3979,0.4368,0.0314,
10.233850,0.1187,0.9342,0.1915,-0.0358,-0.2903,-0.4702,0.3979,0.4368,0.0314,
10.235791,0.1187,0.9342,0.1915,-0.0358,-0.2903,-0.4702,0.4245,0.4250,-0.0778,
10.253928,0.1187,0.9342,0.1915,-0.0358,-0.2903,-0.4702,0.4128,0.4032,-0.0378,
10.271770,0.0247,0.8939,0.1165,-0.0358,-0.2903,-0.4702,0.4128,0.4032,-0.0378,
10.274431,0.0247,0.8939,0.1165,-0.5856,-0.8214,-0.7753,0.4128,0.4032,-0.0378,
10.276244,0.0247,0.8939,0.1165,-0.5856,-0.8214,-0.7753,0.3867,0.3164,0.1870,
10.292045,0.0247,0.8939,0.1165,-0.5856,-0.8214,-0.7753,0.3803,0.2557,0.4128,
10.312357,0.1798,1.0102,0.1104,-0.5856,-0.8214,-0.7753,0.3803,0.2557,0.4128,
10.315876,0.1798,1.0102,0.1104,0.8310,0.2998,-0.6897,0.3803,0.2557,0.4128,
10.317738,0.1798,1.0102,0.1104,0.8310,0.2998,-0.6897,0.3723,0.1071,0.4714,
10.333397,0.1798,1.0102,0.1104,0.8310,0.2998,-0.6897,0.2509,-0.0059,0.3558,
10.352322,0.1226,1.1326,0.2016,0.8310,0.2998,-0.6897,0.2509,-0.0059,0.3558,
10.354386,0.1226,1.1326,0.2016,0.1154,1.4946,0.3210,0.2509,-0.0059,0.3558,
10.355912,0.1226,1.1326,0.2016,0.1154,1.4946,0.3210,0.1811,0.0352,0.3526,
10.372462,0.1226,1.1326,0.2016,0.1154,1.4946,0.3210,0.1720,0.0085,0.3915,
10.392006,0.0760,1.1236,0.2724,0.1154,1.4946,0.3210,0.1720,0.0085,0.3915,
10.393975,0.0760,1.1236,0.2724,-0.4787,1.4120,1.0772,0.1720,0.0085,0.3915,
10.395661,0.0760,1.1236,0.2724,-0.4787,1.4120,1.0772,0.2056,-0.1156,0.4565,
10.411721,0.0760,1.1236,0.2724,-0.4787,1.4120,1.0772,0.2871,-0.1417,0.5673,
10.431447,0.1769,0.9635,0.2213,-0.4787,1.4120,1.0772,0.2871,-0.1417,0.5673,
10.433518,0.1769,0.9635,0.2213,0.4599,-0.0839,0.2219,0.2871,-0.1417,0.5673,
10.434950,0.1769,0.9635,0.2213,0.4599,-0.0839,0.2219,0.3196,-0.2929,0.5561,
10.451467,0.1769,0.9635,0.2213,0.4599,-0.0839,0.2219,0.3569,-0.4336,0.4165,
10.470734,0.1964,0.9591,0.1258,0.4599,-0.0839,0.2219,0.3569,-0.4336,0.4165,
10.471636,0.1964,0.9591,0.1258,0.4389,-0.1256,-0.5646,0.3569,-0.4336,0.4165,
10.472281,0.1964,0.9591,0.1258,0.4389,-0.1256,-0.5646,0.4117,-0.4133,0.3265,
10.491086,0.1964,0.9591,0.1258,0.4389,-0.1256,-0.5646,0.3910,-0.3462,0.3878,
10.511010,0.1136,1.0322,0.0076,0.4389,-0.1256,-0.5646,0.3910,-0.3462,0.3878,
10.512161,0.1136,1.0322,0.0076,-0.5258,0.5807,-1.5290,0.3910,-0.3462,0.3878,
10.512805,0.1136,1.0322,0.0076,-0.5258,0.5807,-1.5290,0.2642,-0.3393,0.4794,
10.531239,0.1136,1.0322,0.0076,-0.5258,0.5807,-1.5290,0.0399,-0.3894,0.5310,
10.551292,0.2514,1.0742,-0.0054,-0.5258,0.5807,-1.5290,0.0399,-0.3894,0.5310,
10.553699,0.2514,1.0742,-0.0054,0.6114,1.0152,-1.5557,0.0399,-0.3894,0.5310,
10.555542,0.2514,1.0742,-0.0054,0.6114,1.0152,-1.5557,-0.2908,-0.5257,0.4075,
10.571185,0.2514,1.0742,-0.0054,0.6114,1.0152,-1.5557,-0.6786,-0.7111,0.3308,
10.591251,0.4246,0.9042,0.1070,0.6114,1.0152,-1.5557,-0.6786,-0.7111,0.3308,
10.594112,0.4246,0.9042,0.1070,2.1082,-0.5919,-0.5635,-0.6786,-0.7111,0.3308,
10.596167,0.4246,0.9042,0.1070,2.1082,-0.5919,-0.5635,-1.0205,-0.8970,0.2487,
10.611905,0.4246,0.9042,0.1070,2.1082,-0.5919,-0.5635,-1.2000,-0.9827,0.0772,
10.631859,0.3279,0.9728,0.2111,2.1082,-0.5919,-0.5635,-1.2000,-0.9827,0.0772,
10.634091,0.3279,0.9728,0.2111,1.0122,0.1745,0.1367,-1.2000,-0.9827,0.0772,
10.635746,0.3279,0.9728,0.2111,1.0122,0.1745,0.1367,-1.1079,-0.5001,-0.0085,
10.651879,0.3279,0.9728,0.2111,1.0122,0.1745,0.1367,-1.0147,-0.1459,-0.0096,
10.671631,0.3166,1.1998,0.2560,1.0122,0.1745,0.1367,-1.0147,-0.1459,-0.0096,
10.673601,0.3166,1.1998,0.2560,0.8788,2.4874,0.2111,-1.0147,-0.1459,-0.0096,
10.675070,0.3166,1.1998,0.2560,0.8788,2.4874,0.2111,-0.9843,-0.3233,-0.0458,
10.691540,0.3166,1.1998,0.2560,0.8788,2.4874,0.2111,-0.8815,-0.2834,-0.1896,
10.711876,0.3638,0.8871,0.3345,0.8788,2.4874,0.2111,-0.8815,-0.2834,-0.1896,
10.713797,0.3638,0.8871,0.3345,1.3465,-0.4950,0.6657,-0.8815,-0.2834,-0.1896,
10.715466,0.3638,0.8871,0.3345,1.3465,-0.4950,0.6657,-0.6876,-0.0091,-0.4075,
10.731326,0.3638,0.8871,0.3345,1.3465,-0.4950,0.6657,-0.4394,-0.1310,-0.4772,
10.751361,0.2035,0.7012,0.3484,1.3465,-0.4950,0.6657,-0.4394,-0.1310,-0.4772,
10.753479,0.2035,0.7012,0.3484,-0.0875,-2.2884,0.5971,-0.4394,-0.1310,-0.4772,
10.755263,0.2035,0.7012,0.3484,-0.0875,-2.2884,0.5971,-0.0788,-0.2131,-0.4517,
10.771716,0.2035,0.7012,0.3484,-0.0875,-2.2884,0.5971,0.2679,-0.3851,-0.2924,
10.791100,0.1842,0.6850,0.0701,-0.0875,-2.2884,0.5971,0.2679,-0.3851,-0.2924,
10.793844,0.1842,0.6850,0.0701,-0.1738,-2.4870,-2.0711,0.2679,-0.3851,-0.2924,
10.795662,0.1842,0.6850,0.0701,-0.1738,-2.4870,-2.0711,0.3760,-0.4815,-0.2115,
10.811612,0.1842,0.6850,0.0701,-0.1738,-2.4870,-2.0711,0.1071,-0.4671,-0.2104,
10.831096,0.0880,0.7439,-0.0237,-0.1738,-2.4870,-2.0711,0.1071,-0.4671,-0.2104,
10.833837,0.0880,0.7439,-0.0237,-1.0902,-1.9526,-2.8643,0.1071,-0.4671,-0.2104,
10.835943,0.0880,0.7439,-0.0237,-1.0902,-1.9526,-2.8643,-0.0847,-0.4373,-0.1688,
10.851143,0.0880,0.7439,-0.0237,-1.0902,-1.9526,-2.8643,-0.2045,-0.3665,-0.0687,
10.871648,0.2658,0.8724,0.1424,-1.0902,-1.9526,-2.8643,-0.2045,-0.3665,-0.0687,
10.873902,0.2658,0.8724,0.1424,0.6543,-0.6872,-1.2584,-0.2045,-0.3665,-0.0687,
10.875737,0.2658,0.8724,0.1424,0.6543,-0.6872,-1.2584,-0.3132,-0.2690,-0.0581,
10.890657,0.2658,0.8724,0.1424,0.6543,-0.6872,-1.2584,-0.1832,-0.1539,-0.1374,
10.911296,0.1730,0.8113,0.1793,0.6543,-0.6872,-1.2584,-0.1832,-0.1539,-0.1374,
10.914394,0.1730,0.8113,0.1793,-0.2422,-1.2667,-0.9718,-0.1832,-0.1539,-0.1374,
10.916843,0.1730,0.8113,0.1793,-0.2422,-1.2667,-0.9718,0.0250,-0.0399,-0.1390,
10.932768,0.1730,0.8113,0.1793,-0.2422,-1.2667,-0.9718,0.1028,0.0341,-0.0969,
10.950309,0.1932,1.0244,0.1004,-0.2422,-1.2667,-0.9718,0.1028,0.0341,-0.0969,
10.952190,0.1932,1.0244,0.1004,-0.0026,0.8004,-1.7038,0.1028,0.0341,-0.0969,
10.953621,0.1932,1.0244,0.1004,-0.0026,0.8004,-1.7038,0.0091,0.0687,-0.0474,
10.970108,0.1932,1.0244,0.1004,-0.0026,0.8004,-1.7038,-0.1763,0.1150,-0.0937,
10.990557,0.2849,0.9868,0.2372,-0.0026,0.8004,-1.7038,-0.1763,0.1150,-0.0937,
10.993252,0.2849,0.9868,0.2372,0.9153,0.4292,-0.3684,-0.1763,0.1150,-0.0937,
10.995366,0.2849,0.9868,0.2372,0.9153,0.4292,-0.3684,-0.2700,0.1582,-0.1768,
11.010794,0.2849,0.9868,0.2372,0.9153,0.4292,-0.3684,-0.2610,0.0858,-0.2407,
11.031019,0.2394,0.9626,0.3205,0.9153,0.4292,-0.3684,-0.2610,0.0858,-0.2407,
11.032786,0.2394,0.9626,0.3205,0.5408,0.2043,0.3594,-0.2610,0.0858,-0.2407,
11.034006,0.2394,0.9626,0.3205,0.5408,0.2043,0.3594,-0.1901,0.0783,-0.2812,
11.051079,0.2394,0.9626,0.3205,0.5408,0.2043,0.3594,-0.0298,0.0895,-0.2956,
11.071287,0.2467,0.9257,0.3130,0.5408,0.2043,0.3594,-0.0298,0.0895,-0.2956,
11.073322,0.2467,0.9257,0.3130,0.0731,-0.0811,0.4404,-0.0298,0.0895,-0.2956,
11.075050,0.2467,0.9257,0.3130,0.0731,-0.0811,0.4404,0.1539,0.0842,-0.3941,
11.090778,0.2467,0.9257,0.3130,0.0731,-0.0811,0.4404,0.3435,0.0746,-0.5033,
11.110723,0.1141,0.8011,0.2318,0.0731,-0.0811,0.4404,0.3435,0.0746,-0.5033,
11.112751,0.1141,0.8011,0.2318,-1.0520,-1.3685,-0.2716,0.3435,0.0746,-0.5033,
11.114650,0.1141,0.8011,0.2318,-1.0520,-1.3685,-0.2716,0.5342,0.0533,-0.4900,
11.131514,0.1141,0.8011,0.2318,-1.0520,-1.3685,-0.2716,0.6754,0.1087,-0.4692,
11.151071,0.1476,0.8756,0.1593,-1.0520,-1.3685,-0.2716,0.6754,0.1087,-0.4692,
11.155349,0.1476,0.8756,0.1593,-0.5379,-0.7371,-0.7651,0.6754,0.1087,-0.4692,
11.157376,0.1476,0.8756,0.1593,-0.5379,-0.7371,-0.7651,0.7207,0.1310,-0.4815,
11.170857,0.1476,0.8756,0.1593,-0.5379,-0.7371,-0.7651,0.6903,0.2109,-0.4607,
11.191258,0.0362,1.1451,0.1151,-0.5379,-0.7371,-0.7651,0.6903,0.2109,-0.4607,
11.193621,0.0362,1.1451,0.1151,-1.4141,1.7984,-0.9329,0.6903,0.2109,-0.4607,
11.195455,0.0362,1.1451,0.1151,-1.4141,1.7984,-0.9329,0.6195,0.3995,-0.3414,
11.211087,0.0362,1.1451,0.1151,-1.4141,1.7984,-0.9329,0.4186,0.4597,-0.1944,
11.230885,0.0579,1.3092,0.2069,-1.4141,1.7984,-0.9329,0.4186,0.4597,-0.1944,
11.233362,0.0579,1.3092,0.2069,-1.0661,3.3481,0.1343,0.4186,0.4597,-0.1944,
11.235110,0.0579,1.3092,0.2069,-1.0661,3.3481,0.1343,0.2061,0.3143,-0.0607,
11.250672,0.0579,1.3092,0.2069,-1.0661,3.3481,0.1343,0.1454,0.1049,0.0863,
11.271085,0.2001,1.1607,0.3279,-1.0661,3.3481,0.1343,0.1454,0.1049,0.0863,
11.273223,0.2001,1.1607,0.3279,0.3381,1.8801,1.3725,0.1454,0.1049,0.0863,
11.274657,0.2001,1.1607,0.3279,0.3381,1.8801,1.3725,0.1960,0.2791,0.0815,
11.290501,0.2001,1.1607,0.3279,0.3381,1.8801,1.3725,0.3041,0.5960,0.0000,
11.310566,0.1417,1.1030,0.3093,0.3381,1.8801,1.3725,0.3041,0.5960,0.0000,
11.312847,0.1417,1.1030,0.3093,-0.2181,1.2997,1.2570,0.3041,0.5960,0.0000,
11.314402,0.1417,1.1030,0.3093,-0.2181,1.2997,1.2570,0.3723,0.6519,0.0256,
11.331594,0.1417,1.1030,0.3093,-0.2181,1.2997,1.2570,0.4123,0.6376,0.0069,
11.350183,0.1036,0.9245,0.1666,-0.2181,1.2997,1.2570,0.4123,0.6376,0.0069,
11.352417,0.1036,0.9245,0.1666,-0.5482,-0.4763,-0.0379,0.4123,0.6376,0.0069,
11.354139,0.1036,0.9245,0.1666,-0.5482,-0.4763,-0.0379,0.3973,0.5800,-0.0075,
11.370214,0.1036,0.9245,0.1666,-0.5482,-0.4763,-0.0379,0.3260,0.5406,0.0985,
11.390796,0.1234,0.7906,0.0831,-0.5482,-0.4763,-0.0379,0.3260,0.5406,0.0985,
11.392983,0.1234,0.7906,0.0831,-0.0669,-1.8263,-0.8833,0.3260,0.5406,0.0985,
11.394895,0.1234,0.7906,0.0831,-0.0669,-1.8263,-0.8833,0.2296,0.4288,0.2392,
11.410234,0.1234,0.7906,0.0831,-0.0669,-1.8263,-0.8833,0.1214,0.2807,0.3318,
11.429617,0.1842,0.8314,0.0880,-0.0669,-1.8263,-0.8833,0.1214,0.2807,0.3318,
11.430623,0.1842,0.8314,0.0880,0.4427,-1.4232,-0.7859,0.1214,0.2807,0.3318,
11.431516,0.1842,0.8314,0.0880,0.4427,-1.4232,-0.7859,0.0842,0.2823,0.3814,
11.450468,0.1842,0.8314,0.0880,0.4427,-1.4232,-0.7859,0.0751,0.1465,0.3302,
11.470479,0.1273,1.0236,0.1561,0.4427,-1.4232,-0.7859,0.0751,0.1465,0.3302,
11.473691,0.1273,1.0236,0.1561,-0.2360,0.4753,-0.0967,0.0751,0.1465,0.3302,
11.475625,0.1273,1.0236,0.1561,-0.2360,0.4753,-0.0967,0.0975,0.0037,0.2631,
11.490601,0.1273,1.0236,0.1561,-0.2360,0.4753,-0.0967,0.1135,-0.0650,0.2802,
11.510063,0.0474,0.9071,0.2091,-0.2360,0.4753,-0.0967,0.1135,-0.0650,0.2802,
11.511766,0.0474,0.9071,0.2091,-1.1134,-0.6580,0.4612,0.1135,-0.0650,0.2802,
11.513252,0.0474,0.9071,0.2091,-1.1134,-0.6580,0.4612,0.1545,-0.1566,0.3574,
11.530731,0.0474,0.9071,0.2091,-1.1134,-0.6580,0.4612,0.2322,-0.1172,0.4852,
11.550793,0.1490,1.0698,0.1656,-1.1134,-0.6580,0.4612,0.2322,-0.1172,0.4852,
11.552974,0.1490,1.0698,0.1656,-0.2661,0.9496,0.1130,0.2322,-0.1172,0.4852,
11.554606,0.1490,1.0698,0.1656,-0.2661,0.9496,0.1130,0.2695,-0.1289,0.4506,
11.570384,0.1490,1.0698,0.1656,-0.2661,0.9496,0.1130,0.3356,-0.2088,0.3739,
11.590572,0.1165,1.3864,0.1554,-0.2661,0.9496,0.1130,0.3356,-0.2088,0.3739,
11.592697,0.1165,1.3864,0.1554,-0.7511,4.0648,0.1398,0.3356,-0.2088,0.3739,
11.594385,0.1165,1.3864,0.1554,-0.7511,4.0648,0.1398,0.3425,-0.3521,0.4213,
11.610476,0.1165,1.3864,0.1554,-0.7511,4.0648,0.1398,0.2226,-0.4703,0.4964,
11.630917,0.2602,1.1903,0.1258,-0.7511,4.0648,0.1398,0.2226,-0.4703,0.4964,
11.632818,0.2602,1.1903,0.1258,0.4609,2.1639,-0.0097,0.2226,-0.4703,0.4964,
11.634561,0.2602,1.1903,0.1258,0.4609,2.1639,-0.0097,0.0117,-0.5167,0.4458,
11.650474,0.2602,1.1903,0.1258,0.4609,2.1639,-0.0097,-0.2461,-0.4037,0.3957,
11.670228,0.2922,0.8265,0.1500,0.4609,2.1639,-0.0097,-0.2461,-0.4037,0.3957,
11.672273,0.2922,0.8265,0.1500,0.5941,-1.3589,0.2217,-0.2461,-0.4037,0.3957,
11.673981,0.2922,0.8265,0.1500,0.5941,-1.3589,0.2217,-0.4336,-0.4144,0.3238,
11.690311,0.2922,0.8265,0.1500,0.5941,-1.3589,0.2217,-0.5417,-0.4186,0.2983,
11.709897,0.2143,0.7742,0.0928,0.5941,-1.3589,0.2217,-0.5417,-0.4186,0.2983,
11.712193,0.2143,0.7742,0.0928,-0.3075,-1.8169,-0.4822,-0.5417,-0.4186,0.2983,
11.714134,0.2143,0.7742,0.0928,-0.3075,-1.8169,-0.4822,-0.7659,-0.5449,0.3462,
11.731727,0.2143,0.7742,0.0928,-0.3075,-1.8169,-0.4822,-0.8650,-0.5316,0.4447,
11.750466,0.3183,0.9447,0.0955,-0.3075,-1.8169,-0.4822,-0.8650,-0.5316,0.4447,
11.752842,0.3183,0.9447,0.0955,0.5301,-0.0589,-0.6925,-0.8650,-0.5316,0.4447,
11.754625,0.3183,0.9447,0.0955,0.5301,-0.0589,-0.6925,-0.8943,-0.4575,0.4176,
11.769605,0.3183,0.9447,0.0955,0.5301,-0.0589,-0.6925,-0.9545,-0.4469,0.3388,
11.790224,0.3345,1.0324,0.1625,0.5301,-0.0589,-0.6925,-0.9545,-0.4469,0.3388,
11.792474,0.3345,1.0324,0.1625,0.5144,0.9031,-0.3109,-0.9545,-0.4469,0.3388,
11.794122,0.3345,1.0324,0.1625,0.5144,0.9031,-0.3109,-0.9896,-0.2796,0.1790,
11.809854,0.3345,1.0324,0.1625,0.5144,0.9031,-0.3109,-0.9593,-0.1987,-0.0197,
11.829981,0.3872,0.8407,0.3093,0.5144,0.9031,-0.3109,-0.9593,-0.1987,-0.0197,
11.833487,0.3872,0.8407,0.3093,0.9643,-0.8830,0.8046,-0.9593,-0.1987,-0.0197,
11.835030,0.3872,0.8407,0.3093,0.9643,-0.8830,0.8046,-0.9449,-0.0980,-0.1907,
11.850500,0.3872,0.8407,0.3093,0.9643,-0.8830,0.8046,-0.6977,0.0288,-0.3031,
11.869935,0.2013,0.7569,0.3887,0.9643,-0.8830,0.8046,-0.6977,0.0288,-0.3031,
11.872061,0.2013,0.7569,0.3887,-0.7735,-1.6513,1.2813,-0.6977,0.0288,-0.3031,
11.873852,0.2013,0.7569,0.3887,-0.7735,-1.6513,1.2813,-0.1390,-0.1417,-0.2663,
11.889490,0.2013,0.7569,0.3887,-0.7735,-1.6513,1.2813,0.2141,-0.3318,-0.1433,
11.909800,0.2228,0.8243,0.1742,-0.7735,-1.6513,1.2813,0.2141,-0.3318,-0.1433,
11.912834,0.2228,0.8243,0.1742,-0.5125,-1.0164,-0.7816,0.2141,-0.3318,-0.1433,
11.914973,0.2228,0.8243,0.1742,-0.5125,-1.0164,-0.7816,0.2573,-0.2866,-0.0756,
11.930049,0.2228,0.8243,0.1742,-0.5125,-1.0164,-0.7816,0.2663,-0.2786,-0.0852,
11.949039,0.2282,0.8829,0.0840,-0.5125,-1.0164,-0.7816,0.2663,-0.2786,-0.0852,
11.952131,0.2282,0.8829,0.0840,-0.4578,-0.4762,-1.5381,0.2663,-0.2786,-0.0852,
11.954184,0.2282,0.8829,0.0840,-0.4578,-0.4762,-1.5381,0.1470,-0.2008,-0.0895,
11.968550,0.2282,0.8829,0.0840,-0.4578,-0.4762,-1.5381,-0.0357,-0.1284,-0.0932,
11.988529,0.2045,0.7737,0.1630,-0.4578,-0.4762,-1.5381,-0.0357,-0.1284,-0.0932,
11.989732,0.2045,0.7737,0.1630,-0.6720,-1.5614,-0.7268,-0.0357,-0.1284,-0.0932,
11.990893,0.2045,0.7737,0.1630,-0.6720,-1.5614,-0.7268,-0.0048,-0.0421,-0.1539,
12.008807,0.2045,0.7737,0.1630,-0.6720,-1.5614,-0.7268,0.0735,0.0224,-0.1752,
12.029391,0.1691,0.6714,0.1500,-0.6720,-1.5614,-0.7268,0.0735,0.0224,-0.1752,
12.031641,0.1691,0.6714,0.1500,-0.9599,-2.5852,-0.8400,0.0735,0.0224,-0.1752,
12.033632,0.1691,0.6714,0.1500,-0.9599,-2.5852,-0.8400,0.1678,0.0943,-0.1699,
12.048996,0.1691,0.6714,0.1500,-0.9599,-2.5852,-0.8400,0.2487,0.1257,-0.1017,
12.069021,0.1200,0.8375,0.0647,-0.9599,-2.5852,-0.8400,0.2487,0.1257,-0.1017,
12.071331,0.1200,0.8375,0.0647,-1.3814,-0.9901,-1.6106,0.2487,0.1257,-0.1017,
12.073260,0.1200,0.8375,0.0647,-1.3814,-0.9901,-1.6106,0.2882,0.1411,0.0288,
12.089915,0.1200,0.8375,0.0647,-1.3814,-0.9901,-1.6106,0.1859,0.0415,0.0602,
12.109533,0.3086,1.0385,0.1681,-1.3814,-0.9901,-1.6106,0.1859,0.0415,0.0602,
12.112176,0.3086,1.0385,0.1681,0.5878,0.8260,-0.0206,0.1859,0.0415,0.0602,
12.113998,0.3086,1.0385,0.1681,0.5878,0.8260,-0.0206,0.0224,0.0858,-0.0250,
12.132729,0.3086,1.0385,0.1681,0.5878,0.8260,-0.0206,-0.0352,0.2477,-0.1417,
12.149552,0.3225,1.1842,0.3362,0.5878,0.8260,-0.0206,-0.0352,0.2477,-0.1417,
12.151553,0.3225,1.1842,0.3362,0.7662,2.2460,1.6050,-0.0352,0.2477,-0.1417,
12.153143,0.3225,1.1842,0.3362,0.7662,2.2460,1.6050,0.0368,0.3643,-0.2530,
12.169718,0.3225,1.1842,0.3362,0.7662,2.2460,1.6050,0.1577,0.2780,-0.3457,
12.189121,0.1962,0.9183,0.3210,0.7662,2.2460,1.6050,0.1577,0.2780,-0.3457,
12.191814,0.1962,0.9183,0.3210,-0.3375,-0.3896,1.4428,0.1577,0.2780,-0.3457,
12.193895,0.1962,0.9183,0.3210,-0.3375,-0.3896,1.4428,0.3111,0.1816,-0.3883,
12.208937,0.1962,0.9183,0.3210,-0.3375,-0.3896,1.4428,0.5097,0.1848,-0.3686,
12.228660,0.1256,0.7642,0.2096,-0.3375,-0.3896,1.4428,0.5097,0.1848,-0.3686,
12.230786,0.1256,0.7642,0.2096,-0.8734,-1.9582,0.4753,0.5097,0.1848,-0.3686,
12.232579,0.1256,0.7642,0.2096,-0.8734,-1.9582,0.4753,0.7041,0.2274,-0.2541,
12.249751,0.1256,0.7642,0.2096,-0.8734,-1.9582,0.4753,0.8352,0.3148,-0.1981,
12.269461,0.1754,0.9125,0.1126,-0.8734,-1.9582,0.4753,0.8352,0.3148,-0.1981,
12.271730,0.1754,0.9125,0.1126,-0.2828,-0.5669,-0.2146,0.8352,0.3148,-0.1981,
12.273636,0.1754,0.9125,0.1126,-0.2828,-0.5669,-0.2146,0.8980,0.3707,-0.1923,
12.288984,0.1754,0.9125,0.1126,-0.2828,-0.5669,-0.2146,0.7499,0.2498,-0.3143,
12.309097,0.1068,1.1749,0.0413,-0.2828,-0.5669,-0.2146,0.7499,0.2498,-0.3143,
12.311661,0.1068,1.1749,0.0413,-0.8322,1.9442,-0.6280,0.7499,0.2498,-0.3143,
12.313244,0.1068,1.1749,0.0413,-0.8322,1.9442,-0.6280,0.4309,0.1577,-0.2924,
12.332431,0.1068,1.1749,0.0413,-0.8322,1.9442,-0.6280,0.1007,0.2189,-0.1470,
12.349631,0.1764,1.1927,0.1573,-0.8322,1.9442,-0.6280,0.1007,0.2189,-0.1470,
12.352421,0.1764,1.1927,0.1573,-0.0585,2.0924,0.5972,0.1007,0.2189,-0.1470,
12.354522,0.1764,1.1927,0.1573,-0.0585,2.0924,0.5972,-0.1305,0.2376,0.0330,
12.368690,0.1764,1.1927,0.1573,-0.0585,2.0924,0.5972,-0.2365,0.1838,0.0186,
12.388768,0.2355,0.9609,0.3088,-0.0585,2.0924,0.5972,-0.2365,0.1838,0.0186,
12.392234,0.2355,0.9609,0.3088,0.5194,-0.1696,1.9869,-0.2365,0.1838,0.0186,
12.393998,0.2355,0.9609,0.3088,0.5194,-0.1696,1.9869,-0.1800,0.2237,-0.0714,
12.409284,0.2355,0.9609,0.3088,0.5194,-0.1696,1.9869,-0.0373,0.4836,-0.1177,
12.429100,0.1500,0.9604,0.2741,0.5194,-0.1696,1.9869,-0.0373,0.4836,-0.1177,
12.432229,0.1500,0.9604,0.2741,-0.2652,-0.1738,1.5555,-0.0373,0.4836,-0.1177,
12.434074,0.1500,0.9604,0.2741,-0.2652,-0.1738,1.5555,0.1545,0.7031,-0.1752,
12.448663,0.1500,0.9604,0.2741,-0.2652,-0.1738,1.5555,0.2983,0.6370,-0.0985,
12.468142,0.0906,1.1526,0.1913,-0.2652,-0.1738,1.5555,0.2983,0.6370,-0.0985,
12.470360,0.0906,1.1526,0.1913,-0.7642,1.6911,0.7845,0.2983,0.6370,-0.0985,
12.471921,0.0906,1.1526,0.1913,-0.7642,1.6911,0.7845,0.2876,0.4645,-0.0112,
12.488276,0.0906,1.1526,0.1913,-0.7642,1.6911,0.7845,0.2136,0.3286,0.0772,
12.508888,0.1192,0.8595,0.1781,-0.7642,1.6911,0.7845,0.2136,0.3286,0.0772,
12.510948,0.1192,0.8595,0.1781,-0.4661,-1.1889,0.6901,0.2136,0.3286,0.0772,
12.512976,0.1192,0.8595,0.1781,-0.4661,-1.1889,0.6901,0.1928,0.2924,0.1949,
12.529441,0.1192,0.8595,0.1781,-0.4661,-1.1889,0.6901,0.2509,0.2423,0.2386,
12.548116,0.1529,0.8013,0.0772,-0.4661,-1.1889,0.6901,0.2509,0.2423,0.2386,
12.550139,0.1529,0.8013,0.0772,-0.2058,-1.7531,-0.2370,0.2509,0.2423,0.2386,
12.552046,0.1529,0.8013,0.0772,-0.2058,-1.7531,-0.2370,0.1752,0.2450,0.1800,
12.568351,0.1529,0.8013,0.0772,-0.2058,-1.7531,-0.2370,0.0463,0.2178,0.2290,
12.588649,0.1412,1.0261,0.1551,-0.2058,-1.7531,-0.2370,0.0463,0.2178,0.2290,
12.591010,0.1412,1.0261,0.1551,-0.0262,0.4698,0.0057,0.0463,0.2178,0.2290,
12.592783,0.1412,1.0261,0.1551,-0.0262,0.4698,0.0057,0.1012,0.1252,0.2333,
12.609010,0.1412,1.0261,0.1551,-0.0262,0.4698,0.0057,0.1896,0.0937,0.3020,
12.628499,0.1339,0.9897,0.2001,-0.0262,0.4698,0.0057,0.1896,0.0937,0.3020,
12.631722,0.1339,0.9897,0.2001,-0.0451,0.1359,0.2648,0.1896,0.0937,0.3020,
12.633543,0.1339,0.9897,0.2001,-0.0451,0.1359,0.2648,0.2493,0.0309,0.3515,
12.648469,0.1339,0.9897,0.2001,-0.0451,0.1359,0.2648,0.3515,-0.0458,0.3590,
12.668271,0.1114,0.9987,0.1703,-0.0451,0.1359,0.2648,0.3515,-0.0458,0.3590,
12.670355,0.1114,0.9987,0.1703,-0.3935,0.2242,0.0851,0.3515,-0.0458,0.3590,
12.672185,0.1114,0.9987,0.1703,-0.3935,0.2242,0.0851,0.4405,-0.1156,0.4139,
12.689011,0.1114,0.9987,0.1703,-0.3935,0.2242,0.0851,0.5486,-0.0123,0.5374,
12.709042,0.1529,1.2533,0.1507,-0.3935,0.2242,0.0851,0.5486,-0.0123,0.5374,
12.712801,0.1529,1.2533,0.1507,-0.1722,2.7196,0.0864,0.5486,-0.0123,0.5374,
12.714611,0.1529,1.2533,0.1507,-0.1722,2.7196,0.0864,0.6674,0.0064,0.5811,
12.728261,0.1529,1.2533,0.1507,-0.1722,2.7196,0.0864,0.5742,-0.2519,0.4661,
12.747728,0.1471,1.1890,0.0332,-0.1722,2.7196,0.0864,0.5742,-0.2519,0.4661,
12.749620,0.1471,1.1890,0.0332,-0.4354,2.0955,-0.8191,0.5742,-0.2519,0.4661,
12.751501,0.1471,1.1890,0.0332,-0.4354,2.0955,-0.8191,0.2738,-0.2024,0.5167,
12.767360,0.1471,1.1890,0.0332,-0.4354,2.0955,-0.8191,-0.0676,0.0431,0.5923,
12.787739,0.3743,0.9929,0.0577,-0.4354,2.0955,-0.8191,-0.0676,0.0431,0.5923,
12.789217,0.3743,0.9929,0.0577,1.5765,0.2123,-0.5344,-0.0676,0.0431,0.5923,
12.790224,0.3743,0.9929,0.0577,1.5765,0.2123,-0.5344,-0.4186,0.0868,0.4426,
12.808136,0.3743,0.9929,0.0577,1.5765,0.2123,-0.5344,-0.6450,-0.0426,0.3206,
12.827612,0.3073,1.0078,0.1334,1.5765,0.2123,-0.5344,-0.6450,-0.0426,0.3206,
12.829645,0.3073,1.0078,0.1334,0.7754,0.4169,0.0066,-0.6450,-0.0426,0.3206,
12.831157,0.3073,1.0078,0.1334,0.7754,0.4169,0.0066,-0.8203,-0.2136,0.3425,
12.848002,0.3073,1.0078,0.1334,0.7754,0.4169,0.0066,-0.9635,-0.3111,0.3925,
12.868082,0.4070,0.9367,0.1630,0.7754,0.4169,0.0066,-0.9635,-0.3111,0.3925,
12.870487,0.4070,0.9367,0.1630,1.5879,-0.1924,-0.0085,-0.9635,-0.3111,0.3925,
12.872381,0.4070,0.9367,0.1630,1.5879,-0.1924,-0.0085,-1.0546,-0.3031,0.2668,
12.887488,0.4070,0.9367,0.1630,1.5879,-0.1924,-0.0085,-1.0157,-0.1997,0.0261,
12.907815,0.2668,0.8355,0.2111,1.5879,-0.1924,-0.0085,-1.0157,-0.1997,0.0261,
12.910232,0.2668,0.8355,0.2111,0.1225,-1.0930,0.1139,-1.0157,-0.1997,0.0261,
12.912126,0.2668,0.8355,0.2111,0.1225,-1.0930,0.1139,-0.9800,-0.2072,-0.1129,
12.927540,0.2668,0.8355,0.2111,0.1225,-1.0930,0.1139,-0.8016,0.0192,-0.0842,
12.947865,0.2428,0.9066,0.2360,0.1225,-1.0930,0.1139,-0.8016,0.0192,-0.0842,
12.949798,0.2428,0.9066,0.2360,-0.0931,-0.3307,0.0485,-0.8016,0.0192,-0.0842,
12.951783,0.2428,0.9066,0.2360,-0.0931,-0.3307,0.0485,-0.6163,-0.0091,-0.0517,
12.968006,0.2428,0.9066,0.2360,-0.0931,-0.3307,0.0485,-0.5726,0.0128,-0.0943,
12.988026,0.3271,0.7708,0.2748,-0.0931,-0.3307,0.0485,-0.5726,0.0128,-0.0943,
12.990143,0.3271,0.7708,0.2748,0.7505,-1.6105,0.2116,-0.5726,0.0128,-0.0943,
12.991774,0.3271,0.7708,0.2748,0.7505,-1.6105,0.2116,-0.4432,0.0240,-0.2557,
13.008060,0.3271,0.7708,0.2748,0.7505,-1.6105,0.2116,-0.3377,-0.0916,-0.3137,
13.027640,0.1620,0.7603,0.2800,0.7505,-1.6105,0.2116,-0.3377,-0.0916,-0.3137,
13.029568,0.1620,0.7603,0.2800,-0.7675,-1.7009,0.1224,-0.3377,-0.0916,-0.3137,
13.031294,0.1620,0.7603,0.2800,-0.7675,-1.7009,0.1224,-0.0746,-0.0048,-0.2365,
13.047019,0.1620,0.7603,0.2800,-0.7675,-1.7009,0.1224,0.1630,-0.1582,-0.1555,
13.067486,0.2411,0.7842,0.0660,-0.7675,-1.7009,0.1224,0.1630,-0.1582,-0.1555,
13.070179,0.2411,0.7842,0.0660,0.0714,-1.4891,-1.9512,0.1630,-0.1582,-0.1555,
13.072193,0.2411,0.7842,0.0660,0.0714,-1.4891,-1.9512,0.0650,-0.0639,-0.1182,
13.087975,0.2411,0.7842,0.0660,0.0714,-1.4891,-1.9512,0.0101,0.0107,-0.1736,
13.107583,0.1241,0.8668,0.1268,0.0714,-1.4891,-1.9512,0.0101,0.0107,-0.1736,
13.110507,0.1241,0.8668,0.1268,-1.0246,-0.6969,-1.3389,0.0101,0.0107,-0.1736,
13.112400,0.1241,0.8668,0.1268,-1.0246,-0.6969,-1.3389,0.1380,0.0985,-0.1987,
13.127326,0.1241,0.8668,0.1268,-1.0246,-0.6969,-1.3389,0.1374,0.2051,-0.1065,
13.147778,0.2140,0.8646,0.0848,-1.0246,-0.6969,-1.3389,0.1374,0.2051,-0.1065,
13.151140,0.2140,0.8646,0.0848,-0.0720,-0.7460,-1.7134,0.1374,0.2051,-0.1065,
13.153728,0.2140,0.8646,0.0848,-0.0720,-0.7460,-1.7134,0.0128,0.2866,-0.0698,
13.167720,0.2140,0.8646,0.0848,-0.0720,-0.7460,-1.7134,-0.0368,0.3233,-0.1060,
13.188165,0.2424,0.8517,0.2340,-0.0720,-0.7460,-1.7134,-0.0368,0.3233,-0.1060,
13.192613,0.2424,0.8517,0.2340,0.2693,-0.8792,-0.2810,-0.0368,0.3233,-0.1060,
13.194425,0.2424,0.8517,0.2340,0.2693,-0.8792,-0.2810,0.1246,0.3771,-0.1364,
13.207331,0.2424,0.8517,0.2340,0.2693,-0.8792,-0.2810,0.2647,0.3872,-0.1209,
13.226920,0.1920,0.8849,0.1520,0.2693,-0.8792,-0.2810,0.2647,0.3872,-0.1209,
13.229250,0.1920,0.8849,0.1520,-0.1376,-0.5842,-1.0444,0.2647,0.3872,-0.1209,
13.231154,0.1920,0.8849,0.1520,-0.1376,-0.5842,-1.0444,0.2567,0.3020,-0.0772,
13.247514,0.1920,0.8849,0.1520,-0.1376,-0.5842,-1.0444,0.1289,0.2184,-0.0357,
13.267646,0.2370,0.9320,0.1840,-0.1376,-0.5842,-1.0444,0.1289,0.2184,-0.0357,
13.269924,0.2370,0.9320,0.1840,0.3452,-0.1474,-0.6706,0.1289,0.2184,-0.0357,
13.271795,0.2370,0.9320,0.1840,0.3452,-0.1474,-0.6706,0.0240,0.2067,-0.0027,
13.287712,0.2370,0.9320,0.1840,0.3452,-0.1474,-0.6706,-0.0037,0.1593,-0.0634,
13.307883,0.3027,0.9804,0.2653,0.3452,-0.1474,-0.6706,-0.0037,0.1593,-0.0634,
13.310144,0.3027,0.9804,0.2653,0.9988,0.3239,0.1291,-0.0037,0.1593,-0.0634,
13.311813,0.3027,0.9804,0.2653,0.9988,0.3239,0.1291,0.0889,0.2168,-0.1694,
13.327206,0.3027,0.9804,0.2653,0.9988,0.3239,0.1291,0.2099,0.2594,-0.2621,
13.346981,0.2218,1.0075,0.2827,0.9988,0.3239,0.1291,0.2099,0.2594,-0.2621,
13.348969,0.2218,1.0075,0.2827,-0.1379,0.6313,0.4455,0.2099,0.2594,-0.2621,
13.350640,0.2218,1.0075,0.2827,-0.1379,0.6313,0.4455,0.3041,0.2237,-0.2642,
13.366867,0.2218,1.0075,0.2827,-0.1379,0.6313,0.4455,0.3627,0.1252,-0.2684,
13.386872,0.3025,0.9704,0.3291,-0.1379,0.6313,0.4455,0.3627,0.1252,-0.2684,
13.388982,0.3025,0.9704,0.3291,0.7589,0.2174,0.9981,0.3627,0.1252,-0.2684,
13.390503,0.3025,0.9704,0.3291,0.7589,0.2174,0.9981,0.4218,0.0751,-0.3776,
13.407449,0.3025,0.9704,0.3291,0.7589,0.2174,0.9981,0.4447,0.1459,-0.4884,
13.427203,0.1759,1.0102,0.2392,0.7589,0.2174,0.9981,0.4447,0.1459,-0.4884,
13.429089,0.1759,1.0102,0.2392,-0.4172,0.6519,-0.1175,0.4447,0.1459,-0.4884,
13.430729,0.1759,1.0102,0.2392,-0.4172,0.6519,-0.1175,0.4506,0.2642,-0.3878,
13.447851,0.1759,1.0102,0.2392,-0.4172,0.6519,-0.1175,0.4378,0.3068,-0.3340,
13.466911,0.1397,1.0837,0.1891,-0.4172,0.6519,-0.1175,0.4378,0.3068,-0.3340,
13.469972,0.1397,1.0837,0.1891,-0.4719,1.2432,-0.3475,0.4378,0.3068,-0.3340,
13.471699,0.1397,1.0837,0.1891,-0.4719,1.2432,-0.3475,0.3941,0.1667,-0.3254,
13.487306,0.1397,1.0837,0.1891,-0.4719,1.2432,-0.3475,0.3153,0.1491,-0.2855,
13.507319,0.1158,0.9587,0.1471,-0.4719,1.2432,-0.3475,0.3153,0.1491,-0.2855,
13.510494,0.1158,0.9587,0.1471,-0.3729,-0.1156,-0.4156,0.3153,0.1491,-0.2855,
13.512925,0.1158,0.9587,0.1471,-0.3729,-0.1156,-0.4156,0.3159,0.3297,-0.1939,
13.526299,0.1158,0.9587,0.1471,-0.3729,-0.1156,-0.4156,0.3174,0.6610,-0.2285,
13.546815,0.1129,0.8846,0.1336,-0.3729,-0.1156,-0.4156,0.3174,0.6610,-0.2285,
13.548957,0.1129,0.8846,0.1336,-0.2856,-0.8763,-0.4549,0.3174,0.6610,-0.2285,
13.550858,0.1129,0.8846,0.1336,-0.2856,-0.8763,-0.4549,0.2929,0.5183,-0.1939,
13.567061,0.1129,0.8846,0.1336,-0.2856,-0.8763,-0.4549,0.2290,0.2248,-0.1646,
13.586880,0.1437,0.8751,0.1319,-0.2856,-0.8763,-0.4549,0.2290,0.2248,-0.1646,
13.589461,0.1437,0.8751,0.1319,0.1086,-0.9972,-0.3912,0.2290,0.2248,-0.1646,
13.591130,0.1437,0.8751,0.1319,0.1086,-0.9972,-0.3912,0.1672,0.1294,-0.1230,
13.606780,0.1437,0.8751,0.1319,0.1086,-0.9972,-0.3912,0.1731,0.3159,-0.0607,
13.627124,0.1033,1.0925,0.1170,0.1086,-0.9972,-0.3912,0.1731,0.3159,-0.0607,
13.628905,0.1033,1.0925,0.1170,-0.2354,1.1160,-0.4740,0.1731,0.3159,-0.0607,
13.629449,0.1033,1.0925,0.1170,-0.2354,1.1160,-0.4740,0.2754,0.4559,0.0138,
13.647100,0.1033,1.0925,0.1170,-0.2354,1.1160,-0.4740,0.4112,0.2812,0.1060,
13.667215,0.1339,1.1649,0.1820,-0.2354,1.1160,-0.4740,0.4112,0.2812,0.1060,
13.669399,0.1339,1.1649,0.1820,0.0643,1.8061,0.2765,0.4112,0.2812,0.1060,
13.670820,0.1339,1.1649,0.1820,0.0643,1.8061,0.2765,0.4597,0.0421,0.1534,
13.687036,0.1339,1.1649,0.1820,0.0643,1.8061,0.2765,0.5017,0.0932,0.1310,
13.707075,0.1002,0.9992,0.0726,0.0643,1.8061,0.2765,0.5017,0.0932,0.1310,
13.709772,0.1002,0.9992,0.0726,-0.3133,0.1619,-0.6114,0.5017,0.0932,0.1310,
13.711772,0.1002,0.9992,0.0726,-0.3133,0.1619,-0.6114,0.4666,0.0826,0.1976,
13.727797,0.1002,0.9992,0.0726,-0.3133,0.1619,-0.6114,0.3372,0.0618,0.3260,
13.746609,0.1468,1.0229,0.0540,-0.3133,0.1619,-0.6114,0.3372,0.0618,0.3260,
13.749017,0.1468,1.0229,0.0540,0.2220,0.3321,-0.3348,0.3372,0.0618,0.3260,
13.750697,0.1468,1.0229,0.0540,0.2220,0.3321,-0.3348,0.2035,0.0293,0.4394,
13.766676,0.1468,1.0229,0.0540,0.2220,0.3321,-0.3348,0.1545,-0.0064,0.4346,
13.786462,0.2326,0.9416,0.0708,0.2220,0.3321,-0.3348,0.1545,-0.0064,0.4346,
13.788848,0.2326,0.9416,0.0708,0.8842,-0.4470,-0.1012,0.1545,-0.0064,0.4346,
13.790473,0.2326,0.9416,0.0708,0.8842,-0.4470,-0.1012,0.1198,-0.0639,0.3340,
13.806343,0.2326,0.9416,0.0708,0.8842,-0.4470,-0.1012,0.0778,-0.0043,0.3036,
13.826068,0.1466,1.0256,0.0880,0.8842,-0.4470,-0.1012,0.0778,-0.0043,0.3036,
13.828361,0.1466,1.0256,0.0880,-0.0934,0.3953,0.0878,0.0778,-0.0043,0.3036,
13.829765,0.1466,1.0256,0.0880,-0.0934,0.3953,0.0878,-0.0192,-0.0937,0.3665,
13.848557,0.1466,1.0256,0.0880,-0.0934,0.3953,0.0878,-0.0879,-0.2120,0.4043,
13.867149,0.2130,1.0740,0.1571,-0.0934,0.3953,0.0878,-0.0879,-0.2120,0.4043,
13.869295,0.2130,1.0740,0.1571,0.3888,0.9179,0.5445,-0.0879,-0.2120,0.4043,
13.870779,0.2130,1.0740,0.1571,0.3888,0.9179,0.5445,-0.0964,-0.2844,0.3883,
13.886642,0.2130,1.0740,0.1571,0.3888,0.9179,0.5445,-0.0991,-0.3174,0.3547,
13.906956,0.1170,1.0884,0.1395,0.3888,0.9179,0.5445,-0.0991,-0.3174,0.3547,
13.908928,0.1170,1.0884,0.1395,-0.7024,1.0888,0.3547,-0.0991,-0.3174,0.3547,
13.910486,0.1170,1.0884,0.1395,-0.7024,1.0888,0.3547,-0.0474,-0.1896,0.5151,
13.926692,0.1170,1.0884,0.1395,-0.7024,1.0888,0.3547,-0.0272,-0.1619,0.5902,
13.946466,0.2680,1.0674,0.0982,-0.7024,1.0888,0.3547,-0.0272,-0.1619,0.5902,
13.948589,0.2680,1.0674,0.0982,0.6009,0.9190,-0.0534,-0.0272,-0.1619,0.5902,
13.950232,0.2680,1.0674,0.0982,0.6009,0.9190,-0.0534,-0.1497,-0.2413,0.5300,
13.966761,0.2680,1.0674,0.0982,0.6009,0.9190,-0.0534,-0.2780,-0.2008,0.4996,
13.986302,0.3249,0.9442,0.0992,0.6009,0.9190,-0.0534,-0.2780,-0.2008,0.4996,
13.988764,0.3249,0.9442,0.0992,0.8670,-0.2184,-0.0678,-0.2780,-0.2008,0.4996,
13.990515,0.3249,0.9442,0.0992,0.8670,-0.2184,-0.0678,-0.3558,-0.1076,0.4442,
14.006972,0.3249,0.9442,0.0992,0.8670,-0.2184,-0.0678,-0.4746,-0.2690,0.3771,
14.027113,0.3601,0.9159,0.1031,0.8670,-0.2184,-0.0678,-0.4746,-0.2690,0.3771,
14.029306,0.3601,0.9159,0.1031,1.0355,-0.4356,-0.1628,-0.4746,-0.2690,0.3771,
14.031134,0.3601,0.9159,0.1031,1.0355,-0.4356,-0.1628,-0.6051,-0.5486,0.3084,
14.046658,0.3601,0.9159,0.1031,1.0355,-0.4356,-0.1628,-0.7068,-0.5385,0.2370,
14.066471,0.3325,0.8536,0.0872,1.0355,-0.4356,-0.1628,-0.7068,-0.5385,0.2370,
14.068841,0.3325,0.8536,0.0872,0.6189,-0.9822,-0.4970,-0.7068,-0.5385,0.2370,
14.070561,0.3325,0.8536,0.0872,0.6189,-0.9822,-0.4970,-0.8394,-0.3925,0.1587,
14.086383,0.3325,0.8536,0.0872,0.6189,-0.9822,-0.4970,-0.8922,-0.1779,0.0698,
14.106682,0.2761,0.8468,0.1874,0.6189,-0.9822,-0.4970,-0.8922,-0.1779,0.0698,
14.109006,0.2761,0.8468,0.1874,-0.0006,-0.9840,0.1972,-0.8922,-0.1779,0.0698,
14.110813,0.2761,0.8468,0.1874,-0.0006,-0.9840,0.1972,-0.7489,-0.0783,0.0176,
14.126562,0.2761,0.8468,0.1874,-0.0006,-0.9840,0.1972,-0.5657,-0.1534,0.0080,
14.146582,0.3349,0.8531,0.2077,-0.0006,-0.9840,0.1972,-0.5657,-0.1534,0.0080,
14.148772,0.3349,0.8531,0.2077,0.5542,-0.8720,0.1677,-0.5657,-0.1534,0.0080,
14.150458,0.3349,0.8531,0.2077,0.5542,-0.8720,0.1677,-0.4192,0.0197,-0.0629,
14.166602,0.3349,0.8531,0.2077,0.5542,-0.8720,0.1677,-0.2088,0.1923,-0.1395,
14.186900,0.3076,0.9201,0.2463,0.5542,-0.8720,0.1677,-0.2088,0.1923,-0.1395,
14.188946,0.3076,0.9201,0.2463,0.3190,-0.1988,0.4176,-0.2088,0.1923,-0.1395,
14.190593,0.3076,0.9201,0.2463,0.3190,-0.1988,0.4176,0.1481,0.0394,-0.1497,
14.206747,0.3076,0.9201,0.2463,0.3190,-0.1988,0.4176,0.3265,0.0437,-0.2189,
14.227035,0.1962,0.7798,0.1009,0.3190,-0.1988,0.4176,0.3265,0.0437,-0.2189,
14.229030,0.1962,0.7798,0.1009,-0.7016,-1.6112,-0.9238,0.3265,0.0437,-0.2189,
14.230989,0.1962,0.7798,0.1009,-0.7016,-1.6112,-0.9238,0.3531,0.1523,-0.2828,
14.246863,0.1962,0.7798,0.1009,-0.7016,-1.6112,-0.9238,0.3318,0.1672,-0.1822,
14.266187,0.2262,0.8411,-0.0701,-0.7016,-1.6112,-0.9238,0.3318,0.1672,-0.1822,
14.268435,0.2262,0.8411,-0.0701,-0.3091,-1.0595,-2.4892,0.3318,0.1672,-0.1822,
14.270265,0.2262,0.8411,-0.0701,-0.3091,-1.0595,-2.4892,0.1401,0.1507,-0.0772,
14.285892,0.2262,0.8411,-0.0701,-0.3091,-1.0595,-2.4892,-0.1646,0.2013,-0.0783,
14.305628,0.2756,0.7989,0.1268,-0.3091,-1.0595,-2.4892,-0.1646,0.2013,-0.0783,
14.307765,0.2756,0.7989,0.1268,0.2161,-1.4806,-0.5816,-0.1646,0.2013,-0.0783,
14.309519,0.2756,0.7989,0.1268,0.2161,-1.4806,-0.5816,-0.2423,0.2162,-0.0991,
14.325810,0.2756,0.7989,0.1268,0.2161,-1.4806,-0.5816,-0.1305,0.2168,-0.1262,
14.348038,0.2436,0.8172,0.1637,0.2161,-1.4806,-0.5816,-0.1305,0.2168,-0.1262,
14.350893,0.2436,0.8172,0.1637,-0.0395,-1.2982,-0.3107,-0.1305,0.2168,-0.1262,
14.352744,0.2436,0.8172,0.1637,-0.0395,-1.2982,-0.3107,-0.0080,0.2354,-0.1534,
14.366300,0.2436,0.8172,0.1637,-0.0395,-1.2982,-0.3107,0.0794,0.2876,-0.1806,
14.386048,0.2272,0.8441,0.1698,-0.0395,-1.2982,-0.3107,0.0794,0.2876,-0.1806,
14.388497,0.2272,0.8441,0.1698,-0.1176,-1.0535,-0.2624,0.0794,0.2876,-0.1806,
14.390411,0.2272,0.8441,0.1698,-0.1176,-1.0535,-0.2624,0.1896,0.3089,-0.1374,
14.405966,0.2272,0.8441,0.1698,-0.1176,-1.0535,-0.2624,0.2583,0.2535,-0.1214,
14.426094,0.2724,0.9301,0.1642,-0.1176,-1.0535,-0.2624,0.2583,0.2535,-0.1214,
14.428393,0.2724,0.9301,0.1642,0.3911,-0.2392,-0.2577,0.2583,0.2535,-0.1214,
14.430188,0.2724,0.9301,0.1642,0.3911,-0.2392,-0.2577,0.2152,0.2205,-0.1587,
14.446666,0.2724,0.9301,0.1642,0.3911,-0.2392,-0.2577,0.2248,0.1811,-0.2003,
14.465743,0.3142,1.0757,0.1754,0.3911,-0.2392,-0.2577,0.2248,0.1811,-0.2003,
14.467961,0.3142,1.0757,0.1754,0.3665,1.2485,0.1538,0.2248,0.1811,-0.2003,
14.469443,0.3142,1.0757,0.1754,0.3665,1.2485,0.1538,0.2706,0.1976,-0.2663,
14.485299,0.3142,1.0757,0.1754,0.3665,1.2485,0.1538,0.2296,0.1284,-0.3510,
14.505579,0.3318,1.0789,0.2096,0.3665,1.2485,0.1538,0.2296,0.1284,-0.3510,
14.507724,0.3318,1.0789,0.2096,0.5797,1.2691,0.4815,0.2296,0.1284,-0.3510,
14.509467,0.3318,1.0789,0.2096,0.5797,1.2691,0.4815,0.2232,0.0943,-0.4155,
14.525361,0.3318,1.0789,0.2096,0.5797,1.2691,0.4815,0.2168,0.0378,-0.4645,
14.545812,0.2570,0.9968,0.1923,0.5797,1.2691,0.4815,0.2168,0.0378,-0.4645,
14.547645,0.2570,0.9968,0.1923,0.0082,0.4098,0.3726,0.2168,0.0378,-0.4645,
14.549224,0.2570,0.9968,0.1923,0.0082,0.4098,0.3726,0.1411,-0.0453,-0.4171,
14.565454,0.2570,0.9968,0.1923,0.0082,0.4098,0.3726,0.0479,-0.1001,-0.4357,
14.585072,0.2460,0.9110,0.1791,0.0082,0.4098,0.3726,0.0479,-0.1001,-0.4357,
14.586794,0.2460,0.9110,0.1791,0.0194,-0.4605,0.2361,0.0479,-0.1001,-0.4357,
14.587963,0.2460,0.9110,0.1791,0.0194,-0.4605,0.2361,-0.0085,-0.1033,-0.5278,
14.605060,0.2460,0.9110,0.1791,0.0194,-0.4605,0.2361,-0.0368,-0.0421,-0.5444,
14.625173,0.1055,0.9379,0.1151,0.0194,-0.4605,0.2361,-0.0368,-0.0421,-0.5444,
14.627940,0.1055,0.9379,0.1151,-1.1339,-0.2507,-0.3944,-0.0368,-0.0421,-0.5444,
14.630376,0.1055,0.9379,0.1151,-1.1339,-0.2507,-0.3944,-0.0224,0.0383,-0.5028,
14.645836,0.1055,0.9379,0.1151,-1.1339,-0.2507,-0.3944,0.0229,0.0250,-0.3846,
14.665890,0.0603,1.0512,0.1204,-1.1339,-0.2507,-0.3944,0.0229,0.0250,-0.3846,
14.668356,0.0603,1.0512,0.1204,-1.2947,0.7955,-0.3146,0.0229,0.0250,-0.3846,
14.670129,0.0603,1.0512,0.1204,-1.2947,0.7955,-0.3146,0.0208,-0.0197,-0.2328,
14.685832,0.0603,1.0512,0.1204,-1.2947,0.7955,-0.3146,0.0895,-0.0149,-0.0831,
14.705618,0.1742,1.0266,0.2121,-1.2947,0.7955,-0.3146,0.0895,-0.0149,-0.0831,
14.708239,0.1742,1.0266,0.2121,-0.1103,0.5375,0.6015,0.0895,-0.0149,-0.0831,
14.710017,0.1742,1.0266,0.2121,-0.1103,0.5375,0.6015,0.1353,-0.0410,-0.0884,
14.725182,0.1742,1.0266,0.2121,-0.1103,0.5375,0.6015,0.0698,-0.0176,-0.1768,
14.745886,0.1779,0.9108,0.2162,-0.1103,0.5375,0.6015,0.0698,-0.0176,-0.1768,
14.749722,0.1779,0.9108,0.2162,-0.0195,-0.6114,0.6664,0.0698,-0.0176,-0.1768,
14.751648,0.1779,0.9108,0.2162,-0.0195,-0.6114,0.6664,-0.0043,-0.0469,-0.1071,
14.766262,0.1779,0.9108,0.2162,-0.0195,-0.6114,0.6664,0.0245,-0.0352,-0.0053,
14.785615,0.1698,0.9716,0.0975,-0.0195,-0.6114,0.6664,0.0245,-0.0352,-0.0053,
14.787852,0.1698,0.9716,0.0975,-0.0201,-0.0270,-0.5127,0.0245,-0.0352,-0.0053,
14.789778,0.1698,0.9716,0.0975,-0.0201,-0.0270,-0.5127,0.1316,0.0160,-0.0069,
14.805637,0.1698,0.9716,0.0975,-0.0201,-0.0270,-0.5127,0.2850,0.0186,-0.0772,
14.826482,0.0535,1.1045,0.0293,-0.0201,-0.0270,-0.5127,0.2850,0.0186,-0.0772,
14.828890,0.0535,1.1045,0.0293,-1.1291,1.2567,-1.0910,0.2850,0.0186,-0.0772,
14.830691,0.0535,1.1045,0.0293,-1.1291,1.2567,-1.0910,0.3510,-0.0847,-0.0485,
14.846239,0.0535,1.1045,0.0293,-1.1291,1.2567,-1.0910,0.2599,-0.1486,0.0634,
14.865115,0.1158,0.9738,0.0608,-1.1291,1.2567,-1.0910,0.2599,-0.1486,0.0634,
14.867139,0.1158,0.9738,0.0608,-0.5093,-0.0450,-0.6418,0.2599,-0.1486,0.0634,
14.869142,0.1158,0.9738,0.0608,-0.5093,-0.0450,-0.6418,0.0959,-0.1497,0.1017,
14.886122,0.1158,0.9738,0.0608,-0.5093,-0.0450,-0.6418,-0.0011,-0.1225,0.1449,
14.905435,0.1813,1.0942,0.1004,-0.5093,-0.0450,-0.6418,-0.0011,-0.1225,0.1449,
14.908122,0.1813,1.0942,0.1004,0.0847,1.1394,-0.2202,-0.0011,-0.1225,0.1449,
14.909598,0.1813,1.0942,0.1004,0.0847,1.1394,-0.2202,-0.0591,-0.0847,0.2328,
14.925236,0.1813,1.0942,0.1004,0.0847,1.1394,-0.2202,-0.1529,-0.1955,0.2296,
14.945015,0.2367,0.9882,0.2025,0.0847,1.1394,-0.2202,-0.1529,-0.1955,0.2296,
14.948374,0.2367,0.9882,0.2025,0.5332,0.1215,0.7495,-0.1529,-0.1955,0.2296,
14.950084,0.2367,0.9882,0.2025,0.5332,0.1215,0.7495,-0.2045,-0.2589,0.2232,
14.965994,0.2367,0.9882,0.2025,0.5332,0.1215,0.7495,-0.1609,-0.2866,0.1928,
14.985494,0.1402,0.8641,0.2169,0.5332,0.1215,0.7495,-0.1609,-0.2866,0.1928,
14.987512,0.1402,0.8641,0.2169,-0.2764,-1.0444,0.4074,-0.1609,-0.2866,0.1928,
14.989262,0.1402,0.8641,0.2169,-0.2764,-1.0444,0.4074,-0.1028,-0.3111,0.2381,
15.005587,0.1402,0.8641,0.2169,-0.2764,-1.0444,0.4074,0.0096,-0.2759,0.3164,
15.025522,0.0948,0.9479,0.1656,-0.2764,-1.0444,0.4074,0.0096,-0.2759,0.3164,
15.027829,0.0948,0.9479,0.1656,-0.4291,-0.2721,-0.0799,0.0096,-0.2759,0.3164,
15.029519,0.0948,0.9479,0.1656,-0.4291,-0.2721,-0.0799,0.1822,-0.2637,0.4032,
15.045807,0.0948,0.9479,0.1656,-0.4291,-0.2721,-0.0799,0.3670,-0.3148,0.5172,
15.065346,-0.0161,1.1820,0.0828,-0.4291,-0.2721,-0.0799,0.3670,-0.3148,0.5172,
15.067927,-0.0161,1.1820,0.0828,-1.6963,2.0270,-0.7644,0.3670,-0.3148,0.5172,
15.069765,-0.0161,1.1820,0.0828,-1.6963,2.0270,-0.7644,0.4405,-0.3915,0.6498,
15.085748,-0.0161,1.1820,0.0828,-1.6963,2.0270,-0.7644,0.2748,-0.4847,0.7830,
15.105864,0.1170,1.1590,0.0894,-1.6963,2.0270,-0.7644,0.2748,-0.4847,0.7830,
15.108549,0.1170,1.1590,0.0894,-0.6908,1.8289,-0.5337,0.2748,-0.4847,0.7830,
15.110354,0.1170,1.1590,0.0894,-0.6908,1.8289,-0.5337,-0.0165,-0.5422,0.8064,
15.125062,0.1170,1.1590,0.0894,-0.6908,1.8289,-0.5337,-0.3004,-0.4016,0.8203,
15.144648,0.2575,0.9264,0.1801,-0.6908,1.8289,-0.5337,-0.3004,-0.4016,0.8203,
15.147190,0.2575,0.9264,0.1801,0.3650,-0.3798,0.3342,-0.3004,-0.4016,0.8203,
15.149445,0.2575,0.9264,0.1801,0.3650,-0.3798,0.3342,-0.4730,-0.2631,0.8117,
15.165701,0.2575,0.9264,0.1801,0.3650,-0.3798,0.3342,-0.5699,-0.2589,0.8139,
15.185283,0.3027,0.9161,0.2226,0.3650,-0.3798,0.3342,-0.5699,-0.2589,0.8139,
15.187186,0.3027,0.9161,0.2226,0.4979,-0.3758,0.5757,-0.5699,-0.2589,0.8139,
15.188962,0.3027,0.9161,0.2226,0.4979,-0.3758,0.5757,-0.5459,-0.2684,0.7931,
15.205472,0.3027,0.9161,0.2226,0.4979,-0.3758,0.5757,-0.3760,-0.3009,0.6871,
15.225311,0.2851,1.0256,0.1869,0.4979,-0.3758,0.5757,-0.3760,-0.3009,0.6871,
15.228065,0.2851,1.0256,0.1869,0.0409,0.8019,0.0858,-0.3760,-0.3009,0.6871,
15.230070,0.2851,1.0256,0.1869,0.0409,0.8019,0.0858,-0.3095,-0.4368,0.5657,
15.245481,0.2851,1.0256,0.1869,0.0409,0.8019,0.0858,-0.4043,-0.5561,0.5151,
15.265499,0.3616,0.8863,0.2011,0.0409,0.8019,0.0858,-0.4043,-0.5561,0.5151,
15.267211,0.3616,0.8863,0.2011,0.5575,-0.4758,0.1504,-0.4043,-0.5561,0.5151,
15.269033,0.3616,0.8863,0.2011,0.5575,-0.4758,0.1504,-0.4218,-0.2567,0.4000,
15.284748,0.3616,0.8863,0.2011,0.5575,-0.4758,0.1504,-0.2232,0.0746,0.2839,
15.304987,0.2060,0.8666,0.1769,0.5575,-0.4758,0.1504,-0.2232,0.0746,0.2839,
15.307733,0.2060,0.8666,0.1769,-1.0857,-0.6088,-0.1918,-0.2232,0.0746,0.2839,
15.309677,0.2060,0.8666,0.1769,-1.0857,-0.6088,-0.1918,-0.0154,0.0469,0.2397,
15.325178,0.2060,0.8666,0.1769,-1.0857,-0.6088,-0.1918,-0.0591,0.0959,0.2940,
15.345861,0.2321,0.8622,0.1375,-1.0857,-0.6088,-0.1918,-0.0591,0.0959,0.2940,
15.351112,0.2321,0.8622,0.1375,-0.9111,-0.6196,-0.5962,-0.0591,0.0959,0.2940,
15.353215,0.2321,0.8622,0.1375,-0.9111,-0.6196,-0.5962,-0.0474,-0.0581,0.3957,
15.365330,0.2321,0.8622,0.1375,-0.9111,-0.6196,-0.5962,-0.2024,-0.0810,0.3947,
15.384684,0.3635,0.8976,0.2411,-0.9111,-0.6196,-0.5962,-0.2024,-0.0810,0.3947,
15.386951,0.3635,0.8976,0.2411,0.5370,-0.3131,0.3544,-0.2024,-0.0810,0.3947,
15.388802,0.3635,0.8976,0.2411,0.5370,-0.3131,0.3544,-0.3398,0.0975,0.3744,
15.405298,0.3635,0.8976,0.2411,0.5370,-0.3131,0.3544,-0.1907,0.1007,0.3798,
15.425095,0.5025,0.8587,0.4180,0.5370,-0.3131,0.3544,-0.1907,0.1007,0.3798,
15.427656,0.5025,0.8587,0.4180,1.7463,-0.6099,1.9501,-0.1907,0.1007,0.3798,
15.429474,0.5025,0.8587,0.4180,1.7463,-0.6099,1.9501,-0.0245,0.2178,0.2381,
15.444313,0.5025,0.8587,0.4180,1.7463,-0.6099,1.9501,0.3414,0.5017,-0.0160,
15.464665,0.1060,0.6003,0.2108,1.7463,-0.6099,1.9501,0.3414,0.5017,-0.0160,
15.466663,0.1060,0.6003,0.2108,-2.1487,-3.1424,-0.0691,0.3414,0.5017,-0.0160,
15.468705,0.1060,0.6003,0.2108,-2.1487,-3.1424,-0.0691,0.7936,0.7015,-0.0405,
15.484444,0.1060,0.6003,0.2108,-2.1487,-3.1424,-0.0691,0.9172,0.8501,0.0666,
15.504094,0.1478,0.6897,-0.0745,-2.1487,-3.1424,-0.0691,0.9172,0.8501,0.0666,
15.506346,0.1478,0.6897,-0.0745,-1.6812,-2.3338,-2.6536,0.9172,0.8501,0.0666,
15.507959,0.1478,0.6897,-0.0745,-1.6812,-2.3338,-2.6536,0.8272,0.9305,0.1364,
15.525141,0.1478,0.6897,-0.0745,-1.6812,-2.3338,-2.6536,0.6392,1.0418,0.1262,
15.544364,0.2700,0.8961,-0.0347,-1.6812,-2.3338,-2.6536,0.6392,1.0418,0.1262,
15.546863,0.2700,0.8961,-0.0347,-0.4594,-0.3484,-2.1195,0.6392,1.0418,0.1262,
15.549375,0.2700,0.8961,-0.0347,-0.4594,-0.3484,-2.1195,0.4959,1.0637,0.1060,
15.565006,0.2700,0.8961,-0.0347,-0.4594,-0.3484,-2.1195,0.2439,1.0424,0.0676,
15.583569,0.2631,1.0229,0.1593,-0.4594,-0.3484,-2.1195,0.2439,1.0424,0.0676,
15.584517,0.2631,1.0229,0.1593,-0.4778,0.8748,-0.2028,0.2439,1.0424,0.0676,
15.585206,0.2631,1.0229,0.1593,-0.4778,0.8748,-0.2028,-0.1124,1.0120,0.0687,
15.603980,0.2631,1.0229,0.1593,-0.4778,0.8748,-0.2028,-0.3148,0.8330,0.0533,
15.624599,0.4319,0.9540,0.4187,-0.4778,0.8748,-0.2028,-0.3148,0.8330,0.0533,
15.626834,0.4319,0.9540,0.4187,1.2153,0.2281,2.1372,-0.3148,0.8330,0.0533,
