
time,gFx,gFy,gFz,ax,ay,az,wx,wy,wz,
0.019785,0.0000,0.0000,0.0000,0.0000,0.0000,0.0000,0.0378,-0.6908,-0.6200,
0.039409,0.1026,0.3020,0.9692,0.0000,0.0000,0.0000,0.0378,-0.6908,-0.6200,
0.040696,0.1026,0.3020,0.9692,0.0000,0.0000,0.0000,0.0378,-0.6908,-0.6200,
0.059004,0.1026,0.3020,0.9692,0.0000,0.0000,0.0000,0.0378,-0.6908,-0.6200,
0.079413,0.0528,0.3525,0.8382,0.0000,0.0000,0.0000,0.0378,-0.6908,-0.6200,
0.081560,0.0528,0.3525,0.8382,-0.0510,-0.3407,-0.8100,0.0378,-0.6908,-0.6200,
0.083532,0.0528,0.3525,0.8382,-0.0510,-0.3407,-0.8100,0.0378,-0.6908,-0.6200,
0.100210,0.0528,0.3525,0.8382,-0.0510,-0.3407,-0.8100,0.6940,0.6242,-0.4149,
0.119737,0.1258,0.3811,0.9000,-0.0510,-0.3407,-0.8100,0.6940,0.6242,-0.4149,
0.123458,0.1258,0.3811,0.9000,0.3573,-0.0616,-0.1792,0.6940,0.6242,-0.4149,
0.125291,0.1258,0.3811,0.9000,0.3573,-0.0616,-0.1792,0.9396,0.9816,-0.4458,
0.139349,0.1258,0.3811,0.9000,0.3573,-0.0616,-0.1792,1.0370,0.9305,-0.6210,
0.161130,0.0242,0.4197,0.8341,0.3573,-0.0616,-0.1792,1.0370,0.9305,-0.6210,
0.163512,0.0242,0.4197,0.8341,-0.3737,0.0518,-0.7314,1.0370,0.9305,-0.6210,
0.165094,0.0242,0.4197,0.8341,-0.3737,0.0518,-0.7314,0.8986,0.5044,-0.8458,
0.178817,0.0242,0.4197,0.8341,-0.3737,0.0518,-0.7314,0.8964,0.4895,-0.9183,
0.199677,-0.1048,0.4688,0.9020,-0.3737,0.0518,-0.7314,0.8964,0.4895,-0.9183,
0.202700,-0.1048,0.4688,0.9020,-0.9088,0.3201,0.0141,0.8964,0.4895,-0.9183,
0.204757,-0.1048,0.4688,0.9020,-0.9088,0.3201,0.0141,1.1856,0.9492,-0.8703,
0.219000,-0.1048,0.4688,0.9020,-0.9088,0.3201,0.0141,1.5105,1.3550,-0.7579,
0.239670,-0.2318,0.5079,0.8067,-0.9088,0.3201,0.0141,1.5105,1.3550,-0.7579,
0.241854,-0.2318,0.5079,0.8067,-1.1953,0.3202,-0.6571,1.5105,1.3550,-0.7579,
0.243939,-0.2318,0.5079,0.8067,-1.1953,0.3202,-0.6571,1.6059,1.1904,-0.8368,
0.258930,-0.2318,0.5079,0.8067,-1.1953,0.3202,-0.6571,1.4701,0.7105,-0.9294,
0.278974,-0.3208,0.6020,0.7581,-1.1953,0.3202,-0.6571,1.4701,0.7105,-0.9294,
0.280792,-0.3208,0.6020,0.7581,-1.1609,0.6950,-0.6427,1.4701,0.7105,-0.9294,
0.282293,-0.3208,0.6020,0.7581,-1.1609,0.6950,-0.6427,1.4248,0.6732,-0.8970,
0.299210,-0.3208,0.6020,0.7581,-1.1609,0.6950,-0.6427,1.4083,0.7441,-0.7760,
0.319030,-0.3555,0.6193,0.7073,-1.1609,0.6950,-0.6427,1.4083,0.7441,-0.7760,
0.322022,-0.3555,0.6193,0.7073,-0.8394,0.4691,-0.6725,1.4083,0.7441,-0.7760,
0.324021,-0.3555,0.6193,0.7073,-0.8394,0.4691,-0.6725,1.4243,0.8357,-0.7297,
0.339629,-0.3555,0.6193,0.7073,-0.8394,0.4691,-0.6725,1.5052,0.7356,-0.7675,
0.358818,-0.3860,0.6618,0.5971,-0.8394,0.4691,-0.6725,1.5052,0.7356,-0.7675,
0.361045,-0.3860,0.6618,0.5971,-0.5837,0.3844,-1.1277,1.5052,0.7356,-0.7675,
0.363085,-0.3860,0.6618,0.5971,-0.5837,0.3844,-1.1277,1.4674,0.5065,-0.8160,
0.379210,-0.3860,0.6618,0.5971,-0.5837,0.3844,-1.1277,1.4583,0.6413,-0.8059,
0.399209,-0.4581,0.7322,0.5692,-0.5837,0.3844,-1.1277,1.4583,0.6413,-0.8059,
0.402078,-0.4581,0.7322,0.5692,-0.9271,0.7838,-0.9506,1.4583,0.6413,-0.8059,
0.404165,-0.4581,0.7322,0.5692,-0.9271,0.7838,-0.9506,1.5356,0.9598,-0.7148,
0.419348,-0.4581,0.7322,0.5692,-0.9271,0.7838,-0.9506,1.5175,1.0674,-0.6136,
0.439165,-0.3718,0.6843,0.2511,-0.9271,0.7838,-0.9506,1.5175,1.0674,-0.6136,
0.441328,-0.3718,0.6843,0.2511,0.3441,0.0327,-3.5163,1.5175,1.0674,-0.6136,
0.443184,-0.3718,0.6843,0.2511,0.3441,0.0327,-3.5163,1.2181,0.7313,-0.6956,
0.458595,-0.3718,0.6843,0.2511,0.3441,0.0327,-3.5163,0.7846,0.2743,-0.8884,
0.479654,-0.5042,0.7383,0.5038,0.3441,0.0327,-3.5163,0.7846,0.2743,-0.8884,
0.482095,-0.5042,0.7383,0.5038,-0.6210,0.4526,-0.6755,0.7846,0.2743,-0.8884,
0.484099,-0.5042,0.7383,0.5038,-0.6210,0.4526,-0.6755,0.8400,0.2743,-0.7233,
0.498542,-0.5042,0.7383,0.5038,-0.6210,0.4526,-0.6755,1.0935,0.7840,-0.5220,
0.519294,-0.4845,0.7297,0.5492,-0.6210,0.4526,-0.6755,1.0935,0.7840,-0.5220,
0.522533,-0.4845,0.7297,0.5492,-0.1461,0.2641,0.1325,1.0935,0.7840,-0.5220,
0.524499,-0.4845,0.7297,0.5492,-0.1461,0.2641,0.1325,1.5255,1.3976,-0.4101,
0.538181,-0.4845,0.7297,0.5492,-0.1461,0.2641,0.1325,1.6144,1.1904,-0.5225,
0.559378,-0.6384,0.8336,0.2125,-0.1461,0.2641,0.1325,1.6144,1.1904,-0.5225,
0.561493,-0.6384,0.8336,0.2125,-1.2617,1.0505,-2.4507,1.6144,1.1904,-0.5225,
0.563431,-0.6384,0.8336,0.2125,-1.2617,1.0505,-2.4507,1.1888,0.4224,-0.4298,
0.579279,-0.6384,0.8336,0.2125,-1.2617,1.0505,-2.4507,0.6780,-0.0368,-0.4554,
0.598527,-0.4173,0.7219,0.3467,-1.2617,1.0505,-2.4507,0.6780,-0.0368,-0.4554,
0.600829,-0.4173,0.7219,0.3467,1.0606,-0.1273,-0.8190,0.6780,-0.0368,-0.4554,
0.602744,-0.4173,0.7219,0.3467,1.0606,-0.1273,-0.8190,0.6397,0.3830,-0.5113,
0.618319,-0.4173,0.7219,0.3467,1.0606,-0.1273,-0.8190,1.0173,0.8916,-0.4874,
0.638610,-0.6071,0.7520,0.3870,1.0606,-0.1273,-0.8190,1.0173,0.8916,-0.4874,
0.640715,-0.6071,0.7520,0.3870,-0.5564,0.1348,-0.0475,1.0173,0.8916,-0.4874,
0.642670,-0.6071,0.7520,0.3870,-0.5564,0.1348,-0.0475,1.2517,0.5854,-0.5422,
0.658045,-0.6071,0.7520,0.3870,-0.5564,0.1348,-0.0475,1.0211,0.1891,-0.5886,
0.679550,-0.5365,0.7385,0.1774,-0.5564,0.1348,-0.0475,1.0211,0.1891,-0.5886,
0.682405,-0.5365,0.7385,0.1774,0.3528,-0.0448,-1.6762,1.0211,0.1891,-0.5886,
0.684430,-0.5365,0.7385,0.1774,0.3528,-0.0448,-1.6762,0.8645,0.2716,-0.5736,
0.698614,-0.5365,0.7385,0.1774,0.3528,-0.0448,-1.6762,0.7835,0.7025,-0.3830,
0.718685,-0.6415,0.7784,0.3775,0.3528,-0.0448,-1.6762,0.7835,0.7025,-0.3830,
0.720934,-0.6415,0.7784,0.3775,-0.4792,0.3453,0.6328,0.7835,0.7025,-0.3830,
0.722862,-0.6415,0.7784,0.3775,-0.4792,0.3453,0.6328,0.8384,0.6519,-0.3883,
0.738279,-0.6415,0.7784,0.3775,-0.4792,0.3453,0.6328,1.1159,0.5124,-0.4565,
0.757914,-0.7488,0.8116,0.3198,-0.4792,0.3453,0.6328,1.1159,0.5124,-0.4565,
0.759478,-0.7488,0.8116,0.3198,-1.3405,0.6610,0.4851,1.1159,0.5124,-0.4565,
0.760618,-0.7488,0.8116,0.3198,-1.3405,0.6610,0.4851,1.4466,0.4900,-0.3904,
0.777870,-0.7488,0.8116,0.3198,-1.3405,0.6610,0.4851,1.2767,0.5156,-0.0767,
0.797972,-0.5600,0.8109,0.1893,-1.3405,0.6610,0.4851,1.2767,0.5156,-0.0767,
0.798806,-0.5600,0.8109,0.1893,0.6184,0.5766,-0.2833,1.2767,0.5156,-0.0767,
0.799764,-0.5600,0.8109,0.1893,0.6184,0.5766,-0.2833,1.0956,0.3164,-0.1065,
0.817833,-0.5600,0.8109,0.1893,0.6184,0.5766,-0.2833,0.9268,0.1294,-0.2487,
0.837928,-0.6315,0.7933,0.0694,0.6184,0.5766,-0.2833,0.9268,0.1294,-0.2487,
0.838814,-0.6315,0.7933,0.0694,-0.0192,0.3633,-1.1049,0.9268,0.1294,-0.2487,
0.839631,-0.6315,0.7933,0.0694,-0.0192,0.3633,-1.1049,0.8160,0.2546,-0.3691,
0.858059,-0.6315,0.7933,0.0694,-0.0192,0.3633,-1.1049,0.5992,0.2562,-0.3553,
0.878080,-0.6606,0.7583,0.1346,-0.0192,0.3633,-1.1049,0.5992,0.2562,-0.3553,
0.879415,-0.6606,0.7583,0.1346,-0.1835,0.0620,-0.1942,0.5992,0.2562,-0.3553,
0.880456,-0.6606,0.7583,0.1346,-0.1835,0.0620,-0.1942,0.5790,-0.0048,-0.3132,
0.897210,-0.6606,0.7583,0.1346,-0.1835,0.0620,-0.1942,0.5507,-0.3883,-0.1971,
0.917166,-0.4815,0.7801,-0.1283,-0.1835,0.0620,-0.1942,0.5507,-0.3883,-0.1971,
0.918862,-0.4815,0.7801,-0.1283,1.6219,0.2904,-2.6276,0.5507,-0.3883,-0.1971,
0.919778,-0.4815,0.7801,-0.1283,1.6219,0.2904,-2.6276,0.3670,-0.3446,-0.1784,
0.936959,-0.4815,0.7801,-0.1283,1.6219,0.2904,-2.6276,0.4916,0.3728,-0.2461,
0.957211,-0.2976,1.0791,0.2668,1.6219,0.2904,-2.6276,0.4916,0.3728,-0.2461,
0.959125,-0.2976,1.0791,0.2668,3.4316,3.2043,1.3706,0.4916,0.3728,-0.2461,
0.960422,-0.2976,1.0791,0.2668,3.4316,3.2043,1.3706,0.7675,2.1172,-0.8485,
0.977322,-0.2976,1.0791,0.2668,3.4316,3.2043,1.3706,0.9609,2.4746,-0.5992,
0.997822,-0.8394,1.0293,0.1212,3.4316,3.2043,1.3706,0.9609,2.4746,-0.5992,
1.001098,-0.8394,1.0293,0.1212,-1.5926,2.8753,0.7913,0.9609,2.4746,-0.5992,
1.003060,-0.8394,1.0293,0.1212,-1.5926,2.8753,0.7913,0.9571,-0.1300,0.9348,
1.018121,-0.8394,1.0293,0.1212,-1.5926,2.8753,0.7913,0.8165,-1.7401,2.3825,
1.037735,-0.2585,0.8536,0.2299,-1.5926,2.8753,0.7913,0.8165,-1.7401,2.3825,
1.039617,-0.2585,0.8536,0.2299,3.5581,0.6903,1.8505,0.8165,-1.7401,2.3825,
1.040880,-0.2585,0.8536,0.2299,3.5581,0.6903,1.8505,0.9619,-1.3060,2.1833,
1.057152,-0.2585,0.8536,0.2299,3.5581,0.6903,1.8505,0.9470,-0.1076,1.6378,
1.077844,-0.6755,0.8087,0.1524,3.5581,0.6903,1.8505,0.9470,-0.1076,1.6378,
1.079312,-0.6755,0.8087,0.1524,-1.1484,-0.2082,1.1982,0.9470,-0.1076,1.6378,
1.080620,-0.6755,0.8087,0.1524,-1.1484,-0.2082,1.1982,0.6248,-0.1667,1.6948,
1.097681,-0.6755,0.8087,0.1524,-1.1484,-0.2082,1.1982,0.2663,-1.1787,1.8754,
1.117452,-0.6335,0.8084,0.1891,-1.1484,-0.2082,1.1982,0.2663,-1.1787,1.8754,
1.120434,-0.6335,0.8084,0.1891,-1.3195,-0.5729,1.5369,0.2663,-1.1787,1.8754,
1.122244,-0.6335,0.8084,0.1891,-1.3195,-0.5729,1.5369,0.0277,-1.4168,1.7161,
1.137579,-0.6335,0.8084,0.1891,-1.3195,-0.5729,1.5369,-0.2423,-1.4354,1.5217,
1.158022,-0.7542,0.6337,0.0579,-1.3195,-0.5729,1.5369,-0.2423,-1.4354,1.5217,
1.161353,-0.7542,0.6337,0.0579,-3.0114,-2.5408,-0.0685,-0.2423,-1.4354,1.5217,
1.164013,-0.7542,0.6337,0.0579,-3.0114,-2.5408,-0.0685,-0.6716,-1.7433,1.2970,
1.177083,-0.7542,0.6337,0.0579,-3.0114,-2.5408,-0.0685,-1.1995,-1.9271,0.7494,
1.197303,-0.7451,0.8582,0.0782,-3.0114,-2.5408,-0.0685,-1.1995,-1.9271,0.7494,
1.199747,-0.7451,0.8582,0.0782,-3.3201,-0.4610,-0.5003,-1.1995,-1.9271,0.7494,
1.201693,-0.7451,0.8582,0.0782,-3.3201,-0.4610,-0.5003,-1.5766,-1.5963,0.0868,
1.217168,-0.7451,0.8582,0.0782,-3.3201,-0.4610,-0.5003,-1.7044,-1.7864,-0.1135,
1.237570,-0.8433,0.8099,-0.0305,-3.3201,-0.4610,-0.5003,-1.7044,-1.7864,-0.1135,
1.239696,-0.8433,0.8099,-0.0305,-4.3923,-0.8225,-2.4088,-1.7044,-1.7864,-0.1135,
1.241295,-0.8433,0.8099,-0.0305,-4.3923,-0.8225,-2.4088,-1.8541,-2.3201,-0.3052,
1.257431,-0.8433,0.8099,-0.0305,-4.3923,-0.8225,-2.4088,-1.8232,-2.0560,-0.8139,
1.277227,-0.7371,0.8414,-0.0191,-4.3923,-0.8225,-2.4088,-1.8232,-2.0560,-0.8139,
1.280635,-0.7371,0.8414,-0.0191,-3.3848,-0.2370,-3.2659,-1.8232,-2.0560,-0.8139,
1.282402,-0.7371,0.8414,-0.0191,-3.3848,-0.2370,-3.2659,-1.0258,-1.8136,-1.0019,
1.297269,-0.7371,0.8414,-0.0191,-3.3848,-0.2370,-3.2659,-0.0107,-1.4983,-1.1015,
1.317427,-0.5411,0.7664,-0.1598,-3.3848,-0.2370,-3.2659,-0.0107,-1.4983,-1.1015,
1.320085,-0.5411,0.7664,-0.1598,-1.2976,-0.7442,-5.0275,-0.0107,-1.4983,-1.1015,
1.321804,-0.5411,0.7664,-0.1598,-1.2976,-0.7442,-5.0275,0.7047,-0.8778,-1.0887,
1.337512,-0.5411,0.7664,-0.1598,-1.2976,-0.7442,-5.0275,0.8288,-0.6136,-0.8847,
1.356817,-0.5057,0.8289,-0.1143,-1.2976,-0.7442,-5.0275,0.8288,-0.6136,-0.8847,
1.359021,-0.5057,0.8289,-0.1143,-0.6875,-0.0838,-4.3748,0.8288,-0.6136,-0.8847,
1.361037,-0.5057,0.8289,-0.1143,-0.6875,-0.0838,-4.3748,1.1894,-0.4879,-0.9172,
1.377154,-0.5057,0.8289,-0.1143,-0.6875,-0.0838,-4.3748,1.3982,-0.5225,-1.2203,
1.397277,-0.4517,0.8153,-0.0046,-0.6875,-0.0838,-4.3748,1.3982,-0.5225,-1.2203,
1.400586,-0.4517,0.8153,-0.0046,0.1512,-0.1996,-2.9003,1.3982,-0.5225,-1.2203,
1.403072,-0.4517,0.8153,-0.0046,0.1512,-0.1996,-2.9003,1.4850,-0.3814,-1.4184,
1.417770,-0.4517,0.8153,-0.0046,0.1512,-0.1996,-2.9003,1.6741,0.2668,-1.5127,
1.437666,-0.5113,0.8209,0.3325,0.1512,-0.1996,-2.9003,1.6741,0.2668,-1.5127,
1.439777,-0.5113,0.8209,0.3325,0.0432,-0.0341,0.9432,1.6741,0.2668,-1.5127,
1.441580,-0.5113,0.8209,0.3325,0.0432,-0.0341,0.9432,2.0187,0.5353,-1.5745,
1.457632,-0.5113,0.8209,0.3325,0.0432,-0.0341,0.9432,2.0421,0.3931,-1.2368,
1.477053,-0.4463,0.5292,0.1835,0.0432,-0.0341,0.9432,2.0421,0.3931,-1.2368,
1.479062,-0.4463,0.5292,0.1835,1.1659,-2.7525,0.2296,2.0421,0.3931,-1.2368,
1.480833,-0.4463,0.5292,0.1835,1.1659,-2.7525,0.2296,1.4051,0.1651,-0.7771,
1.496764,-0.4463,0.5292,0.1835,1.1659,-2.7525,0.2296,0.4836,0.2125,-0.2882,
1.516991,-0.3220,0.5419,0.1752,1.1659,-2.7525,0.2296,0.4836,0.2125,-0.2882,
1.519491,-0.3220,0.5419,0.1752,2.5630,-2.5612,0.4893,0.4836,0.2125,-0.2882,
1.521775,-0.3220,0.5419,0.1752,2.5630,-2.5612,0.4893,-0.1374,0.2392,0.0160,
1.536694,-0.3220,0.5419,0.1752,2.5630,-2.5612,0.4893,0.0692,0.4469,0.3228,
1.557573,-0.4478,0.6464,0.1268,2.5630,-2.5612,0.4893,0.0692,0.4469,0.3228,
1.560600,-0.4478,0.6464,0.1268,1.2931,-1.5734,0.0827,0.0692,0.4469,0.3228,
1.562623,-0.4478,0.6464,0.1268,1.2931,-1.5734,0.0827,0.7515,0.6157,0.7111,
1.576865,-0.4478,0.6464,0.1268,1.2931,-1.5734,0.0827,1.0344,0.4416,0.8266,
1.597297,-0.3252,0.6056,-0.0340,1.2931,-1.5734,0.0827,1.0344,0.4416,0.8266,
1.600483,-0.3252,0.6056,-0.0340,2.2699,-2.1780,-1.0892,1.0344,0.4416,0.8266,
1.602600,-0.3252,0.6056,-0.0340,2.2699,-2.1780,-1.0892,1.2426,0.4405,1.0333,
1.616826,-0.3252,0.6056,-0.0340,2.2699,-2.1780,-1.0892,1.3220,0.0927,1.6789,
1.638295,-0.3445,0.7075,-0.0657,2.2699,-2.1780,-1.0892,1.3220,0.0927,1.6789,
1.642165,-0.3445,0.7075,-0.0657,1.6390,-1.4893,-0.9206,1.3220,0.0927,1.6789,
1.644327,-0.3445,0.7075,-0.0657,1.6390,-1.4893,-0.9206,1.3801,-0.3995,2.3351,
1.657075,-0.3445,0.7075,-0.0657,1.6390,-1.4893,-0.9206,1.8402,0.6029,2.6685,
1.677072,-0.1444,0.9719,-0.2216,1.6390,-1.4893,-0.9206,1.8402,0.6029,2.6685,
1.679370,-0.1444,0.9719,-0.2216,2.7317,0.6422,-1.8763,1.8402,0.6029,2.6685,
1.681202,-0.1444,0.9719,-0.2216,2.7317,0.6422,-1.8763,2.0347,0.9923,2.8485,
1.696865,-0.1444,0.9719,-0.2216,2.7317,0.6422,-1.8763,1.5308,0.1337,3.1319,
1.718063,-0.7082,1.6322,-0.0129,2.7317,0.6422,-1.8763,1.5308,0.1337,3.1319,
1.721408,-0.7082,1.6322,-0.0129,-3.8907,6.7320,0.8992,1.5308,0.1337,3.1319,
1.723871,-0.7082,1.6322,-0.0129,-3.8907,6.7320,0.8992,1.2714,-0.4176,1.5995,
1.736816,-0.7082,1.6322,-0.0129,-3.8907,6.7320,0.8992,1.5196,0.0272,1.0844,
1.756728,-0.4285,1.4373,-0.5453,-3.8907,6.7320,0.8992,1.5196,0.0272,1.0844,
1.758812,-0.4285,1.4373,-0.5453,-1.6399,4.7416,-3.8213,1.5196,0.0272,1.0844,
1.760660,-0.4285,1.4373,-0.5453,-1.6399,4.7416,-3.8213,0.9737,-0.9710,0.5529,
1.776486,-0.4285,1.4373,-0.5453,-1.6399,4.7416,-3.8213,0.6147,-1.5462,0.2791,
1.796550,-0.1278,0.8133,-0.2377,-1.6399,4.7416,-3.8213,0.6147,-1.5462,0.2791,
1.800528,-0.1278,0.8133,-0.2377,1.2347,-1.3635,-0.6365,0.6147,-1.5462,0.2791,
1.802417,-0.1278,0.8133,-0.2377,1.2347,-1.3635,-0.6365,0.3318,-2.3979,0.2514,
1.817359,-0.1278,0.8133,-0.2377,1.2347,-1.3635,-0.6365,0.7766,-1.6868,0.0756,
1.836599,-0.1051,1.3095,-0.5079,1.2347,-1.3635,-0.6365,0.7766,-1.6868,0.0756,
1.839002,-0.1051,1.3095,-0.5079,1.5322,3.5196,-3.2836,0.7766,-1.6868,0.0756,
1.840565,-0.1051,1.3095,-0.5079,1.5322,3.5196,-3.2836,0.5305,-0.9129,-0.2115,
1.856823,-0.1051,1.3095,-0.5079,1.5322,3.5196,-3.2836,0.0362,-0.4160,-0.4064,
1.876514,-0.2924,0.8416,-0.5047,1.5322,3.5196,-3.2836,0.0362,-0.4160,-0.4064,
1.879351,-0.2924,0.8416,-0.5047,-0.1438,-1.0132,-3.2169,0.0362,-0.4160,-0.4064,
1.881253,-0.2924,0.8416,-0.5047,-0.1438,-1.0132,-3.2169,-0.4677,-0.0021,-0.1156,
1.896109,-0.2924,0.8416,-0.5047,-0.1438,-1.0132,-3.2169,-0.7009,0.3031,0.3009,
1.915986,-0.1119,0.7974,-0.2006,-0.1438,-1.0132,-3.2169,-0.7009,0.3031,0.3009,
1.919013,-0.1119,0.7974,-0.2006,1.5527,-1.4919,-0.3720,-0.7009,0.3031,0.3009,
1.920896,-0.1119,0.7974,-0.2006,1.5527,-1.4919,-0.3720,-0.6109,0.4394,0.4932,
1.936722,-0.1119,0.7974,-0.2006,1.5527,-1.4919,-0.3720,-0.2945,0.0554,0.5795,
1.956315,-0.0970,0.9003,-0.1876,1.5527,-1.4919,-0.3720,-0.2945,0.0554,0.5795,
1.958338,-0.0970,0.9003,-0.1876,1.4596,-0.5665,-0.3537,-0.2945,0.0554,0.5795,
1.960287,-0.0970,0.9003,-0.1876,1.4596,-0.5665,-0.3537,-0.0373,-0.2269,0.5193,
1.976983,-0.0970,0.9003,-0.1876,1.4596,-0.5665,-0.3537,0.2993,0.2413,0.7366,
1.996486,-0.1031,0.9210,-0.4664,1.4596,-0.5665,-0.3537,0.2993,0.2413,0.7366,
1.999863,-0.1031,0.9210,-0.4664,1.1320,-0.4075,-2.9619,0.2993,0.2413,0.7366,
2.001579,-0.1031,0.9210,-0.4664,1.1320,-0.4075,-2.9619,0.1012,-0.4368,0.6669,
2.016323,-0.1031,0.9210,-0.4664,1.1320,-0.4075,-2.9619,-0.0336,-0.0490,0.5454,
2.036502,-0.2436,0.9127,-0.3472,1.1320,-0.4075,-2.9619,-0.0336,-0.0490,0.5454,
2.038724,-0.2436,0.9127,-0.3472,-0.4632,-0.5245,-1.7280,-0.0336,-0.0490,0.5454,
2.040654,-0.2436,0.9127,-0.3472,-0.4632,-0.5245,-1.7280,-0.1081,0.3771,0.4804,
2.056224,-0.2436,0.9127,-0.3472,-0.4632,-0.5245,-1.7280,-0.0905,0.3872,0.4756,
2.076838,-0.2832,0.9389,-0.3100,-0.4632,-0.5245,-1.7280,-0.0905,0.3872,0.4756,
2.079168,-0.2832,0.9389,-0.3100,-1.0399,-0.2960,-1.3154,-0.0905,0.3872,0.4756,
2.081152,-0.2832,0.9389,-0.3100,-1.0399,-0.2960,-1.3154,-0.0559,0.1555,0.5151,
2.096067,-0.2832,0.9389,-0.3100,-1.0399,-0.2960,-1.3154,-0.0096,-0.2786,0.4389,
2.115892,-0.1774,1.0356,-0.3178,-1.0399,-0.2960,-1.3154,-0.0096,-0.2786,0.4389,
2.119017,-0.1774,1.0356,-0.3178,-0.1722,0.6252,-1.3783,-0.0096,-0.2786,0.4389,
2.120968,-0.1774,1.0356,-0.3178,-0.1722,0.6252,-1.3783,0.0623,-0.6482,0.2924,
2.135706,-0.1774,1.0356,-0.3178,-0.1722,0.6252,-1.3783,0.0064,-0.4128,0.2354,
2.156606,-0.2387,0.8744,-0.4021,-0.1722,0.6252,-1.3783,0.0064,-0.4128,0.2354,
2.158983,-0.2387,0.8744,-0.4021,-0.8170,-0.9553,-2.1675,0.0064,-0.4128,0.2354,
2.160955,-0.2387,0.8744,-0.4021,-0.8170,-0.9553,-2.1675,-0.1609,-0.3835,0.2525,
2.176544,-0.2387,0.8744,-0.4021,-0.8170,-0.9553,-2.1675,-0.1523,-0.7329,0.2189,
2.195697,-0.3098,0.9750,-0.3491,-0.8170,-0.9553,-2.1675,-0.1523,-0.7329,0.2189,
2.197921,-0.3098,0.9750,-0.3491,-1.5436,0.0162,-1.7039,-0.1523,-0.7329,0.2189,
2.199941,-0.3098,0.9750,-0.3491,-1.5436,0.0162,-1.7039,-0.0634,-0.9167,0.1204,
2.215747,-0.3098,0.9750,-0.3491,-1.5436,0.0162,-1.7039,-0.1486,-0.6940,0.2647,
2.236241,-0.0322,1.0801,-0.1395,-1.5436,0.0162,-1.7039,-0.1486,-0.6940,0.2647,
2.238596,-0.0322,1.0801,-0.1395,1.1574,1.0300,0.2779,-0.1486,-0.6940,0.2647,
2.240266,-0.0322,1.0801,-0.1395,1.1574,1.0300,0.2779,-0.0714,-0.3489,0.1784,
2.255759,-0.0322,1.0801,-0.1395,1.1574,1.0300,0.2779,0.2455,0.2961,-0.1028,
2.275479,0.0054,1.0647,-0.2712,1.1574,1.0300,0.2779,0.2455,0.2961,-0.1028,
2.277768,0.0054,1.0647,-0.2712,1.5052,0.8832,-0.9709,0.2455,0.2961,-0.1028,
2.279392,0.0054,1.0647,-0.2712,1.5052,0.8832,-0.9709,0.4405,0.3782,-0.3718,
2.296629,0.0054,1.0647,-0.2712,1.5052,0.8832,-0.9709,0.2413,-0.0996,-0.5156,
2.315464,-0.0691,0.9242,-0.5091,1.5052,0.8832,-0.9709,0.2413,-0.0996,-0.5156,
2.318019,-0.0691,0.9242,-0.5091,0.9191,-0.4392,-3.1351,0.2413,-0.0996,-0.5156,
2.320024,-0.0691,0.9242,-0.5091,0.9191,-0.4392,-3.1351,-0.1092,-0.1465,-0.6242,
2.336052,-0.0691,0.9242,-0.5091,0.9191,-0.4392,-3.1351,-0.2530,0.1310,-0.7606,
2.355662,-0.1278,0.8138,-0.1036,0.9191,-0.4392,-3.1351,-0.2530,0.1310,-0.7606,
2.359308,-0.1278,0.8138,-0.1036,0.5908,-1.4865,0.7883,-0.2530,0.1310,-0.7606,
2.361248,-0.1278,0.8138,-0.1036,0.5908,-1.4865,0.7883,-0.0144,-0.1427,-0.9369,
2.374895,-0.1278,0.8138,-0.1036,0.5908,-1.4865,0.7883,-0.0666,-0.8756,-0.8304,
2.396598,-0.2824,0.7603,-0.1322,0.5908,-1.4865,0.7883,-0.0666,-0.8756,-0.8304,
2.398584,-0.2824,0.7603,-0.1322,-0.5559,-1.9424,0.4504,-0.0666,-0.8756,-0.8304,
2.400516,-0.2824,0.7603,-0.1322,-0.5559,-1.9424,0.4504,-0.2700,-0.7462,-0.7175,
2.415927,-0.2824,0.7603,-0.1322,-0.5559,-1.9424,0.4504,-0.4032,-0.0346,-0.8032,
2.435956,-0.3735,0.7398,-0.2111,-0.5559,-1.9424,0.4504,-0.4032,-0.0346,-0.8032,
2.438032,-0.3735,0.7398,-0.2111,-1.1379,-2.0936,-0.4847,-0.4032,-0.0346,-0.8032,
2.440148,-0.3735,0.7398,-0.2111,-1.1379,-2.0936,-0.4847,-0.3947,0.7947,-1.0424,
2.455445,-0.3735,0.7398,-0.2111,-1.1379,-2.0936,-0.4847,-0.5667,1.0626,-1.0988,
2.475880,-0.5951,0.9574,-0.2895,-1.1379,-2.0936,-0.4847,-0.5667,1.0626,-1.0988,
2.479340,-0.5951,0.9574,-0.2895,-2.9270,0.1436,-1.2993,-0.5667,1.0626,-1.0988,
2.481270,-0.5951,0.9574,-0.2895,-2.9270,0.1436,-1.2993,-0.8714,0.4330,-1.0695,
2.495249,-0.5951,0.9574,-0.2895,-2.9270,0.1436,-1.2993,-0.9007,0.4250,-0.9923,
2.515699,-0.5301,1.0239,-0.2030,-2.9270,0.1436,-1.2993,-0.9007,0.4250,-0.9923,
2.518950,-0.5301,1.0239,-0.2030,-1.9213,0.8787,-0.7130,-0.9007,0.4250,-0.9923,
2.521670,-0.5301,1.0239,-0.2030,-1.9213,0.8787,-0.7130,-0.8575,0.4623,-0.9465,
2.535717,-0.5301,1.0239,-0.2030,-1.9213,0.8787,-0.7130,-0.8096,-0.4288,-0.8868,
2.555179,-0.5700,0.9951,-0.0288,-1.9213,0.8787,-0.7130,-0.8096,-0.4288,-0.8868,
2.558038,-0.5700,0.9951,-0.0288,-1.9779,0.6849,0.6920,-0.8096,-0.4288,-0.8868,
2.560478,-0.5700,0.9951,-0.0288,-1.9779,0.6849,0.6920,-0.6541,-0.8346,-0.7798,
2.576770,-0.5700,0.9951,-0.0288,-1.9779,0.6849,0.6920,-0.4906,-0.4160,-0.4171,
2.595370,-0.4788,0.7131,-0.0489,-1.9779,0.6849,0.6920,-0.4906,-0.4160,-0.4171,
2.598072,-0.4788,0.7131,-0.0489,-0.8087,-1.9898,0.2085,-0.4906,-0.4160,-0.4171,
2.600516,-0.4788,0.7131,-0.0489,-0.8087,-1.9898,0.2085,-0.3957,-0.1321,-0.1443,
2.614992,-0.4788,0.7131,-0.0489,-0.8087,-1.9898,0.2085,-0.3281,-0.0985,-0.0527,
2.635542,-0.4468,0.6528,-0.0958,-0.8087,-1.9898,0.2085,-0.3281,-0.0985,-0.0527,
2.637644,-0.4468,0.6528,-0.0958,-0.4533,-2.5730,-0.3974,-0.3281,-0.0985,-0.0527,
2.639866,-0.4468,0.6528,-0.0958,-0.4533,-2.5730,-0.3974,-0.2674,-0.1321,-0.0282,
2.655295,-0.4468,0.6528,-0.0958,-0.4533,-2.5730,-0.3974,-0.1971,-0.1593,-0.0112,
2.675166,-0.5548,0.7366,-0.1991,-0.4533,-2.5730,-0.3974,-0.1971,-0.1593,-0.0112,
2.677837,-0.5548,0.7366,-0.1991,-1.4889,-1.7472,-1.5073,-0.1971,-0.1593,-0.0112,
2.679904,-0.5548,0.7366,-0.1991,-1.4889,-1.7472,-1.5073,-0.0506,0.0554,0.0277,
2.695121,-0.5548,0.7366,-0.1991,-1.4889,-1.7472,-1.5073,0.1870,0.1651,0.0330,
2.714907,-0.5646,0.7884,-0.3054,-1.4889,-1.7472,-1.5073,0.1870,0.1651,0.0330,
2.717750,-0.5646,0.7884,-0.3054,-1.5607,-1.2247,-2.4688,0.1870,0.1651,0.0330,
2.719596,-0.5646,0.7884,-0.3054,-1.5607,-1.2247,-2.4688,0.3611,-0.1076,-0.0490,
2.734860,-0.5646,0.7884,-0.3054,-1.5607,-1.2247,-2.4688,0.3159,-0.3643,-0.1422,
2.756234,-0.6552,0.9247,-0.2595,-1.5607,-1.2247,-2.4688,0.3159,-0.3643,-0.1422,
2.758537,-0.6552,0.9247,-0.2595,-2.3749,0.1522,-1.9012,0.3159,-0.3643,-0.1422,
2.760432,-0.6552,0.9247,-0.2595,-2.3749,0.1522,-1.9012,0.1582,-0.3190,-0.2099,
2.774619,-0.6552,0.9247,-0.2595,-2.3749,0.1522,-1.9012,0.1923,-0.0602,-0.2599,
2.795870,-0.6442,0.7806,-0.1109,-2.3749,0.1522,-1.9012,0.1923,-0.0602,-0.2599,
2.799234,-0.6442,0.7806,-0.1109,-2.1297,-1.1921,-0.3848,0.1923,-0.0602,-0.2599,
2.801102,-0.6442,0.7806,-0.1109,-2.1297,-1.1921,-0.3848,0.4005,-0.0517,-0.2828,
2.815028,-0.6442,0.7806,-0.1109,-2.1297,-1.1921,-0.3848,0.3169,-0.1449,-0.2557,
2.835448,-0.8199,1.1947,-0.0840,-2.1297,-1.1921,-0.3848,0.3169,-0.1449,-0.2557,
2.837801,-0.8199,1.1947,-0.0840,-3.7533,2.9225,-0.0119,0.3169,-0.1449,-0.2557,
2.839815,-0.8199,1.1947,-0.0840,-3.7533,2.9225,-0.0119,0.0336,-0.0208,-0.0874,
2.855197,-0.8199,1.1947,-0.0840,-3.7533,2.9225,-0.0119,-0.1395,-0.1838,-0.0714,
2.874803,-0.5157,1.2545,0.2223,-3.7533,2.9225,-0.0119,-0.1395,-0.1838,-0.0714,
2.877769,-0.5157,1.2545,0.2223,-0.7415,3.5210,2.9543,-0.1395,-0.1838,-0.0714,
2.879660,-0.5157,1.2545,0.2223,-0.7415,3.5210,2.9543,-0.0740,-0.6131,-0.1443,
2.894940,-0.5157,1.2545,0.2223,-0.7415,3.5210,2.9543,0.0538,-1.2735,-0.1651,
2.914961,-0.2299,1.3222,0.2448,-0.7415,3.5210,2.9543,0.0538,-1.2735,-0.1651,
2.917984,-0.2299,1.3222,0.2448,2.1398,4.2107,3.0069,0.0538,-1.2735,-0.1651,
2.919547,-0.2299,1.3222,0.2448,2.1398,4.2107,3.0069,0.1028,-1.7545,-0.2402,
2.935289,-0.2299,1.3222,0.2448,2.1398,4.2107,3.0069,0.0538,-1.4759,-0.3435,
2.954809,-0.1094,1.3349,0.1138,2.1398,4.2107,3.0069,0.0538,-1.4759,-0.3435,
2.957344,-0.1094,1.3349,0.1138,3.4527,4.3888,1.4635,0.0538,-1.4759,-0.3435,
2.959593,-0.1094,1.3349,0.1138,3.4527,4.3888,1.4635,-0.0538,-0.1475,-0.4133,
2.974974,-0.1094,1.3349,0.1138,3.4527,4.3888,1.4635,-0.0591,1.0535,-0.3872,
2.995235,-0.2673,0.9711,0.0992,3.4527,4.3888,1.4635,-0.0591,1.0535,-0.3872,
2.997733,-0.2673,0.9711,0.0992,2.0377,0.8965,1.3842,-0.0591,1.0535,-0.3872,
2.999543,-0.2673,0.9711,0.0992,2.0377,0.8965,1.3842,0.1768,1.5420,-0.3457,
3.014324,-0.2673,0.9711,0.0992,2.0377,0.8965,1.3842,0.6168,1.7944,-0.4432,
3.034920,-0.3266,0.7371,0.0674,2.0377,0.8965,1.3842,0.6168,1.7944,-0.4432,
3.036819,-0.3266,0.7371,0.0674,1.4974,-1.3466,1.4675,0.6168,1.7944,-0.4432,
3.038686,-0.3266,0.7371,0.0674,1.4974,-1.3466,1.4675,1.1595,1.6112,-0.4416,
3.053950,-0.3266,0.7371,0.0674,1.4974,-1.3466,1.4675,1.6133,1.1073,-0.3872,
3.074727,-0.3337,0.5876,-0.2370,1.4974,-1.3466,1.4675,1.6133,1.1073,-0.3872,
3.076967,-0.3337,0.5876,-0.2370,1.5074,-2.6674,-0.7879,1.6133,1.1073,-0.3872,
3.079084,-0.3337,0.5876,-0.2370,1.5074,-2.6674,-0.7879,1.7438,0.4953,-0.3851,
3.094691,-0.3337,0.5876,-0.2370,1.5074,-2.6674,-0.7879,1.2911,0.0011,-0.3270,
3.114700,-0.3354,0.5323,-0.5223,1.5074,-2.6674,-0.7879,1.2911,0.0011,-0.3270,
3.117479,-0.3354,0.5323,-0.5223,1.5923,-3.0294,-3.0312,1.2911,0.0011,-0.3270,
3.119426,-0.3354,0.5323,-0.5223,1.5923,-3.0294,-3.0312,0.4240,0.0501,-0.2945,
3.135020,-0.3354,0.5323,-0.5223,1.5923,-3.0294,-3.0312,-0.3840,0.4352,-0.3270,
3.154329,-0.2441,0.6120,-0.2160,1.5923,-3.0294,-3.0312,-0.3840,0.4352,-0.3270,
3.156629,-0.2441,0.6120,-0.2160,2.5688,-2.1863,0.0258,-0.3840,0.4352,-0.3270,
3.158519,-0.2441,0.6120,-0.2160,2.5688,-2.1863,0.0258,-0.5806,0.4767,-0.3297,
3.174169,-0.2441,0.6120,-0.2160,2.5688,-2.1863,0.0258,-0.3979,0.3121,-0.3004,
3.194963,-0.3406,0.6435,-0.1998,2.5688,-2.1863,0.0258,-0.3979,0.3121,-0.3004,
3.197880,-0.3406,0.6435,-0.1998,1.6928,-1.8556,0.1027,-0.3979,0.3121,-0.3004,
3.199787,-0.3406,0.6435,-0.1998,1.6928,-1.8556,0.1027,-0.1214,0.0671,-0.2743,
3.214544,-0.3406,0.6435,-0.1998,1.6928,-1.8556,0.1027,-0.0250,-0.0778,-0.2684,
3.234758,-0.4366,0.6611,-0.3003,1.6928,-1.8556,0.1027,-0.0250,-0.0778,-0.2684,
3.236877,-0.4366,0.6611,-0.3003,0.8406,-1.6343,-0.9063,-0.0250,-0.0778,-0.2684,
3.238856,-0.4366,0.6611,-0.3003,0.8406,-1.6343,-0.9063,-0.0655,-0.0655,-0.2727,
3.254760,-0.4366,0.6611,-0.3003,0.8406,-1.6343,-0.9063,-0.1811,0.0266,-0.2392,
3.273975,-0.4222,0.5729,-0.2663,0.8406,-1.6343,-0.9063,-0.1811,0.0266,-0.2392,
3.277189,-0.4222,0.5729,-0.2663,1.0661,-2.4557,-0.6173,-0.1811,0.0266,-0.2392,
3.279117,-0.4222,0.5729,-0.2663,1.0661,-2.4557,-0.6173,-0.2668,0.1662,-0.2700,
3.294044,-0.4222,0.5729,-0.2663,1.0661,-2.4557,-0.6173,-0.2205,0.2631,-0.3164,
3.314522,-0.4847,0.6012,-0.2863,1.0661,-2.4557,-0.6173,-0.2205,0.2631,-0.3164,
3.316581,-0.4847,0.6012,-0.2863,0.5306,-2.1358,-0.8470,-0.2205,0.2631,-0.3164,
3.318578,-0.4847,0.6012,-0.2863,0.5306,-2.1358,-0.8470,-0.0767,0.3244,-0.3569,
3.334124,-0.4847,0.6012,-0.2863,0.5306,-2.1358,-0.8470,0.0527,0.3531,-0.3350,
3.353673,-0.5761,0.8282,-0.4356,0.5306,-2.1358,-0.8470,0.0527,0.3531,-0.3350,
3.355968,-0.5761,0.8282,-0.4356,-0.2819,0.1648,-2.2255,0.0527,0.3531,-0.3350,
3.357829,-0.5761,0.8282,-0.4356,-0.2819,0.1648,-2.2255,0.1390,0.4341,-0.2423,
3.374313,-0.5761,0.8282,-0.4356,-0.2819,0.1648,-2.2255,0.0559,0.1625,-0.1577,
3.393729,-0.3562,0.7024,-0.3401,-0.2819,0.1648,-2.2255,0.0559,0.1625,-0.1577,
3.396555,-0.3562,0.7024,-0.3401,1.9113,-1.0171,-1.1945,0.0559,0.1625,-0.1577,
3.398590,-0.3562,0.7024,-0.3401,1.9113,-1.0171,-1.1945,-0.1182,-0.1028,-0.1997,
3.413719,-0.3562,0.7024,-0.3401,1.9113,-1.0171,-1.1945,-0.1001,0.0543,-0.1987,
3.434903,-0.4622,0.6433,-0.3618,1.9113,-1.0171,-1.1945,-0.1001,0.0543,-0.1987,
3.438559,-0.4622,0.6433,-0.3618,0.9370,-1.5624,-1.4472,-0.1001,0.0543,-0.1987,
3.440867,-0.4622,0.6433,-0.3618,0.9370,-1.5624,-1.4472,0.0991,0.2045,-0.1470,
3.454533,-0.4622,0.6433,-0.3618,0.9370,-1.5624,-1.4472,0.2514,0.1949,-0.0719,
3.474170,-0.3567,0.4615,-0.2519,0.9370,-1.5624,-1.4472,0.2514,0.1949,-0.0719,
3.476807,-0.3567,0.4615,-0.2519,1.9885,-3.3047,-0.2712,0.2514,0.1949,-0.0719,
3.478724,-0.3567,0.4615,-0.2519,1.9885,-3.3047,-0.2712,0.2173,0.0202,-0.0426,
3.493744,-0.3567,0.4615,-0.2519,1.9885,-3.3047,-0.2712,0.0016,-0.1193,-0.0245,
3.513734,-0.2233,0.3203,-0.1158,1.9885,-3.3047,-0.2712,0.0016,-0.1193,-0.0245,
3.516558,-0.2233,0.3203,-0.1158,3.3106,-4.6715,1.0857,0.0016,-0.1193,-0.0245,
3.519087,-0.2233,0.3203,-0.1158,3.3106,-4.6715,1.0857,-0.3872,-0.3143,0.0149,
3.534497,-0.2233,0.3203,-0.1158,3.3106,-4.6715,1.0857,-0.7521,-0.4943,0.0927,
3.554267,-0.4637,0.8565,-0.0147,3.3106,-4.6715,1.0857,-0.7521,-0.4943,0.0927,
3.558619,-0.4637,0.8565,-0.0147,0.9717,0.5245,1.8096,-0.7521,-0.4943,0.0927,
3.560385,-0.4637,0.8565,-0.0147,0.9717,0.5245,1.8096,-1.0354,-0.6317,0.2024,
3.574325,-0.4637,0.8565,-0.0147,0.9717,0.5245,1.8096,-1.2623,-1.0674,0.1774,
3.594627,-1.7744,3.0851,0.4327,0.9717,0.5245,1.8096,-1.2623,-1.0674,0.1774,
3.596873,-1.7744,3.0851,0.4327,-11.8769,22.2452,5.6424,-1.2623,-1.0674,0.1774,
3.598938,-1.7744,3.0851,0.4327,-11.8769,22.2452,5.6424,-1.1846,-1.7577,0.2067,
3.613777,-1.7744,3.0851,0.4327,-11.8769,22.2452,5.6424,-0.4900,-0.9428,0.3590,
3.634117,-0.9995,0.8949,0.0894,-11.8769,22.2452,5.6424,-0.4900,-0.9428,0.3590,
3.636707,-0.9995,0.8949,0.0894,-4.3134,0.6813,1.7126,-0.4900,-0.9428,0.3590,
3.638569,-0.9995,0.8949,0.0894,-4.3134,0.6813,1.7126,-0.6690,1.0509,0.3190,
3.654937,-0.9995,0.8949,0.0894,-4.3134,0.6813,1.7126,-0.8591,2.0916,0.2274,
3.673753,-0.6511,1.1785,-0.0948,-4.3134,0.6813,1.7126,-0.8591,2.0916,0.2274,
3.675964,-0.6511,1.1785,-0.0948,-1.0426,3.3754,-0.0022,-0.8591,2.0916,0.2274,
3.677848,-0.6511,1.1785,-0.0948,-1.0426,3.3754,-0.0022,-0.2541,1.5809,0.3057,
3.693613,-0.6511,1.1785,-0.0948,-1.0426,3.3754,-0.0022,0.6195,1.5244,0.3308,
3.714089,-0.3963,1.0366,-0.4593,-1.0426,3.3754,-0.0022,0.6195,1.5244,0.3308,
3.716463,-0.3963,1.0366,-0.4593,1.2830,1.9272,-3.1883,0.6195,1.5244,0.3308,
3.718180,-0.3963,1.0366,-0.4593,1.2830,1.9272,-3.1883,1.1516,-0.0442,-0.0107,
3.734159,-0.3963,1.0366,-0.4593,1.2830,1.9272,-3.1883,1.1143,-1.1761,-0.1917,
3.753730,-0.5184,0.5534,-0.4058,1.2830,1.9272,-3.1883,1.1143,-1.1761,-0.1917,
3.756224,-0.5184,0.5534,-0.4058,0.1560,-2.7212,-2.4199,1.1143,-1.1761,-0.1917,
3.757766,-0.5184,0.5534,-0.4058,0.1560,-2.7212,-2.4199,0.5076,-1.4104,-0.2162,
3.773551,-0.5184,0.5534,-0.4058,0.1560,-2.7212,-2.4199,-0.2029,-1.1851,-0.1891,
3.794000,-0.3489,0.4156,-0.0875,0.1560,-2.7212,-2.4199,-0.2029,-1.1851,-0.1891,
3.797049,-0.3489,0.4156,-0.0875,1.9596,-4.0188,0.4742,-0.2029,-1.1851,-0.1891,
3.799016,-0.3489,0.4156,-0.0875,1.9596,-4.0188,0.4742,-0.5843,-0.4975,-0.1012,
3.813416,-0.3489,0.4156,-0.0875,1.9596,-4.0188,0.4742,-0.4708,0.2631,0.0314,
3.834288,-0.3291,0.3882,0.0892,1.9596,-4.0188,0.4742,-0.4708,0.2631,0.0314,
3.836765,-0.3291,0.3882,0.0892,2.1712,-4.3050,2.0093,-0.4708,0.2631,0.0314,
3.838584,-0.3291,0.3882,0.0892,2.1712,-4.3050,2.0093,0.0490,0.5832,0.1294,
3.854517,-0.3291,0.3882,0.0892,2.1712,-4.3050,2.0093,0.5902,0.2413,0.1726,
3.873842,-0.4402,0.4901,-0.1134,2.1712,-4.3050,2.0093,0.5902,0.2413,0.1726,
3.876166,-0.4402,0.4901,-0.1134,1.0131,-3.3229,0.2167,0.5902,0.2413,0.1726,
3.877948,-0.4402,0.4901,-0.1134,1.0131,-3.3229,0.2167,0.8107,-0.1475,0.1028,
3.893944,-0.4402,0.4901,-0.1134,1.0131,-3.3229,0.2167,0.5545,-0.6647,0.0208,
3.913822,-0.5189,0.6127,-0.2682,1.0131,-3.3229,0.2167,0.5545,-0.6647,0.0208,
3.917284,-0.5189,0.6127,-0.2682,0.2455,-2.0956,-1.1665,0.5545,-0.6647,0.0208,
3.919426,-0.5189,0.6127,-0.2682,0.2455,-2.0956,-1.1665,0.1838,-0.5300,-0.0091,
3.933388,-0.5189,0.6127,-0.2682,0.2455,-2.0956,-1.1665,0.1012,0.4538,0.1166,
3.953321,-0.5578,0.6672,-0.2409,0.2455,-2.0956,-1.1665,0.1012,0.4538,0.1166,
3.956257,-0.5578,0.6672,-0.2409,-0.1505,-1.5649,-0.8605,0.1012,0.4538,0.1166,
3.958302,-0.5578,0.6672,-0.2409,-0.1505,-1.5649,-0.8605,0.4442,0.3531,0.1108,
3.973419,-0.5578,0.6672,-0.2409,-0.1505,-1.5649,-0.8605,0.5571,-0.0708,0.0527,
3.993992,-0.4693,0.4197,-0.2040,-0.1505,-1.5649,-0.8605,0.5571,-0.0708,0.0527,
3.996616,-0.4693,0.4197,-0.2040,0.6811,-3.9753,-0.3071,0.5571,-0.0708,0.0527,
3.998607,-0.4693,0.4197,-0.2040,0.6811,-3.9753,-0.3071,0.2493,-0.0517,0.0378,
4.014138,-0.4693,0.4197,-0.2040,0.6811,-3.9753,-0.3071,-0.0703,-0.2381,0.0581,
4.033362,-0.3479,0.5590,0.0435,0.6811,-3.9753,-0.3071,-0.0703,-0.2381,0.0581,
4.035928,-0.3479,0.5590,0.0435,1.8655,-2.6146,2.1165,-0.0703,-0.2381,0.0581,
4.037716,-0.3479,0.5590,0.0435,1.8655,-2.6146,2.1165,-0.3547,-0.6152,0.0905,
4.055257,-0.3479,0.5590,0.0435,1.8655,-2.6146,2.1165,-0.5614,-0.9252,0.0985,
4.072989,-0.4549,1.2149,0.1918,1.8655,-2.6146,2.1165,-0.5614,-0.9252,0.0985,
4.075911,-0.4549,1.2149,0.1918,0.8237,3.7551,3.2324,-0.5614,-0.9252,0.0985,
4.077499,-0.4549,1.2149,0.1918,0.8237,3.7551,3.2324,-0.6019,-1.2352,0.0202,
4.093457,-0.4549,1.2149,0.1918,0.8237,3.7551,3.2324,-0.5214,-0.8613,-0.0554,
4.113223,-1.0283,2.2940,0.2861,0.8237,3.7551,3.2324,-0.5214,-0.8613,-0.0554,
4.115546,-1.0283,2.2940,0.2861,-4.7414,14.3083,3.7512,-0.5214,-0.8613,-0.0554,
4.117438,-1.0283,2.2940,0.2861,-4.7414,14.3083,3.7512,-0.2967,0.5965,-0.0538,
4.133025,-1.0283,2.2940,0.2861,-4.7414,14.3083,3.7512,0.1411,0.6658,0.0266,
4.153209,-0.5922,1.2259,-0.0831,-4.7414,14.3083,3.7512,0.1411,0.6658,0.0266,
4.155652,-0.5922,1.2259,-0.0831,-0.4881,3.8410,0.2426,0.1411,0.6658,0.0266,
4.157482,-0.5922,1.2259,-0.0831,-0.4881,3.8410,0.2426,0.7638,1.6528,0.1262,
4.173599,-0.5922,1.2259,-0.0831,-0.4881,3.8410,0.2426,1.7002,3.0190,-0.1768,
4.193404,-0.8560,0.7955,-0.7131,-0.4881,3.8410,0.2426,1.7002,3.0190,-0.1768,
4.196856,-0.8560,0.7955,-0.7131,-3.2050,-0.2981,-5.0428,1.7002,3.0190,-0.1768,
4.199238,-0.8560,0.7955,-0.7131,-3.2050,-0.2981,-5.0428,1.9723,2.0938,-0.2136,
4.213382,-0.8560,0.7955,-0.7131,-3.2050,-0.2981,-5.0428,1.3854,0.6216,-0.0405,
4.233635,-0.4820,0.6626,-0.7495,-3.2050,-0.2981,-5.0428,1.3854,0.6216,-0.0405,
4.237405,-0.4820,0.6626,-0.7495,0.3763,-1.4148,-4.5841,1.3854,0.6216,-0.0405,
4.239499,-0.4820,0.6626,-0.7495,0.3763,-1.4148,-4.5841,0.5854,0.4479,-0.0581,
4.255148,-0.4820,0.6626,-0.7495,0.3763,-1.4148,-4.5841,-0.1321,0.5742,-0.1870,
4.273232,-0.2609,0.8228,-0.2216,0.3763,-1.4148,-4.5841,-0.1321,0.5742,-0.1870,
4.275821,-0.2609,0.8228,-0.2216,2.5121,0.2018,0.7722,-0.1321,0.5742,-0.1870,
4.277434,-0.2609,0.8228,-0.2216,2.5121,0.2018,0.7722,-0.3366,0.3398,-0.2306,
4.292484,-0.2609,0.8228,-0.2216,2.5121,0.2018,0.7722,-0.3510,0.0005,-0.1971,
4.312350,-0.1244,0.6408,-0.2138,2.5121,0.2018,0.7722,-0.3510,0.0005,-0.1971,
4.314554,-0.1244,0.6408,-0.2138,3.8977,-1.5784,0.7754,-0.3510,0.0005,-0.1971,
4.316300,-0.1244,0.6408,-0.2138,3.8977,-1.5784,0.7754,-0.4820,-0.2056,-0.2503,
4.332653,-0.1244,0.6408,-0.2138,3.8977,-1.5784,0.7754,-0.6589,-0.1198,-0.1678,
4.352960,-0.1893,0.4449,-0.3572,3.8977,-1.5784,0.7754,-0.6589,-0.1198,-0.1678,
4.355824,-0.1893,0.4449,-0.3572,3.3446,-3.5184,-0.8427,-0.6589,-0.1198,-0.1678,
4.357616,-0.1893,0.4449,-0.3572,3.3446,-3.5184,-0.8427,-0.8501,0.0176,-0.0682,
4.373033,-0.1893,0.4449,-0.3572,3.3446,-3.5184,-0.8427,-0.7553,0.3483,-0.1555,
4.393093,-0.3919,0.3721,-0.5385,3.3446,-3.5184,-0.8427,-0.7553,0.3483,-0.1555,
4.396892,-0.3919,0.3721,-0.5385,1.3769,-4.2901,-2.8347,-0.7553,0.3483,-0.1555,
4.399563,-0.3919,0.3721,-0.5385,1.3769,-4.2901,-2.8347,-0.3153,0.6685,-0.3409,
4.413191,-0.3919,0.3721,-0.5385,1.3769,-4.2901,-2.8347,0.0517,0.2711,-0.3569,
4.433222,-0.4222,0.5797,-0.4009,1.3769,-4.2901,-2.8347,0.0517,0.2711,-0.3569,
4.435743,-0.4222,0.5797,-0.4009,1.1441,-2.1948,-1.4303,0.0517,0.2711,-0.3569,
4.437671,-0.4222,0.5797,-0.4009,1.1441,-2.1948,-1.4303,0.0831,-0.4389,-0.2141,
4.452543,-0.4222,0.5797,-0.4009,1.1441,-2.1948,-1.4303,0.1246,-0.5140,-0.1246,
4.472553,-0.2756,0.6139,-0.0718,1.1441,-2.1948,-1.4303,0.1246,-0.5140,-0.1246,
4.475093,-0.2756,0.6139,-0.0718,2.6806,-1.8134,1.7257,0.1246,-0.5140,-0.1246,
4.476970,-0.2756,0.6139,-0.0718,2.6806,-1.8134,1.7257,-0.0522,-0.7574,-0.1305,
4.493315,-0.2756,0.6139,-0.0718,2.6806,-1.8134,1.7257,-0.1486,-0.2152,-0.2935,
4.512499,-0.4224,0.3130,-0.0474,2.6806,-1.8134,1.7257,-0.1486,-0.2152,-0.2935,
4.515689,-0.4224,0.3130,-0.0474,1.3538,-4.7263,1.8286,-0.1486,-0.2152,-0.2935,
4.518460,-0.4224,0.3130,-0.0474,1.3538,-4.7263,1.8286,0.0921,0.6290,-0.3787,
4.532893,-0.4224,0.3130,-0.0474,1.3538,-4.7263,1.8286,0.4463,0.9188,-0.2615,
4.552343,-0.3743,0.5470,-0.2565,1.3538,-4.7263,1.8286,0.4463,0.9188,-0.2615,
4.554785,-0.3743,0.5470,-0.2565,1.8501,-2.3359,0.0327,0.4463,0.9188,-0.2615,
4.556395,-0.3743,0.5470,-0.2565,1.8501,-2.3359,0.0327,0.1848,0.1055,0.0623,
4.572656,-0.3743,0.5470,-0.2565,1.8501,-2.3359,0.0327,-0.2839,-0.6067,0.2786,
4.592874,-0.7104,1.5904,-0.1043,1.8501,-2.3359,0.0327,-0.2839,-0.6067,0.2786,
4.596659,-0.7104,1.5904,-0.1043,-1.4716,7.8474,1.4541,-0.2839,-0.6067,0.2786,
4.599074,-0.7104,1.5904,-0.1043,-1.4716,7.8474,1.4541,-0.6999,-1.7204,0.3542,
4.611862,-0.7104,1.5904,-0.1043,-1.4716,7.8474,1.4541,-0.7015,-1.6016,0.4980,
4.632665,-1.5213,1.9835,0.1615,-1.4716,7.8474,1.4541,-0.7015,-1.6016,0.4980,
4.634887,-1.5213,1.9835,0.1615,-9.4059,11.5449,3.4749,-0.7015,-1.6016,0.4980,
4.636852,-1.5213,1.9835,0.1615,-9.4059,11.5449,3.4749,-0.1827,0.3760,-0.0112,
4.653902,-1.5213,1.9835,0.1615,-9.4059,11.5449,3.4749,-0.4938,-0.8922,0.5161,
4.671849,-0.8292,0.8966,0.1940,-9.4059,11.5449,3.4749,-0.4938,-0.8922,0.5161,
4.674947,-0.8292,0.8966,0.1940,-2.6851,0.8132,3.6303,-0.4938,-0.8922,0.5161,
4.677011,-0.8292,0.8966,0.1940,-2.6851,0.8132,3.6303,-0.7207,-0.5161,0.2349,
4.692900,-0.8292,0.8966,0.1940,-2.6851,0.8132,3.6303,-0.6546,-0.0533,0.2477,
4.712558,-0.7244,1.0916,0.2069,-2.6851,0.8132,3.6303,-0.6546,-0.0533,0.2477,
4.714966,-0.7244,1.0916,0.2069,-1.7167,2.6283,3.4751,-0.6546,-0.0533,0.2477,
4.716796,-0.7244,1.0916,0.2069,-1.7167,2.6283,3.4751,-0.3750,0.1715,0.1502,
4.732579,-0.7244,1.0916,0.2069,-1.7167,2.6283,3.4751,-0.1044,0.4234,-0.0458,
4.752569,-0.5939,0.8377,-0.2426,-1.7167,2.6283,3.4751,-0.1044,0.4234,-0.0458,
4.754831,-0.5939,0.8377,-0.2426,-0.4719,0.1159,-0.9440,-0.1044,0.4234,-0.0458,
4.756734,-0.5939,0.8377,-0.2426,-0.4719,0.1159,-0.9440,-0.0410,0.5284,-0.0293,
4.771977,-0.5939,0.8377,-0.2426,-0.4719,0.1159,-0.9440,-0.1310,0.5300,0.0138,
4.792450,-0.4608,0.7493,-0.4246,-0.4719,0.1159,-0.9440,-0.1310,0.5300,0.0138,
4.794998,-0.4608,0.7493,-0.4246,0.8042,-0.7543,-2.6427,-0.1310,0.5300,0.0138,
4.796890,-0.4608,0.7493,-0.4246,0.8042,-0.7543,-2.6427,-0.1385,0.1949,0.0586,
4.812899,-0.4608,0.7493,-0.4246,0.8042,-0.7543,-2.6427,-0.1097,-0.3015,0.0138,
4.831888,-0.5433,0.6249,-0.2832,0.8042,-0.7543,-2.6427,-0.1097,-0.3015,0.0138,
4.833915,-0.5433,0.6249,-0.2832,0.0023,-1.9715,-1.2748,-0.1097,-0.3015,0.0138,
4.835470,-0.5433,0.6249,-0.2832,0.0023,-1.9715,-1.2748,-0.1715,-0.7526,-0.0314,
4.852895,-0.5433,0.6249,-0.2832,0.0023,-1.9715,-1.2748,-0.3308,-0.7872,-0.0229,
4.872057,-0.5358,0.5213,-0.1002,0.0023,-1.9715,-1.2748,-0.3308,-0.7872,-0.0229,
4.874499,-0.5358,0.5213,-0.1002,0.1278,-2.9945,0.2726,-0.3308,-0.7872,-0.0229,
4.876403,-0.5358,0.5213,-0.1002,0.1278,-2.9945,0.2726,-0.5071,-0.6221,-0.0080,
4.892035,-0.5358,0.5213,-0.1002,0.1278,-2.9945,0.2726,-0.6226,-0.3702,0.0565,
4.912452,-0.4649,0.4561,0.0056,0.1278,-2.9945,0.2726,-0.6226,-0.3702,0.0565,
4.916794,-0.4649,0.4561,0.0056,0.8366,-3.6638,1.0193,-0.6226,-0.3702,0.0565,
4.919138,-0.4649,0.4561,0.0056,0.8366,-3.6638,1.0193,-0.5934,-0.0368,0.1081,
4.931685,-0.4649,0.4561,0.0056,0.8366,-3.6638,1.0193,-0.4474,0.1603,0.1076,
4.951446,-0.3904,0.5079,-0.0191,0.8366,-3.6638,1.0193,-0.4474,0.1603,0.1076,
4.953380,-0.3904,0.5079,-0.0191,1.5297,-3.1977,0.6212,-0.4474,0.1603,0.1076,
4.955431,-0.3904,0.5079,-0.0191,1.5297,-3.1977,0.6212,-0.2136,0.2051,0.1252,
4.972330,-0.3904,0.5079,-0.0191,1.5297,-3.1977,0.6212,0.1470,0.2003,0.0985,
4.992391,-0.4358,0.5634,-0.1600,1.5297,-3.1977,0.6212,0.1470,0.2003,0.0985,
4.995254,-0.4358,0.5634,-0.1600,1.0412,-2.6791,-0.7280,0.1470,0.2003,0.0985,
4.997248,-0.4358,0.5634,-0.1600,1.0412,-2.6791,-0.7280,0.5981,0.0378,0.0921,
5.012129,-0.4358,0.5634,-0.1600,1.0412,-2.6791,-0.7280,0.8133,-0.1784,0.0740,
5.031830,-0.5367,0.5465,-0.3325,1.0412,-2.6791,-0.7280,0.8133,-0.1784,0.0740,
5.035818,-0.5367,0.5465,-0.3325,0.0281,-2.8350,-2.2021,0.8133,-0.1784,0.0740,
5.037936,-0.5367,0.5465,-0.3325,0.0281,-2.8350,-2.2021,0.6551,-0.1225,0.0778,
5.051379,-0.5367,0.5465,-0.3325,0.0281,-2.8350,-2.2021,0.3878,0.1625,0.1209,
5.071827,-0.5521,0.5521,-0.2692,0.0281,-2.8350,-2.2021,0.3878,0.1625,0.1209,
5.074285,-0.5521,0.5521,-0.2692,-0.1564,-2.7772,-1.4073,0.3878,0.1625,0.1209,
5.076350,-0.5521,0.5521,-0.2692,-0.1564,-2.7772,-1.4073,0.3185,0.3159,0.1651,
5.091950,-0.5521,0.5521,-0.2692,-0.1564,-2.7772,-1.4073,0.3372,0.3297,0.1294,
5.111497,-0.4742,0.3894,-0.1380,-0.1564,-2.7772,-1.4073,0.3372,0.3297,0.1294,
5.114490,-0.4742,0.3894,-0.1380,0.5421,-4.3852,0.0531,0.3372,0.3297,0.1294,
5.116137,-0.4742,0.3894,-0.1380,0.5421,-4.3852,0.0531,0.2631,0.3483,0.0282,
5.131825,-0.4742,0.3894,-0.1380,0.5421,-4.3852,0.0531,0.1001,0.3649,0.0123,
5.152099,-0.2741,0.2797,-0.0010,0.5421,-4.3852,0.0531,0.1001,0.3649,0.0123,
5.154306,-0.2741,0.2797,-0.0010,2.4753,-5.4538,1.5294,0.1001,0.3649,0.0123,
5.156244,-0.2741,0.2797,-0.0010,2.4753,-5.4538,1.5294,-0.0948,0.1124,0.0889,
5.170845,-0.2741,0.2797,-0.0010,2.4753,-5.4538,1.5294,-0.1369,-0.4096,0.1209,
5.190988,-0.5143,1.0610,0.1412,2.4753,-5.4538,1.5294,-0.1369,-0.4096,0.1209,
5.193741,-0.5143,1.0610,0.1412,0.0962,2.1743,2.8543,-0.1369,-0.4096,0.1209,
5.195336,-0.5143,1.0610,0.1412,0.0962,2.1743,2.8543,-0.1321,-1.0621,-0.0075,
5.210905,-0.5143,1.0610,0.1412,0.0962,2.1743,2.8543,-0.2147,-1.6480,-0.0937,
5.231267,-1.2364,2.9207,0.4410,0.0962,2.1743,2.8543,-0.2147,-1.6480,-0.0937,
5.232150,-1.2364,2.9207,0.4410,-6.8939,20.4005,5.4547,-0.2147,-1.6480,-0.0937,
5.232846,-1.2364,2.9207,0.4410,-6.8939,20.4005,5.4547,-0.2019,-2.4368,-0.2700,
5.252089,-1.2364,2.9207,0.4410,-6.8939,20.4005,5.4547,-0.0522,-2.6941,-0.5886,
5.271122,-0.3782,1.4475,0.1385,-6.8939,20.4005,5.4547,-0.0522,-2.6941,-0.5886,
5.273667,-0.3782,1.4475,0.1385,1.7427,6.0504,1.9030,-0.0522,-2.6941,-0.5886,
5.275210,-0.3782,1.4475,0.1385,1.7427,6.0504,1.9030,0.1305,-1.8317,-0.4874,
5.291135,-0.3782,1.4475,0.1385,1.7427,6.0504,1.9030,0.3718,1.4030,-0.2455,
5.311612,-0.8490,1.1026,-0.0694,1.7427,6.0504,1.9030,0.3718,1.4030,-0.2455,
5.314179,-0.8490,1.1026,-0.0694,-2.7491,2.7553,-0.0986,0.3718,1.4030,-0.2455,
5.316049,-0.8490,1.1026,-0.0694,-2.7491,2.7553,-0.0986,1.1116,4.7314,-0.6573,
5.331425,-0.8490,1.1026,-0.0694,-2.7491,2.7553,-0.0986,1.8711,4.7511,-0.3643,
5.351466,-0.5094,0.6252,-0.8394,-2.7491,2.7553,-0.0986,1.8711,4.7511,-0.3643,
5.354555,-0.5094,0.6252,-0.8394,0.4922,-1.7253,-6.1193,1.8711,4.7511,-0.3643,
5.356647,-0.5094,0.6252,-0.8394,0.4922,-1.7253,-6.1193,1.3976,2.2536,0.2301,
5.371739,-0.5094,0.6252,-0.8394,0.4922,-1.7253,-6.1193,0.2088,0.5294,-0.0426,
5.391759,-0.3579,0.6073,-0.3643,0.4922,-1.7253,-6.1193,0.2088,0.5294,-0.0426,
5.395244,-0.3579,0.6073,-0.3643,1.8042,-1.8480,-0.9021,0.2088,0.5294,-0.0426,
5.397187,-0.3579,0.6073,-0.3643,1.8042,-1.8480,-0.9021,-0.5033,0.0762,-0.3904,
5.411789,-0.3579,0.6073,-0.3643,1.8042,-1.8480,-0.9021,-0.3499,-0.3068,-0.2967,
5.431664,-0.1329,0.6772,-0.0716,1.8042,-1.8480,-0.9021,-0.3499,-0.3068,-0.2967,
5.434101,-0.1329,0.6772,-0.0716,4.1278,-1.1339,1.8084,-0.3499,-0.3068,-0.2967,
5.436007,-0.1329,0.6772,-0.0716,4.1278,-1.1339,1.8084,-0.1923,-0.6189,-0.2194,
5.453352,-0.1329,0.6772,-0.0716,4.1278,-1.1339,1.8084,-0.1252,-0.7776,-0.2013,
5.472173,-0.2370,0.6753,-0.1991,4.1278,-1.1339,1.8084,-0.1252,-0.7776,-0.2013,
5.474487,-0.2370,0.6753,-0.1991,3.2401,-1.1223,0.3561,-0.1252,-0.7776,-0.2013,
5.476341,-0.2370,0.6753,-0.1991,3.2401,-1.1223,0.3561,-0.2029,-0.5870,-0.1529,
5.491098,-0.2370,0.6753,-0.1991,3.2401,-1.1223,0.3561,-0.2839,-0.1981,-0.0293,
5.510851,-0.3479,0.5585,-0.3755,3.2401,-1.1223,0.3561,-0.2839,-0.1981,-0.0293,
5.513477,-0.3479,0.5585,-0.3755,2.2164,-2.2678,-1.5355,-0.2839,-0.1981,-0.0293,
5.516076,-0.3479,0.5585,-0.3755,2.2164,-2.2678,-1.5355,-0.2615,0.1433,0.0213,
5.531035,-0.3479,0.5585,-0.3755,2.2164,-2.2678,-1.5355,-0.0783,0.5891,-0.0320,
5.551446,-0.4647,0.4803,-0.4544,2.2164,-2.2678,-1.5355,-0.0783,0.5891,-0.0320,
5.553909,-0.4647,0.4803,-0.4544,1.0423,-3.0473,-2.2795,-0.0783,0.5891,-0.0320,
5.555839,-0.4647,0.4803,-0.4544,1.0423,-3.0473,-2.2795,0.2903,0.5758,-0.0820,
5.570790,-0.4647,0.4803,-0.4544,1.0423,-3.0473,-2.2795,0.5300,-0.0352,-0.0378,
5.591088,-0.3833,0.4551,-0.3855,1.0423,-3.0473,-2.2795,0.5300,-0.0352,-0.0378,
5.593818,-0.3833,0.4551,-0.3855,1.8341,-3.2430,-1.4173,0.5300,-0.0352,-0.0378,
5.595753,-0.3833,0.4551,-0.3855,1.8341,-3.2430,-1.4173,0.4288,-0.2882,-0.0953,
5.610541,-0.3833,0.4551,-0.3855,1.8341,-3.2430,-1.4173,0.2274,-0.2498,-0.1427,
5.630409,-0.3547,0.3833,-0.1493,1.8341,-3.2430,-1.4173,0.2274,-0.2498,-0.1427,
5.632249,-0.3547,0.3833,-0.1493,2.1763,-3.8889,0.9382,0.2274,-0.2498,-0.1427,
5.633589,-0.3547,0.3833,-0.1493,2.1763,-3.8889,0.9382,0.0069,-0.2445,-0.2285,
5.650527,-0.3547,0.3833,-0.1493,2.1763,-3.8889,0.9382,-0.1656,-0.0735,-0.2834,
5.670923,-0.3921,0.4642,-0.0125,2.1763,-3.8889,0.9382,-0.1656,-0.0735,-0.2834,
5.674137,-0.3921,0.4642,-0.0125,1.9030,-3.0456,2.2187,-0.1656,-0.0735,-0.2834,
5.675912,-0.3921,0.4642,-0.0125,1.9030,-3.0456,2.2187,-0.3547,-0.1172,-0.0160,
5.690729,-0.3921,0.4642,-0.0125,1.9030,-3.0456,2.2187,-0.4842,-0.4485,0.3270,
5.711270,-0.6179,1.3503,0.0340,1.9030,-3.0456,2.2187,-0.4842,-0.4485,0.3270,
5.713538,-0.6179,1.3503,0.0340,-0.3553,5.5359,2.4406,-0.4842,-0.4485,0.3270,
5.715324,-0.6179,1.3503,0.0340,-0.3553,5.5359,2.4406,-0.4080,-0.8890,0.5065,
5.731851,-0.6179,1.3503,0.0340,-0.3553,5.5359,2.4406,-0.3132,-1.8088,0.4724,
5.750454,-1.7060,2.4194,0.1637,-0.3553,5.5359,2.4406,-0.3132,-1.8088,0.4724,
5.753318,-1.7060,2.4194,0.1637,-11.0694,15.8742,3.2951,-0.3132,-1.8088,0.4724,
5.755526,-1.7060,2.4194,0.1637,-11.0694,15.8742,3.2951,0.1886,-0.2956,0.0229,
5.770501,-1.7060,2.4194,0.1637,-11.0694,15.8742,3.2951,-0.2093,-0.2290,0.3100,
5.790685,-0.8377,0.8927,0.0980,-11.0694,15.8742,3.2951,-0.2093,-0.2290,0.3100,
5.793178,-0.8377,0.8927,0.0980,-2.5950,0.8749,2.5886,-0.2093,-0.2290,0.3100,
5.794705,-0.8377,0.8927,0.0980,-2.5950,0.8749,2.5886,-0.9694,0.0692,0.2056,
5.811108,-0.8377,0.8927,0.0980,-2.5950,0.8749,2.5886,-0.8991,-0.1422,0.1656,
5.830803,-0.7815,1.0710,0.2797,-2.5950,0.8749,2.5886,-0.8991,-0.1422,0.1656,
5.833098,-0.7815,1.0710,0.2797,-2.1012,2.5259,4.0662,-0.8991,-0.1422,0.1656,
5.834977,-0.7815,1.0710,0.2797,-2.1012,2.5259,4.0662,-0.1236,-0.0336,0.1278,
5.850958,-0.7815,1.0710,0.2797,-2.1012,2.5259,4.0662,0.4171,0.2013,0.0778,
5.870915,-0.5602,0.8074,-0.2338,-2.1012,2.5259,4.0662,0.4171,0.2013,0.0778,
5.873227,-0.5602,0.8074,-0.2338,0.0306,-0.0723,-0.9012,0.4171,0.2013,0.0778,
5.875255,-0.5602,0.8074,-0.2338,0.0306,-0.0723,-0.9012,0.4570,0.0682,-0.0186,
5.890601,-0.5602,0.8074,-0.2338,0.0306,-0.0723,-0.9012,0.3153,0.0549,-0.0458,
5.910801,-0.5805,0.7359,-0.4476,0.0306,-0.0723,-0.9012,0.3153,0.0549,-0.0458,
5.913257,-0.5805,0.7359,-0.4476,-0.1614,-0.7442,-2.8596,0.3153,0.0549,-0.0458,
5.915310,-0.5805,0.7359,-0.4476,-0.1614,-0.7442,-2.8596,0.1545,0.2216,-0.0064,
5.930919,-0.5805,0.7359,-0.4476,-0.1614,-0.7442,-2.8596,-0.0091,-0.0490,-0.0229,
5.951101,-0.5964,0.6196,-0.3244,-0.1614,-0.7442,-2.8596,-0.0091,-0.0490,-0.0229,
5.953615,-0.5964,0.6196,-0.3244,-0.3039,-1.8622,-1.5893,-0.0091,-0.0490,-0.0229,
5.955708,-0.5964,0.6196,-0.3244,-0.3039,-1.8622,-1.5893,-0.2093,-0.4266,-0.0538,
5.971981,-0.5964,0.6196,-0.3244,-0.3039,-1.8622,-1.5893,-0.4325,-0.4139,-0.0469,
5.990602,-0.4933,0.4683,-0.0811,-0.3039,-1.8622,-1.5893,-0.4325,-0.4139,-0.0469,
5.993899,-0.4933,0.4683,-0.0811,0.7476,-3.3520,0.6002,-0.4325,-0.4139,-0.0469,
5.995884,-0.4933,0.4683,-0.0811,0.7476,-3.3520,0.6002,-0.5566,-0.2844,-0.0256,
6.011033,-0.4933,0.4683,-0.0811,0.7476,-3.3520,0.6002,-0.5097,-0.1007,0.0272,
6.030486,-0.4363,0.4869,-0.0252,0.7476,-3.3520,0.6002,-0.5097,-0.1007,0.0272,
6.032762,-0.4363,0.4869,-0.0252,1.3153,-3.1976,0.9361,-0.5097,-0.1007,0.0272,
6.034582,-0.4363,0.4869,-0.0252,1.3153,-3.1976,0.9361,-0.3249,0.1646,0.0458,
6.050623,-0.4363,0.4869,-0.0252,1.3153,-3.1976,0.9361,-0.0362,0.3883,0.0320,
6.070701,-0.4793,0.4986,-0.1295,1.3153,-3.1976,0.9361,-0.0362,0.3883,0.0320,
6.072856,-0.4793,0.4986,-0.1295,0.8686,-3.0997,-0.0822,-0.0362,0.3883,0.0320,
6.074871,-0.4793,0.4986,-0.1295,0.8686,-3.0997,-0.0822,0.2189,0.4240,0.0383,
6.090001,-0.4793,0.4986,-0.1295,0.8686,-3.0997,-0.0822,0.3489,0.3510,0.0277,
6.109575,-0.5521,0.5155,-0.2560,0.8686,-3.0997,-0.0822,0.3489,0.3510,0.0277,
6.111269,-0.5521,0.5155,-0.2560,0.1250,-2.9273,-1.1460,0.3489,0.3510,0.0277,
6.112297,-0.5521,0.5155,-0.2560,0.1250,-2.9273,-1.1460,0.2780,0.3127,-0.0160,
6.129577,-0.5521,0.5155,-0.2560,0.1250,-2.9273,-1.1460,0.0815,0.3702,-0.0154,
6.150679,-0.5165,0.6418,-0.1964,0.1250,-2.9273,-1.1460,0.0815,0.3702,-0.0154,
6.154156,-0.5165,0.6418,-0.1964,0.4599,-1.6759,-0.4291,0.0815,0.3702,-0.0154,
6.156600,-0.5165,0.6418,-0.1964,0.4599,-1.6759,-0.4291,-0.0202,0.5119,0.0128,
6.169988,-0.5165,0.6418,-0.1964,0.4599,-1.6759,-0.4291,0.0874,0.5822,0.0671,
6.189526,-0.5025,0.5382,-0.1979,0.4599,-1.6759,-0.4291,0.0874,0.5822,0.0671,
6.191319,-0.5025,0.5382,-0.1979,0.5497,-2.6976,-0.3126,0.0874,0.5822,0.0671,
6.192384,-0.5025,0.5382,-0.1979,0.5497,-2.6976,-0.3126,0.3009,0.5678,0.0740,
6.209431,-0.5025,0.5382,-0.1979,0.5497,-2.6976,-0.3126,0.3510,0.4133,0.0586,
6.230298,-0.3880,0.4143,-0.0904,0.5497,-2.6976,-0.3126,0.3510,0.4133,0.0586,
6.232403,-0.3880,0.4143,-0.0904,1.6176,-3.9033,0.9513,0.3510,0.4133,0.0586,
6.234163,-0.3880,0.4143,-0.0904,1.6176,-3.9033,0.9513,0.1555,0.3212,0.0676,
6.250634,-0.3880,0.4143,-0.0904,1.6176,-3.9033,0.9513,-0.0272,0.2466,0.1055,
6.269742,-0.2045,0.4036,0.0816,1.6176,-3.9033,0.9513,-0.0272,0.2466,0.1055,
6.272775,-0.2045,0.4036,0.0816,3.3667,-4.0225,2.7185,-0.0272,0.2466,0.1055,
6.274837,-0.2045,0.4036,0.0816,3.3667,-4.0225,2.7185,-0.2280,-0.2637,0.1875,
6.290426,-0.2045,0.4036,0.0816,3.3667,-4.0225,2.7185,-0.3851,-0.9060,0.2338,
6.309615,-0.4830,1.2501,0.2138,3.3667,-4.0225,2.7185,-0.3851,-0.9060,0.2338,
6.312003,-0.4830,1.2501,0.2138,0.6120,4.2061,3.7907,-0.3851,-0.9060,0.2338,
6.313692,-0.4830,1.2501,0.2138,0.6120,4.2061,3.7907,-0.4447,-1.5036,0.1949,
6.330463,-0.4830,1.2501,0.2138,0.6120,4.2061,3.7907,-0.5678,-1.5974,0.1204,
6.350646,-1.1749,2.7084,0.1485,0.6120,4.2061,3.7907,-0.5678,-1.5974,0.1204,
6.354283,-1.1749,2.7084,0.1485,-6.1293,18.4342,2.6559,-0.5678,-1.5974,0.1204,
6.356390,-1.1749,2.7084,0.1485,-6.1293,18.4342,2.6559,-0.4389,-0.1012,-0.0538,
6.370077,-1.1749,2.7084,0.1485,-6.1293,18.4342,2.6559,0.5433,4.1732,0.0288,
6.389943,-0.6284,0.9438,-0.0559,-6.1293,18.4342,2.6559,0.5433,4.1732,0.0288,
6.392425,-0.6284,0.9438,-0.0559,-0.8826,1.1485,1.1030,0.5433,4.1732,0.0288,
6.394211,-0.6284,0.9438,-0.0559,-0.8826,1.1485,1.1030,2.0565,4.0086,-0.0948,
6.410538,-0.6284,0.9438,-0.0559,-0.8826,1.1485,1.1030,2.8123,1.4115,-0.1662,
6.430223,-0.8116,0.6599,-1.2193,-0.8826,1.1485,1.1030,2.8123,1.4115,-0.1662,
6.432602,-0.8116,0.6599,-1.2193,-2.8745,-1.3726,-8.9630,2.8123,1.4115,-0.1662,
6.434682,-0.8116,0.6599,-1.2193,-2.8745,-1.3726,-8.9630,2.0149,-0.1779,-0.2423,
6.451200,-0.8116,0.6599,-1.2193,-2.8745,-1.3726,-8.9630,0.3872,-0.0080,-0.1603,
6.469867,-0.3782,0.8240,-0.3281,-2.8745,-1.3726,-8.9630,0.3872,-0.0080,-0.1603,
6.473814,-0.3782,0.8240,-0.3281,1.4466,0.4293,0.1241,0.3872,-0.0080,-0.1603,
6.475730,-0.3782,0.8240,-0.3281,1.4466,0.4293,0.1241,-0.6562,0.2605,-0.1534,
6.490940,-0.3782,0.8240,-0.3281,1.4466,0.4293,0.1241,-0.6626,0.0415,-0.1811,
6.509723,-0.1485,0.8414,-0.0415,1.4466,0.4293,0.1241,-0.6626,0.0415,-0.1811,
6.512785,-0.1485,0.8414,-0.0415,3.6875,0.5126,2.7424,-0.6626,0.0415,-0.1811,
6.515319,-0.1485,0.8414,-0.0415,3.6875,0.5126,2.7424,-0.2828,-0.2221,-0.2306,
6.529865,-0.1485,0.8414,-0.0415,3.6875,0.5126,2.7424,-0.0320,-0.3782,-0.2338,
6.549126,-0.3071,0.7569,-0.4058,3.6875,0.5126,2.7424,-0.0320,-0.3782,-0.2338,
6.551401,-0.3071,0.7569,-0.4058,2.2002,-0.3125,-0.9303,-0.0320,-0.3782,-0.2338,
6.553415,-0.3071,0.7569,-0.4058,2.2002,-0.3125,-0.9303,-0.1795,-0.5428,-0.1103,
6.570223,-0.3071,0.7569,-0.4058,2.2002,-0.3125,-0.9303,-0.4565,-0.5918,0.0165,
6.589473,-0.3750,0.6015,-0.4202,2.2002,-0.3125,-0.9303,-0.4565,-0.5918,0.0165,
6.593088,-0.3750,0.6015,-0.4202,1.6158,-1.8626,-1.2890,-0.4565,-0.5918,0.0165,
6.595076,-0.3750,0.6015,-0.4202,1.6158,-1.8626,-1.2890,-0.5891,-0.3419,0.0107,
6.609177,-0.3750,0.6015,-0.4202,1.6158,-1.8626,-1.2890,-0.5209,-0.2178,-0.0586,
6.630085,-0.4441,0.4016,-0.3704,1.6158,-1.8626,-1.2890,-0.5209,-0.2178,-0.0586,
6.632678,-0.4441,0.4016,-0.3704,0.9761,-3.8761,-1.0325,-0.5209,-0.2178,-0.0586,
6.634562,-0.4441,0.4016,-0.3704,0.9761,-3.8761,-1.0325,-0.1997,-0.3606,-0.1699,
6.650134,-0.4441,0.4016,-0.3704,0.9761,-3.8761,-1.0325,0.2322,-0.3638,-0.0911,
6.670269,-0.4077,0.5597,-0.3193,0.9761,-3.8761,-1.0325,0.2322,-0.3638,-0.0911,
6.672915,-0.4077,0.5597,-0.3193,1.4104,-2.2975,-0.6048,0.2322,-0.3638,-0.0911,
6.674507,-0.4077,0.5597,-0.3193,1.4104,-2.2975,-0.6048,0.4389,-0.1587,-0.0107,
6.690121,-0.4077,0.5597,-0.3193,1.4104,-2.2975,-0.6048,0.3766,-0.2162,0.0091,
6.710859,-0.2966,0.4583,-0.1730,1.4104,-2.2975,-0.6048,0.3766,-0.2162,0.0091,
6.714254,-0.2966,0.4583,-0.1730,2.5193,-3.2491,0.9152,0.3766,-0.2162,0.0091,
6.716220,-0.2966,0.4583,-0.1730,2.5193,-3.2491,0.9152,0.1651,-0.5593,-0.0842,
6.734688,-0.2966,0.4583,-0.1730,2.5193,-3.2491,0.9152,-0.0277,-0.7398,-0.1076,
6.750145,-0.3225,0.3799,-0.0577,2.5193,-3.2491,0.9152,-0.0277,-0.7398,-0.1076,
6.752576,-0.3225,0.3799,-0.0577,2.3614,-3.9895,1.9244,-0.0277,-0.7398,-0.1076,
6.754335,-0.3225,0.3799,-0.0577,2.3614,-3.9895,1.9244,-0.1108,-0.5752,-0.0415,
6.769597,-0.3225,0.3799,-0.0577,2.3614,-3.9895,1.9244,-0.1603,-0.1609,0.0724,
6.789503,-0.2231,0.4065,-0.0423,2.3614,-3.9895,1.9244,-0.1603,-0.1609,0.0724,
6.792663,-0.2231,0.4065,-0.0423,3.3669,-3.7451,1.9520,-0.1603,-0.1609,0.0724,
6.794298,-0.2231,0.4065,-0.0423,3.3669,-3.7451,1.9520,-0.3169,0.0740,0.2610,
6.809823,-0.2231,0.4065,-0.0423,3.3669,-3.7451,1.9520,-0.4863,-0.2589,0.4272,
6.831032,-1.0429,1.7969,0.0547,3.3669,-3.7451,1.9520,-0.4863,-0.2589,0.4272,
6.833396,-1.0429,1.7969,0.0547,-4.7668,9.7678,2.7574,-0.4863,-0.2589,0.4272,
6.835324,-1.0429,1.7969,0.0547,-4.7668,9.7678,2.7574,-0.5880,-1.0583,0.6621,
6.849623,-1.0429,1.7969,0.0547,-4.7668,9.7678,2.7574,-0.4756,-2.9002,0.9193,
6.868846,-1.3517,1.7077,0.2113,-4.7668,9.7678,2.7574,-0.4756,-2.9002,0.9193,
6.871097,-1.3517,1.7077,0.2113,-7.8940,8.6813,3.6973,-0.4756,-2.9002,0.9193,
6.872909,-1.3517,1.7077,0.2113,-7.8940,8.6813,3.6973,0.3148,-0.0037,0.1502,
6.889621,-1.3517,1.7077,0.2113,-7.8940,8.6813,3.6973,0.2716,1.3843,0.0394,
6.909487,-0.9675,1.0337,-0.1266,-7.8940,8.6813,3.6973,0.2716,1.3843,0.0394,
6.912275,-0.9675,1.0337,-0.1266,-4.2073,2.0755,0.6268,0.2716,1.3843,0.0394,
6.913821,-0.9675,1.0337,-0.1266,-4.2073,2.0755,0.6268,0.1055,0.8650,0.1337,
6.928915,-0.9675,1.0337,-0.1266,-4.2073,2.0755,0.6268,0.1561,0.7989,0.3089,
6.949094,-0.5306,1.1639,-0.2240,-4.2073,2.0755,0.6268,0.1561,0.7989,0.3089,
6.951498,-0.5306,1.1639,-0.2240,-0.0634,3.3160,-0.1130,0.1561,0.7989,0.3089,
6.953263,-0.5306,1.1639,-0.2240,-0.0634,3.3160,-0.1130,0.1656,0.0751,0.1406,
6.969548,-0.5306,1.1639,-0.2240,-0.0634,3.3160,-0.1130,0.1896,-0.1646,0.0293,
6.989264,-0.5006,0.8394,-0.3987,-0.0634,3.3160,-0.1130,0.1896,-0.1646,0.0293,
6.993081,-0.5006,0.8394,-0.3987,0.2074,0.1341,-1.7766,0.1896,-0.1646,0.0293,
6.995227,-0.5006,0.8394,-0.3987,0.2074,0.1341,-1.7766,0.2626,0.0570,-0.0463,
7.008969,-0.5006,0.8394,-0.3987,0.2074,0.1341,-1.7766,0.0879,-0.3313,0.0261,
7.029390,-0.5326,0.6648,-0.3662,0.2074,0.1341,-1.7766,0.0879,-0.3313,0.0261,
7.032619,-0.5326,0.6648,-0.3662,-0.0910,-1.5606,-1.4297,0.0879,-0.3313,0.0261,
7.034784,-0.5326,0.6648,-0.3662,-0.0910,-1.5606,-1.4297,-0.2658,-0.4831,0.0490,
7.050846,-0.5326,0.6648,-0.3662,-0.0910,-1.5606,-1.4297,-0.4511,-0.5902,0.0144,
7.068900,-0.4595,0.5067,-0.0755,-0.0910,-1.5606,-1.4297,-0.4511,-0.5902,0.0144,
7.071385,-0.4595,0.5067,-0.0755,0.6632,-3.1421,1.1945,-0.4511,-0.5902,0.0144,
7.073111,-0.4595,0.5067,-0.0755,0.6632,-3.1421,1.1945,-0.4581,-0.5651,-0.0256,
7.088714,-0.4595,0.5067,-0.0755,0.6632,-3.1421,1.1945,-0.3308,-0.4373,0.0043,
7.108876,-0.3968,0.4842,-0.0213,0.6632,-3.1421,1.1945,-0.3308,-0.4373,0.0043,
7.111215,-0.3968,0.4842,-0.0213,1.3184,-3.3888,1.4943,-0.3308,-0.4373,0.0043,
7.112918,-0.3968,0.4842,-0.0213,1.3184,-3.3888,1.4943,-0.1236,-0.2791,0.0714,
7.128931,-0.3968,0.4842,-0.0213,1.3184,-3.3888,1.4943,0.1060,-0.1055,0.0671,
7.148975,-0.4068,0.4073,-0.1305,1.3184,-3.3888,1.4943,0.1060,-0.1055,0.0671,
7.151270,-0.4068,0.4073,-0.1305,1.2105,-4.1580,0.3813,0.1060,-0.1055,0.0671,
7.153056,-0.4068,0.4073,-0.1305,1.2105,-4.1580,0.3813,0.3217,-0.0304,-0.0277,
7.169263,-0.4068,0.4073,-0.1305,1.2105,-4.1580,0.3813,0.3899,-0.0826,-0.1087,
7.189259,-0.5475,0.4632,-0.3152,1.2105,-4.1580,0.3813,0.3899,-0.0826,-0.1087,
7.191949,-0.5475,0.4632,-0.3152,-0.1425,-3.5712,-1.3249,0.3899,-0.0826,-0.1087,
7.193736,-0.5475,0.4632,-0.3152,-0.1425,-3.5712,-1.3249,0.2780,0.0213,-0.0666,
7.209373,-0.5475,0.4632,-0.3152,-0.1425,-3.5712,-1.3249,0.1566,0.2727,-0.0192,
7.228617,-0.5233,0.6367,-0.2658,-0.1425,-3.5712,-1.3249,0.1566,0.2727,-0.0192,
7.231273,-0.5233,0.6367,-0.2658,0.0976,-1.8466,-0.7403,0.1566,0.2727,-0.0192,
7.233221,-0.5233,0.6367,-0.2658,0.0976,-1.8466,-0.7403,0.1614,0.3894,-0.0138,
7.249545,-0.5233,0.6367,-0.2658,0.0976,-1.8466,-0.7403,0.1912,0.3542,0.0037,
7.269976,-0.5294,0.5956,-0.1796,0.0976,-1.8466,-0.7403,0.1912,0.3542,0.0037,
7.273336,-0.5294,0.5956,-0.1796,0.0108,-2.2342,0.2392,0.1912,0.3542,0.0037,
7.275306,-0.5294,0.5956,-0.1796,0.0108,-2.2342,0.2392,0.1731,0.3483,-0.0170,
7.288704,-0.5294,0.5956,-0.1796,0.0108,-2.2342,0.2392,0.1539,0.3675,-0.0980,
7.308985,-0.5548,0.4451,-0.1229,0.0108,-2.2342,0.2392,0.1539,0.3675,-0.0980,
7.311240,-0.5548,0.4451,-0.1229,-0.2492,-3.6836,0.9215,0.1539,0.3675,-0.0980,
7.313053,-0.5548,0.4451,-0.1229,-0.2492,-3.6836,0.9215,0.0778,0.3127,-0.1534,
7.329087,-0.5548,0.4451,-0.1229,-0.2492,-3.6836,0.9215,-0.0975,0.2695,-0.1646,
7.348840,-0.3022,0.3389,0.0552,-0.2492,-3.6836,0.9215,-0.0975,0.2695,-0.1646,
7.351410,-0.3022,0.3389,0.0552,2.2522,-4.6930,2.7242,-0.0975,0.2695,-0.1646,
7.353206,-0.3022,0.3389,0.0552,2.2522,-4.6930,2.7242,-0.2727,0.0352,-0.0879,
7.368911,-0.3022,0.3389,0.0552,2.2522,-4.6930,2.7242,-0.3744,-0.4479,-0.0096,
7.388750,-0.3804,0.9513,0.1950,2.2522,-4.6930,2.7242,-0.3744,-0.4479,-0.0096,
7.391554,-0.3804,0.9513,0.1950,1.5188,1.2920,3.9469,-0.3744,-0.4479,-0.0096,
7.393002,-0.3804,0.9513,0.1950,1.5188,1.2920,3.9469,-0.2722,-0.9870,-0.1369,
7.408987,-0.3804,0.9513,0.1950,1.5188,1.2920,3.9469,-0.1150,-1.1510,-0.2088,
7.428973,-1.1783,2.5789,0.0144,1.5188,1.2920,3.9469,-0.1150,-1.1510,-0.2088,
7.431198,-1.1783,2.5789,0.0144,-6.1648,17.2641,1.8886,-0.1150,-1.1510,-0.2088,
7.433051,-1.1783,2.5789,0.0144,-6.1648,17.2641,1.8886,0.0107,0.7393,-0.1395,
7.449076,-1.1783,2.5789,0.0144,-6.1648,17.2641,1.8886,0.4139,2.7191,0.1923,
7.468783,-0.4151,1.1993,-0.4368,-6.1648,17.2641,1.8886,0.4139,2.7191,0.1923,
7.471196,-0.4151,1.1993,-0.4368,1.1711,3.7556,-2.0981,0.4139,2.7191,0.1923,
7.472959,-0.4151,1.1993,-0.4368,1.1711,3.7556,-2.0981,0.7515,3.3614,0.4927,
7.488445,-0.4151,1.1993,-0.4368,1.1711,3.7556,-2.0981,0.9289,2.1534,-0.1758,
7.508381,-0.8231,0.7705,-0.8685,1.1711,3.7556,-2.0981,0.9289,2.1534,-0.1758,
7.510823,-0.8231,0.7705,-0.8685,-3.1618,-0.3906,-5.5038,0.9289,2.1534,-0.1758,
7.513305,-0.8231,0.7705,-0.8685,-3.1618,-0.3906,-5.5038,0.7191,0.2940,-0.7249,
7.528730,-0.8231,0.7705,-0.8685,-3.1618,-0.3906,-5.5038,0.0826,-0.4959,-0.5603,
7.548427,-0.4490,0.7876,-0.4441,-3.1618,-0.3906,-5.5038,0.0826,-0.4959,-0.5603,
7.551675,-0.4490,0.7876,-0.4441,0.7180,-0.0452,-1.2399,0.0826,-0.4959,-0.5603,
7.553367,-0.4490,0.7876,-0.4441,0.7180,-0.0452,-1.2399,-0.4362,-0.3579,-0.4021,
7.567921,-0.4490,0.7876,-0.4441,0.7180,-0.0452,-1.2399,-0.5625,-0.3654,-0.3654,
7.588888,-0.1808,0.8424,-0.1637,0.7180,-0.0452,-1.2399,-0.5625,-0.3654,-0.3654,
7.591398,-0.1808,0.8424,-0.1637,3.4858,0.4967,1.2827,-0.5625,-0.3654,-0.3654,
7.593025,-0.1808,0.8424,-0.1637,3.4858,0.4967,1.2827,-0.3995,-0.4218,-0.3595,
7.608680,-0.1808,0.8424,-0.1637,3.4858,0.4967,1.2827,-0.2674,-0.2365,-0.3180,
7.629201,-0.2976,0.6753,-0.4207,3.4858,0.4967,1.2827,-0.2674,-0.2365,-0.3180,
7.631484,-0.2976,0.6753,-0.4207,2.4427,-1.1241,-1.3808,-0.2674,-0.2365,-0.3180,
7.633336,-0.2976,0.6753,-0.4207,2.4427,-1.1241,-1.3808,-0.3707,-0.1683,-0.2008,
7.649043,-0.2976,0.6753,-0.4207,2.4427,-1.1241,-1.3808,-0.6168,-0.3499,-0.1348,
7.668942,-0.3906,0.5441,-0.4493,2.4427,-1.1241,-1.3808,-0.6168,-0.3499,-0.1348,
7.672681,-0.3906,0.5441,-0.4493,1.6097,-2.4257,-1.8697,-0.6168,-0.3499,-0.1348,
7.674679,-0.3906,0.5441,-0.4493,1.6097,-2.4257,-1.8697,-0.7132,-0.2855,-0.1635,
7.688364,-0.3906,0.5441,-0.4493,1.6097,-2.4257,-1.8697,-0.4788,-0.0772,-0.2338,
7.708768,-0.4915,0.4273,-0.2167,1.6097,-2.4257,-1.8697,-0.4788,-0.0772,-0.2338,
7.712416,-0.4915,0.4273,-0.2167,0.7002,-3.5842,0.1851,-0.4788,-0.0772,-0.2338,
7.714251,-0.4915,0.4273,-0.2167,0.7002,-3.5842,0.1851,0.0165,0.0964,-0.1742,
7.728226,-0.4915,0.4273,-0.2167,0.7002,-3.5842,0.1851,0.2988,0.0842,-0.1124,
7.748596,-0.4212,0.4925,-0.2348,0.7002,-3.5842,0.1851,0.2988,0.0842,-0.1124,
7.750948,-0.4212,0.4925,-0.2348,1.4257,-2.8985,0.0767,0.2988,0.0842,-0.1124,
7.752712,-0.4212,0.4925,-0.2348,1.4257,-2.8985,0.0767,0.0927,-0.0021,-0.1928,
7.768501,-0.4212,0.4925,-0.2348,1.4257,-2.8985,0.0767,-0.2748,-0.0250,-0.3382,
7.788779,-0.4209,0.4693,-0.0970,1.4257,-2.8985,0.0767,-0.2748,-0.0250,-0.3382,
7.792106,-0.4209,0.4693,-0.0970,1.5111,-3.0752,1.3960,-0.2748,-0.0250,-0.3382,
7.793956,-0.4209,0.4693,-0.0970,1.5111,-3.0752,1.3960,-0.4176,0.0218,-0.3318,
7.807655,-0.4209,0.4693,-0.0970,1.5111,-3.0752,1.3960,-0.2786,0.3585,-0.1859,
7.829256,-0.2079,0.4219,-0.0547,1.5111,-3.0752,1.3960,-0.2786,0.3585,-0.1859,
7.833369,-0.2079,0.4219,-0.0547,3.6606,-3.5130,1.7470,-0.2786,0.3585,-0.1859,
7.835589,-0.2079,0.4219,-0.0547,3.6606,-3.5130,1.7470,-0.1635,0.4000,-0.1374,
7.847840,-0.2079,0.4219,-0.0547,3.6606,-3.5130,1.7470,-0.1987,0.0495,-0.0250,
7.868739,-0.6687,1.0491,-0.1119,3.6606,-3.5130,1.7470,-0.1987,0.0495,-0.0250,
7.870941,-0.6687,1.0491,-0.1119,-0.8506,2.6348,1.1826,-0.1987,0.0495,-0.0250,
7.872692,-0.6687,1.0491,-0.1119,-0.8506,2.6348,1.1826,-0.3526,-0.4735,0.1433,
7.887844,-0.6687,1.0491,-0.1119,-0.8506,2.6348,1.1826,-0.5438,-1.2240,0.2786,
7.907967,-1.6200,2.3925,-0.1717,-0.8506,2.6348,1.1826,-0.5438,-1.2240,0.2786,
7.911022,-1.6200,2.3925,-0.1717,-10.1670,15.7144,0.2648,-0.5438,-1.2240,0.2786,
7.912934,-1.6200,2.3925,-0.1717,-10.1670,15.7144,0.2648,-0.6951,-0.8756,0.1827,
7.927713,-1.6200,2.3925,-0.1717,-10.1670,15.7144,0.2648,-0.6136,2.3244,0.0192,
7.948229,-0.9030,0.8399,0.1007,-10.1670,15.7144,0.2648,-0.6136,2.3244,0.0192,
7.950938,-0.9030,0.8399,0.1007,-3.2239,0.4283,2.8948,-0.6136,2.3244,0.0192,
7.952712,-0.9030,0.8399,0.1007,-3.2239,0.4283,2.8948,-0.5092,1.4056,0.2083,
7.967837,-0.9030,0.8399,0.1007,-3.2239,0.4283,2.8948,-0.0032,-0.0277,0.2376,
7.987389,-0.5861,1.3075,-0.1087,-3.2239,0.4283,2.8948,-0.0032,-0.0277,0.2376,
7.989253,-0.5861,1.3075,-0.1087,-0.2419,4.9415,0.9165,-0.0032,-0.0277,0.2376,
7.990496,-0.5861,1.3075,-0.1087,-0.2419,4.9415,0.9165,0.5449,0.0352,0.2019,
8.008324,-0.5861,1.3075,-0.1087,-0.2419,4.9415,0.9165,0.6551,0.0405,-0.0085,
8.028468,-0.5013,0.7818,-0.4996,-0.2419,4.9415,0.9165,0.6551,0.0405,-0.0085,
8.030720,-0.5013,0.7818,-0.4996,0.5553,-0.1822,-2.7174,0.6551,0.0405,-0.0085,
8.032602,-0.5013,0.7818,-0.4996,0.5553,-0.1822,-2.7174,0.3814,-0.2823,-0.0629,
8.048361,-0.5013,0.7818,-0.4996,0.5553,-0.1822,-2.7174,-0.0538,-0.4831,0.0075,
8.067959,-0.5775,0.6582,-0.2729,0.5553,-0.1822,-2.7174,-0.0538,-0.4831,0.0075,
8.070418,-0.5775,0.6582,-0.2729,-0.1496,-1.3732,-0.5284,-0.0538,-0.4831,0.0075,
8.072419,-0.5775,0.6582,-0.2729,-0.1496,-1.3732,-0.5284,-0.3057,-0.6914,0.0485,
8.087692,-0.5775,0.6582,-0.2729,-0.1496,-1.3732,-0.5284,-0.3925,-0.6791,0.0650,
8.107246,-0.5949,0.5797,-0.0391,-0.1496,-1.3732,-0.5284,-0.3925,-0.6791,0.0650,
8.109757,-0.5949,0.5797,-0.0391,-0.2629,-2.1704,1.4950,-0.3925,-0.6791,0.0650,
8.111698,-0.5949,0.5797,-0.0391,-0.2629,-2.1704,1.4950,-0.3808,-0.5651,0.0932,
8.127718,-0.5949,0.5797,-0.0391,-0.2629,-2.1704,1.4950,-0.3079,-0.3467,0.1374,
8.148226,-0.5108,0.5128,-0.0713,-0.2629,-2.1704,1.4950,-0.3079,-0.3467,0.1374,
8.151920,-0.5108,0.5128,-0.0713,0.5568,-2.8764,0.9691,-0.3079,-0.3467,0.1374,
8.153437,-0.5108,0.5128,-0.0713,0.5568,-2.8764,0.9691,-0.1486,0.0053,0.1246,
8.167991,-0.5108,0.5128,-0.0713,0.5568,-2.8764,0.9691,0.0889,0.2242,0.0815,
8.187657,-0.4615,0.4791,-0.2707,0.5568,-2.8764,0.9691,0.0889,0.2242,0.0815,
8.191167,-0.4615,0.4791,-0.2707,1.0002,-3.2316,-0.9686,0.0889,0.2242,0.0815,
8.192929,-0.4615,0.4791,-0.2707,1.0002,-3.2316,-0.9686,0.3169,0.2115,0.0985,
8.207732,-0.4615,0.4791,-0.2707,1.0002,-3.2316,-0.9686,0.3718,0.1198,0.1427,
8.228480,-0.4495,0.5213,-0.3112,1.0002,-3.2316,-0.9686,0.3718,0.1198,0.1427,
8.230948,-0.4495,0.5213,-0.3112,1.0678,-2.8197,-1.2206,0.3718,0.1198,0.1427,
8.232843,-0.4495,0.5213,-0.3112,1.0678,-2.8197,-1.2206,0.2141,0.0533,0.1241,
8.248217,-0.4495,0.5213,-0.3112,1.0678,-2.8197,-1.2206,0.0623,0.0330,0.1289,
8.268194,-0.4803,0.5783,-0.1774,1.0678,-2.8197,-1.2206,0.0623,0.0330,0.1289,
8.272006,-0.4803,0.5783,-0.1774,0.7228,-2.2791,0.1447,0.0623,0.0330,0.1289,
8.273947,-0.4803,0.5783,-0.1774,0.7228,-2.2791,0.1447,0.0607,0.1742,0.1380,
8.287604,-0.4803,0.5783,-0.1774,0.7228,-2.2791,0.1447,0.2104,0.2344,0.1337,
8.307567,-0.5424,0.5529,-0.2204,0.7228,-2.2791,0.1447,0.2104,0.2344,0.1337,
8.310087,-0.5424,0.5529,-0.2204,0.0558,-2.5470,-0.1896,0.2104,0.2344,0.1337,
8.311862,-0.5424,0.5529,-0.2204,0.0558,-2.5470,-0.1896,0.3521,0.2583,0.1214,
8.327113,-0.5424,0.5529,-0.2204,0.0558,-2.5470,-0.1896,0.3217,0.1720,0.1209,
8.353730,-0.3552,0.3709,-0.0550,0.0558,-2.5470,-0.1896,0.3217,0.1720,0.1209,
8.358122,-0.3552,0.3709,-0.0550,1.8336,-4.3290,1.5846,0.3217,0.1720,0.1209,
8.360306,-0.3552,0.3709,-0.0550,1.8336,-4.3290,1.5846,0.1033,0.0527,0.1475,
8.366825,-0.3552,0.3709,-0.0550,1.8336,-4.3290,1.5846,-0.1443,-0.1060,0.2019,
8.388051,-0.1986,0.4818,0.1283,1.8336,-4.3290,1.5846,-0.1443,-0.1060,0.2019,
8.390900,-0.1986,0.4818,0.1283,3.3149,-3.2806,3.3681,-0.1443,-0.1060,0.2019,
8.392691,-0.1986,0.4818,0.1283,3.3149,-3.2806,3.3681,-0.3127,-0.5678,0.2647,
8.407453,-0.1986,0.4818,0.1283,3.3149,-3.2806,3.3681,-0.3846,-1.1558,0.2258,
8.427870,-0.6640,1.5052,0.1928,3.3149,-3.2806,3.3681,-0.3846,-1.1558,0.2258,
8.431567,-0.6640,1.5052,0.1928,-1.2700,6.6497,3.6536,-0.3846,-1.1558,0.2258,
8.433136,-0.6640,1.5052,0.1928,-1.2700,6.6497,3.6536,-0.3718,-1.3374,0.2360,
8.448804,-0.6640,1.5052,0.1928,-1.2700,6.6497,3.6536,-0.2221,-0.2599,0.2919,
8.467187,-1.0100,2.4685,0.2416,-1.2700,6.6497,3.6536,-0.2221,-0.2599,0.2919,
8.469681,-1.0100,2.4685,0.2416,-4.6936,16.0157,3.8690,-0.2221,-0.2599,0.2919,
8.471617,-1.0100,2.4685,0.2416,-4.6936,16.0157,3.8690,0.6887,2.2664,0.2631,
8.486922,-1.0100,2.4685,0.2416,-4.6936,16.0157,3.8690,1.9132,3.0637,0.3824,
8.506940,-0.7764,0.8089,-0.6604,-4.6936,16.0157,3.8690,1.9132,3.0637,0.3824,
8.509530,-0.7764,0.8089,-0.6604,-2.7174,-0.2079,-4.0088,1.9132,3.0637,0.3824,
8.512335,-0.7764,0.8089,-0.6604,-2.7174,-0.2079,-4.0088,2.4922,1.8669,-0.0565,
8.526476,-0.7764,0.8089,-0.6604,-2.7174,-0.2079,-4.0088,1.9798,0.2120,-0.4048,
8.546503,-0.8277,0.6369,-1.0019,-2.7174,-0.2079,-4.0088,1.9798,0.2120,-0.4048,
8.548791,-0.8277,0.6369,-1.0019,-3.2633,-1.5849,-6.4409,1.9798,0.2120,-0.4048,
8.550777,-0.8277,0.6369,-1.0019,-3.2633,-1.5849,-6.4409,0.6179,0.0053,-0.3143,
8.567265,-0.8277,0.6369,-1.0019,-3.2633,-1.5849,-6.4409,-0.3009,0.1875,-0.1870,
8.587639,-0.2751,0.8348,-0.1576,-3.2633,-1.5849,-6.4409,-0.3009,0.1875,-0.1870,
8.590029,-0.2751,0.8348,-0.1576,2.2169,0.4247,1.9018,-0.3009,0.1875,-0.1870,
8.591750,-0.2751,0.8348,-0.1576,2.2169,0.4247,1.9018,-0.3686,0.0613,-0.1188,
8.606458,-0.2751,0.8348,-0.1576,2.2169,0.4247,1.9018,-0.0037,-0.1497,-0.0788,
8.627208,-0.1256,0.7109,-0.3240,2.2169,0.4247,1.9018,-0.0037,-0.1497,-0.0788,
8.629380,-0.1256,0.7109,-0.3240,3.6827,-0.8151,0.2116,-0.0037,-0.1497,-0.0788,
8.631214,-0.1256,0.7109,-0.3240,3.6827,-0.8151,0.2116,0.1822,-0.5172,-0.1289,
8.647014,-0.1256,0.7109,-0.3240,3.6827,-0.8151,0.2116,-0.0916,-0.7079,-0.0820,
8.666710,-0.2702,0.5600,-0.4769,3.6827,-0.8151,0.2116,-0.0916,-0.7079,-0.0820,
8.669058,-0.2702,0.5600,-0.4769,2.3799,-2.2676,-1.3949,-0.0916,-0.7079,-0.0820,
8.670992,-0.2702,0.5600,-0.4769,2.3799,-2.2676,-1.3949,-0.4463,-0.8661,-0.0559,
8.686913,-0.2702,0.5600,-0.4769,2.3799,-2.2676,-1.3949,-0.6072,-0.9225,-0.0463,
8.706987,-0.3931,0.4749,-0.4349,2.3799,-2.2676,-1.3949,-0.6072,-0.9225,-0.0463,
8.709312,-0.3931,0.4749,-0.4349,1.3026,-3.1556,-1.3288,-0.6072,-0.9225,-0.0463,
8.711284,-0.3931,0.4749,-0.4349,1.3026,-3.1556,-1.3288,-0.5449,-0.8677,-0.0533,
8.727420,-0.3931,0.4749,-0.4349,1.3026,-3.1556,-1.3288,-0.3542,-0.7883,-0.0575,
8.747238,-0.3701,0.4510,-0.3051,1.3026,-3.1556,-1.3288,-0.3542,-0.7883,-0.0575,
8.750638,-0.3701,0.4510,-0.3051,1.6367,-3.4287,-0.3704,-0.3542,-0.7883,-0.0575,
8.752824,-0.3701,0.4510,-0.3051,1.6367,-3.4287,-0.3704,-0.2301,-0.8501,-0.1065,
8.766430,-0.3701,0.4510,-0.3051,1.6367,-3.4287,-0.3704,-0.1662,-0.4559,-0.1518,
8.787305,-0.4791,0.6198,-0.1393,1.6367,-3.4287,-0.3704,-0.1662,-0.4559,-0.1518,
8.789779,-0.4791,0.6198,-0.1393,0.6751,-1.7668,1.0545,-0.1662,-0.4559,-0.1518,
8.791688,-0.4791,0.6198,-0.1393,0.6751,-1.7668,1.0545,-0.0043,-0.1720,-0.1007,
8.807360,-0.4791,0.6198,-0.1393,0.6751,-1.7668,1.0545,0.2338,-0.2147,-0.0602,
8.827254,-0.4437,0.6274,-0.2016,0.6751,-1.7668,1.0545,0.2338,-0.2147,-0.0602,
8.829612,-0.4437,0.6274,-0.2016,1.0660,-1.6642,0.4382,0.2338,-0.2147,-0.0602,
8.831486,-0.4437,0.6274,-0.2016,1.0660,-1.6642,0.4382,0.3478,-0.2503,-0.0884,
8.846995,-0.4437,0.6274,-0.2016,1.0660,-1.6642,0.4382,0.3260,-0.1694,-0.1092,
8.866844,-0.4077,0.4275,-0.2993,1.0660,-1.6642,0.4382,0.3260,-0.1694,-0.1092,
8.869046,-0.4077,0.4275,-0.2993,1.4692,-3.5683,-0.4603,0.3260,-0.1694,-0.1092,
8.871016,-0.4077,0.4275,-0.2993,1.4692,-3.5683,-0.4603,0.3627,0.0778,-0.0985,
8.886639,-0.4077,0.4275,-0.2993,1.4692,-3.5683,-0.4603,0.4037,0.2413,-0.0362,
8.906152,-0.2924,0.4405,-0.1603,1.4692,-3.5683,-0.4603,0.4037,0.2413,-0.0362,
8.908298,-0.2924,0.4405,-0.1603,2.6037,-3.3878,1.0552,0.4037,0.2413,-0.0362,
8.910046,-0.2924,0.4405,-0.1603,2.6037,-3.3878,1.0552,0.2706,0.1859,0.1257,
8.926590,-0.2924,0.4405,-0.1603,2.6037,-3.3878,1.0552,0.1273,0.0799,0.3441,
8.946492,-0.5165,1.0806,-0.0420,2.6037,-3.3878,1.0552,0.1273,0.0799,0.3441,
8.949180,-0.5165,1.0806,-0.0420,0.3217,2.8554,2.3041,0.1273,0.0799,0.3441,
8.950845,-0.5165,1.0806,-0.0420,0.3217,2.8554,2.3041,0.1081,0.0831,0.5582,
8.966597,-0.5165,1.0806,-0.0420,0.3217,2.8554,2.3041,-0.0186,-1.2341,0.5316,
8.985936,-1.4363,2.5794,-0.3447,0.3217,2.8554,2.3041,-0.0186,-1.2341,0.5316,
8.988362,-1.4363,2.5794,-0.3447,-8.8006,17.4331,-0.7697,-0.0186,-1.2341,0.5316,
8.990902,-1.4363,2.5794,-0.3447,-8.8006,17.4331,-0.7697,-0.2471,-2.1747,0.4053,
9.006591,-1.4363,2.5794,-0.3447,-8.8006,17.4331,-0.7697,0.1310,1.9697,-0.1635,
9.026755,-1.0864,0.6425,-0.4275,-8.8006,17.4331,-0.7697,0.1310,1.9697,-0.1635,
9.029251,-1.0864,0.6425,-0.4275,-5.3991,-1.5796,-1.6221,0.1310,1.9697,-0.1635,
9.031354,-1.0864,0.6425,-0.4275,-5.3991,-1.5796,-1.6221,-0.3313,1.4514,0.1731,
9.045904,-1.0864,0.6425,-0.4275,-5.3991,-1.5796,-1.6221,-0.6775,0.4229,0.1417,
9.065960,-0.7227,1.2665,-0.2565,-5.3991,-1.5796,-1.6221,-0.6775,0.4229,0.1417,
9.067944,-0.7227,1.2665,-0.2565,-1.9820,4.4498,0.0882,-0.6775,0.4229,0.1417,
9.069405,-0.7227,1.2665,-0.2565,-1.9820,4.4498,0.0882,-0.5939,0.3233,0.3196,
9.085843,-0.7227,1.2665,-0.2565,-1.9820,4.4498,0.0882,-0.3366,0.2125,0.1795,
9.106642,-0.3176,0.8973,-0.3115,-1.9820,4.4498,0.0882,-0.3366,0.2125,0.1795,
9.109706,-0.3176,0.8973,-0.3115,1.8804,0.7344,-0.5454,-0.3366,0.2125,0.1795,
9.111683,-0.3176,0.8973,-0.3115,1.8804,0.7344,-0.5454,-0.0660,0.0490,-0.0272,
9.128341,-0.3176,0.8973,-0.3115,1.8804,0.7344,-0.5454,0.0011,0.1049,-0.0410,
9.145870,-0.5626,0.6677,-0.3948,1.8804,0.7344,-0.5454,0.0011,0.1049,-0.0410,
9.148217,-0.5626,0.6677,-0.3948,-0.5177,-1.5126,-1.3570,0.0011,0.1049,-0.0410,
9.150203,-0.5626,0.6677,-0.3948,-0.5177,-1.5126,-1.3570,-0.1257,-0.4692,0.0858,
9.166171,-0.5626,0.6677,-0.3948,-0.5177,-1.5126,-1.3570,-0.4511,-0.9156,0.0501,
9.186437,-0.6025,0.5035,-0.1737,-0.5177,-1.5126,-1.3570,-0.4511,-0.9156,0.0501,
9.189105,-0.6025,0.5035,-0.1737,-0.8312,-3.1385,0.5918,-0.4511,-0.9156,0.0501,
9.190699,-0.6025,0.5035,-0.1737,-0.8312,-3.1385,0.5918,-0.7638,-0.6946,-0.0208,
9.206701,-0.6025,0.5035,-0.1737,-0.8312,-3.1385,0.5918,-0.8980,-0.2189,-0.0133,
9.226659,-0.5055,0.3960,-0.0613,-0.8312,-3.1385,0.5918,-0.8980,-0.2189,-0.0133,
9.230825,-0.5055,0.3960,-0.0613,0.1642,-4.2582,1.3310,-0.8980,-0.2189,-0.0133,
9.232472,-0.5055,0.3960,-0.0613,0.1642,-4.2582,1.3310,-0.7808,0.2855,0.0437,
9.246839,-0.5055,0.3960,-0.0613,0.1642,-4.2582,1.3310,-0.4661,0.5934,0.0724,
9.266206,-0.4087,0.4935,-0.1480,0.1642,-4.2582,1.3310,-0.4661,0.5934,0.0724,
9.268666,-0.4087,0.4935,-0.1480,1.0609,-3.3611,0.3671,-0.4661,0.5934,0.0724,
9.270512,-0.4087,0.4935,-0.1480,1.0609,-3.3611,0.3671,-0.0426,0.6306,0.0639,
9.285897,-0.4087,0.4935,-0.1480,1.0609,-3.3611,0.3671,0.3696,0.4602,0.0170,
9.306053,-0.4248,0.4463,-0.3525,1.0609,-3.3611,0.3671,0.3696,0.4602,0.0170,
9.308816,-0.4248,0.4463,-0.3525,0.8487,-3.8186,-1.4734,0.3696,0.4602,0.0170,
9.310537,-0.4248,0.4463,-0.3525,0.8487,-3.8186,-1.4734,0.4618,0.2727,-0.0575,
9.326261,-0.4248,0.4463,-0.3525,0.8487,-3.8186,-1.4734,0.1513,0.3547,-0.0666,
9.346034,-0.4332,0.5416,-0.2358,0.8487,-3.8186,-1.4734,0.1513,0.3547,-0.0666,
9.348774,-0.4332,0.5416,-0.2358,0.7615,-2.8473,-0.1661,0.1513,0.3547,-0.0666,
9.350480,-0.4332,0.5416,-0.2358,0.7615,-2.8473,-0.1661,-0.1577,0.4911,-0.0277,
9.365764,-0.4332,0.5416,-0.2358,0.7615,-2.8473,-0.1661,-0.2013,0.4868,-0.0325,
9.386499,-0.3266,0.4556,-0.0584,0.7615,-2.8473,-0.1661,-0.2013,0.4868,-0.0325,
9.389746,-0.3266,0.4556,-0.0584,1.7729,-3.6996,1.6110,-0.2013,0.4868,-0.0325,
9.391608,-0.3266,0.4556,-0.0584,1.7729,-3.6996,1.6110,0.0234,0.4634,-0.0399,
9.405366,-0.3266,0.4556,-0.0584,1.7729,-3.6996,1.6110,0.0383,0.3910,-0.0842,
9.426109,-0.3787,0.5199,-0.0095,1.7729,-3.6996,1.6110,0.0383,0.3910,-0.0842,
9.428591,-0.3787,0.5199,-0.0095,1.2451,-3.0549,2.1845,0.0383,0.3910,-0.0842,
9.430330,-0.3787,0.5199,-0.0095,1.2451,-3.0549,2.1845,-0.2189,0.0410,-0.0421,
9.446018,-0.3787,0.5199,-0.0095,1.2451,-3.0549,2.1845,-0.4692,-0.4874,0.0447,
9.465981,-0.7356,1.4800,0.1275,1.2451,-3.0549,2.1845,-0.4692,-0.4874,0.0447,
9.468196,-0.7356,1.4800,0.1275,-2.2329,6.3174,3.3446,-0.4692,-0.4874,0.0447,
9.469899,-0.7356,1.4800,0.1275,-2.2329,6.3174,3.3446,-0.5454,-1.0642,0.0463,
9.486252,-0.7356,1.4800,0.1275,-2.2329,6.3174,3.3446,-0.4229,-1.7928,-0.1135,
9.505957,-0.7864,2.1448,0.2946,-2.2329,6.3174,3.3446,-0.4229,-1.7928,-0.1135,
9.508725,-0.7864,2.1448,0.2946,-2.6139,12.8021,4.5365,-0.4229,-1.7928,-0.1135,
9.511291,-0.7864,2.1448,0.2946,-2.6139,12.8021,4.5365,-0.1427,-2.2834,-0.3659,
9.527201,-0.7864,2.1448,0.2946,-2.6139,12.8021,4.5365,-0.0858,0.0964,-0.1880,
9.545372,-0.5353,1.4131,-0.0051,-2.6139,12.8021,4.5365,-0.0858,0.0964,-0.1880,
9.547841,-0.5353,1.4131,-0.0051,0.0047,5.6822,1.3361,-0.0858,0.0964,-0.1880,
9.549207,-0.5353,1.4131,-0.0051,0.0047,5.6822,1.3361,0.4325,4.0320,0.0160,
9.564989,-0.5353,1.4131,-0.0051,0.0047,5.6822,1.3361,1.2970,3.3428,-0.1108,
9.585505,-0.7442,1.0359,-0.7134,0.0047,5.6822,1.3361,1.2970,3.3428,-0.1108,
9.588300,-0.7442,1.0359,-0.7134,-2.3018,2.0647,-4.5691,1.2970,3.3428,-0.1108,
9.590210,-0.7442,1.0359,-0.7134,-2.3018,2.0647,-4.5691,1.2400,0.9193,-0.1135,
9.605542,-0.7442,1.0359,-0.7134,-2.3018,2.0647,-4.5691,0.6594,-0.0112,-0.1859,
9.625653,-0.4710,0.8619,-0.4507,-2.3018,2.0647,-4.5691,0.6594,-0.0112,-0.1859,
9.628767,-0.4710,0.8619,-0.4507,0.3763,0.4898,-1.6004,0.6594,-0.0112,-0.1859,
9.630298,-0.4710,0.8619,-0.4507,0.3763,0.4898,-1.6004,0.3079,0.1028,-0.0607,
9.645918,-0.4710,0.8619,-0.4507,0.3763,0.4898,-1.6004,0.3446,-0.0714,-0.0772,
9.665586,-0.2067,0.7012,-0.1742,0.3763,0.4898,-1.6004,0.3446,-0.0714,-0.0772,
9.668754,-0.2067,0.7012,-0.1742,2.9655,-1.0505,1.2091,0.3446,-0.0714,-0.0772,
9.670638,-0.2067,0.7012,-0.1742,2.9655,-1.0505,1.2091,0.5220,-0.3031,-0.1241,
9.686460,-0.2067,0.7012,-0.1742,2.9655,-1.0505,1.2091,0.5273,-0.6365,-0.1763,
9.706105,-0.2516,0.5814,-0.3349,2.9655,-1.0505,1.2091,0.5273,-0.6365,-0.1763,
9.708452,-0.2516,0.5814,-0.3349,2.6274,-2.1317,-0.2957,0.5273,-0.6365,-0.1763,
9.710340,-0.2516,0.5814,-0.3349,2.6274,-2.1317,-0.2957,0.2642,-0.9060,-0.1726,
9.725148,-0.2516,0.5814,-0.3349,2.6274,-2.1317,-0.2957,-0.1135,-1.0237,-0.1364,
9.745346,-0.3081,0.5551,-0.3489,2.6274,-2.1317,-0.2957,-0.1135,-1.0237,-0.1364,
9.746577,-0.3081,0.5551,-0.3489,2.2348,-2.3492,-0.6081,-0.1135,-1.0237,-0.1364,
9.747379,-0.3081,0.5551,-0.3489,2.2348,-2.3492,-0.6081,-0.4053,-0.8341,-0.1598,
9.765942,-0.3081,0.5551,-0.3489,2.2348,-2.3492,-0.6081,-0.5619,-0.5278,-0.1534,
9.785743,-0.3792,0.4911,-0.3691,2.2348,-2.3492,-0.6081,-0.5619,-0.5278,-0.1534,
9.788125,-0.3792,0.4911,-0.3691,1.6597,-2.9944,-1.1019,-0.5619,-0.5278,-0.1534,
9.790018,-0.3792,0.4911,-0.3691,1.6597,-2.9944,-1.1019,-0.5465,-0.2727,-0.1443,
9.805597,-0.3792,0.4911,-0.3691,1.6597,-2.9944,-1.1019,-0.3782,-0.1470,-0.1305,
9.826061,-0.3154,0.4312,-0.3474,1.6597,-2.9944,-1.1019,-0.3782,-0.1470,-0.1305,
9.828623,-0.3154,0.4312,-0.3474,2.3479,-3.5960,-1.0785,-0.3782,-0.1470,-0.1305,
9.830574,-0.3154,0.4312,-0.3474,2.3479,-3.5960,-1.0785,-0.1284,-0.6461,-0.1188,
9.845009,-0.3154,0.4312,-0.3474,2.3479,-3.5960,-1.0785,0.1683,-0.4378,-0.1566,
9.865848,-0.4788,0.6110,-0.2849,2.3479,-3.5960,-1.0785,0.1683,-0.4378,-0.1566,
9.868220,-0.4788,0.6110,-0.2849,0.8380,-1.8020,-0.5782,0.1683,-0.4378,-0.1566,
9.870123,-0.4788,0.6110,-0.2849,0.8380,-1.8020,-0.5782,0.3744,-0.2621,-0.0767,
9.885500,-0.4788,0.6110,-0.2849,0.8380,-1.8020,-0.5782,0.4043,-0.4202,-0.0586,
9.905126,-0.4002,0.5333,-0.2030,0.8380,-1.8020,-0.5782,0.4043,-0.4202,-0.0586,
9.907793,-0.4002,0.5333,-0.2030,1.6604,-2.5136,0.2689,0.4043,-0.4202,-0.0586,
9.909640,-0.4002,0.5333,-0.2030,1.6604,-2.5136,0.2689,0.1470,-0.4597,-0.1310,
9.925558,-0.4002,0.5333,-0.2030,1.6604,-2.5136,0.2689,-0.0911,-0.2258,-0.1752,
9.945249,-0.3389,0.4879,-0.0789,1.6604,-2.5136,0.2689,-0.0911,-0.2258,-0.1752,
9.948311,-0.3389,0.4879,-0.0789,2.3392,-2.9219,1.4169,-0.0911,-0.2258,-0.1752,
9.950210,-0.3389,0.4879,-0.0789,2.3392,-2.9219,1.4169,-0.0346,0.0048,-0.1023,
9.965046,-0.3389,0.4879,-0.0789,2.3392,-2.9219,1.4169,0.1289,0.0650,0.1017,
9.986247,-0.4295,0.7635,-0.1456,2.3392,-2.9219,1.4169,0.1289,0.0650,0.1017,
9.988669,-0.4295,0.7635,-0.1456,1.4479,-0.2171,0.7857,0.1289,0.0650,0.1017,
9.990554,-0.4295,0.7635,-0.1456,1.4479,-0.2171,0.7857,0.1944,-0.2338,0.2562,
10.005961,-0.4295,0.7635,-0.1456,1.4479,-0.2171,0.7857,-0.0597,-1.0168,0.3734,
10.024958,-1.2662,2.0637,-0.1043,1.4479,-0.2171,0.7857,-0.0597,-1.0168,0.3734,
10.027276,-1.2662,2.0637,-0.1043,-6.7953,12.4601,1.0705,-0.0597,-1.0168,0.3734,
10.029139,-1.2662,2.0637,-0.1043,-6.7953,12.4601,1.0705,-0.3585,-2.0980,0.5177,
10.046462,-1.2662,2.0637,-0.1043,-6.7953,12.4601,1.0705,-0.0831,0.6477,0.0277,
10.064837,-1.3004,1.0178,-0.1014,-6.7953,12.4601,1.0705,-0.0831,0.6477,0.0277,
10.068535,-1.3004,1.0178,-0.1014,-7.1576,2.1324,0.8678,-0.0831,0.6477,0.0277,
10.070275,-1.3004,1.0178,-0.1014,-7.1576,2.1324,0.8678,-0.1007,1.5228,0.2226,
10.085008,-1.3004,1.0178,-0.1014,-7.1576,2.1324,0.8678,-0.6232,0.7840,0.2461,
10.104844,-0.9699,0.9894,-0.0789,-7.1576,2.1324,0.8678,-0.6232,0.7840,0.2461,
10.107769,-0.9699,0.9894,-0.0789,-4.0823,1.7744,1.2278,-0.6232,0.7840,0.2461,
10.109155,-0.9699,0.9894,-0.0789,-4.0823,1.7744,1.2278,-0.5140,0.2983,-0.0687,
10.124404,-0.9699,0.9894,-0.0789,-4.0823,1.7744,1.2278,0.0730,0.3063,0.1071,
10.145131,-0.5055,0.9828,-0.2499,-4.0823,1.7744,1.2278,0.0730,0.3063,0.1071,
10.147357,-0.5055,0.9828,-0.2499,0.4391,1.6882,-0.4525,0.0730,0.3063,0.1071,
10.149106,-0.5055,0.9828,-0.2499,0.4391,1.6882,-0.4525,0.3744,-0.2818,0.0559,
10.165258,-0.5055,0.9828,-0.2499,0.4391,1.6882,-0.4525,0.2546,-0.5555,-0.0053,
10.184955,-0.4014,0.6924,-0.3738,0.4391,1.6882,-0.4525,0.2546,-0.5555,-0.0053,
10.187949,-0.4014,0.6924,-0.3738,1.4847,-1.1387,-1.6570,0.2546,-0.5555,-0.0053,
10.189882,-0.4014,0.6924,-0.3738,1.4847,-1.1387,-1.6570,-0.0676,-0.2583,-0.0091,
10.205101,-0.4014,0.6924,-0.3738,1.4847,-1.1387,-1.6570,-0.2546,-0.3249,0.0261,
10.224882,-0.5724,0.5866,-0.1236,1.4847,-1.1387,-1.6570,-0.2546,-0.3249,0.0261,
10.226754,-0.5724,0.5866,-0.1236,-0.1534,-2.1768,0.6834,-0.2546,-0.3249,0.0261,
10.227532,-0.5724,0.5866,-0.1236,-0.1534,-2.1768,0.6834,-0.3313,-0.3356,0.0330,
10.245214,-0.5724,0.5866,-0.1236,-0.1534,-2.1768,0.6834,-0.3734,-0.1007,0.0660,
10.265856,-0.5856,0.4681,-0.0877,-0.1534,-2.1768,0.6834,-0.3734,-0.1007,0.0660,
10.270868,-0.5856,0.4681,-0.0877,-0.2825,-3.3742,0.8760,-0.3734,-0.1007,0.0660,
10.273059,-0.5856,0.4681,-0.0877,-0.2825,-3.3742,0.8760,-0.3324,0.0916,0.0634,
10.285313,-0.5856,0.4681,-0.0877,-0.2825,-3.3742,0.8760,-0.1593,0.3169,0.0517,
10.305152,-0.4930,0.4339,-0.2030,-0.2825,-3.3742,0.8760,-0.1593,0.3169,0.0517,
10.308907,-0.4930,0.4339,-0.2030,0.5927,-3.7387,-0.2880,-0.1593,0.3169,0.0517,
10.310850,-0.4930,0.4339,-0.2030,0.5927,-3.7387,-0.2880,0.0730,0.3095,0.0756,
10.327621,-0.4930,0.4339,-0.2030,0.5927,-3.7387,-0.2880,0.1454,0.2732,0.0719,
10.344422,-0.3577,0.3921,-0.2846,0.5927,-3.7387,-0.2880,0.1454,0.2732,0.0719,
10.346851,-0.3577,0.3921,-0.2846,1.8752,-4.1564,-0.9899,0.1454,0.2732,0.0719,
10.348692,-0.3577,0.3921,-0.2846,1.8752,-4.1564,-0.9899,0.0517,0.3350,0.0154,
10.365144,-0.3577,0.3921,-0.2846,1.8752,-4.1564,-0.9899,-0.0831,0.3009,-0.0181,
10.384990,-0.4529,0.5045,-0.1693,1.8752,-4.1564,-0.9899,-0.0831,0.3009,-0.0181,
10.387357,-0.4529,0.5045,-0.1693,0.9186,-3.0559,0.2034,-0.0831,0.3009,-0.0181,
10.389182,-0.4529,0.5045,-0.1693,0.9186,-3.0559,0.2034,-0.1949,0.2764,-0.0096,
10.405105,-0.4529,0.5045,-0.1693,0.9186,-3.0559,0.2034,-0.2578,0.3888,-0.0165,
10.425081,-0.5257,0.5270,-0.1055,0.9186,-3.0559,0.2034,-0.2578,0.3888,-0.0165,
10.429769,-0.5257,0.5270,-0.1055,0.1845,-2.8497,0.8269,-0.2578,0.3888,-0.0165,
10.431406,-0.5257,0.5270,-0.1055,0.1845,-2.8497,0.8269,-0.2061,0.4730,-0.0021,
10.443896,-0.5257,0.5270,-0.1055,0.1845,-2.8497,0.8269,-0.1273,0.5332,-0.0170,
10.465046,-0.4109,0.3679,-0.0787,0.1845,-2.8497,0.8269,-0.1273,0.5332,-0.0170,
10.467422,-0.4109,0.3679,-0.0787,1.2750,-4.4188,1.1437,-0.1273,0.5332,-0.0170,
10.469130,-0.4109,0.3679,-0.0787,1.2750,-4.4188,1.1437,-0.1800,0.5412,0.0277,
10.484149,-0.4109,0.3679,-0.0787,1.2750,-4.4188,1.1437,-0.3382,0.2977,0.0522,
10.504279,-0.4354,0.7493,0.1471,1.2750,-4.4188,1.1437,-0.3382,0.2977,0.0522,
10.506995,-0.4354,0.7493,0.1471,0.9904,-0.7099,3.3612,-0.3382,0.2977,0.0522,
10.509043,-0.4354,0.7493,0.1471,0.9904,-0.7099,3.3612,-0.4064,-0.0383,0.1273,
10.524955,-0.4354,0.7493,0.1471,0.9904,-0.7099,3.3612,-0.3531,-0.3957,0.1561,
10.544210,-0.8646,1.9017,0.1590,0.9904,-0.7099,3.3612,-0.3531,-0.3957,0.1561,
10.547431,-0.8646,1.9017,0.1590,-3.2462,10.5259,3.3106,-0.3531,-0.3957,0.1561,
10.549768,-0.8646,1.9017,0.1590,-3.2462,10.5259,3.3106,-0.2610,-0.3878,0.1321,
10.565844,-0.8646,1.9017,0.1590,-3.2462,10.5259,3.3106,-0.0671,0.9028,0.0394,
10.584576,-0.7297,1.7739,-0.1002,-3.2462,10.5259,3.3106,-0.0671,0.9028,0.0394,
10.587988,-0.7297,1.7739,-0.1002,-1.9701,9.2447,0.7705,-0.0671,0.9028,0.0394,
10.589857,-0.7297,1.7739,-0.1002,-1.9701,9.2447,0.7705,0.4511,2.1343,0.1593,
10.604866,-0.7297,1.7739,-0.1002,-1.9701,9.2447,0.7705,1.0493,3.2837,0.3931,
10.624417,-0.6589,0.9066,-0.6775,-1.9701,9.2447,0.7705,1.0493,3.2837,0.3931,
10.626588,-0.6589,0.9066,-0.6775,-1.5969,0.7551,-4.0986,1.0493,3.2837,0.3931,
10.628414,-0.6589,0.9066,-0.6775,-1.5969,0.7551,-4.0986,1.4046,2.1630,-0.0309,
10.644831,-0.6589,0.9066,-0.6775,-1.5969,0.7551,-4.0986,1.0376,0.4495,-0.4144,
10.664658,-0.8179,0.8504,-0.6885,-1.5969,0.7551,-4.0986,1.0376,0.4495,-0.4144,
10.668093,-0.8179,0.8504,-0.6885,-3.2310,0.3880,-3.5635,1.0376,0.4495,-0.4144,
10.670328,-0.8179,0.8504,-0.6885,-3.2310,0.3880,-3.5635,0.3531,0.0629,-0.2237,
10.683831,-0.8179,0.8504,-0.6885,-3.2310,0.3880,-3.5635,0.0256,0.2168,-0.1097,
10.703761,-0.2382,0.8338,-0.2162,-3.2310,0.3880,-3.5635,0.0256,0.2168,-0.1097,
10.706335,-0.2382,0.8338,-0.2162,2.4850,0.2815,1.1512,0.0256,0.2168,-0.1097,
10.707828,-0.2382,0.8338,-0.2162,2.4850,0.2815,1.1512,0.1044,0.1465,-0.1081,
10.724241,-0.2382,0.8338,-0.2162,2.4850,0.2815,1.1512,0.2264,-0.0554,-0.1662,
10.744699,-0.1837,0.6244,-0.3367,2.4850,0.2815,1.1512,0.2264,-0.0554,-0.1662,
10.747074,-0.1837,0.6244,-0.3367,3.0319,-1.7344,0.0376,0.2264,-0.0554,-0.1662,
10.748783,-0.1837,0.6244,-0.3367,3.0319,-1.7344,0.0376,0.0895,-0.4895,-0.2285,
10.764417,-0.1837,0.6244,-0.3367,3.0319,-1.7344,0.0376,-0.1960,-0.8613,-0.2386,
10.784592,-0.2648,0.5314,-0.3503,3.0319,-1.7344,0.0376,-0.1960,-0.8613,-0.2386,
10.787051,-0.2648,0.5314,-0.3503,2.3984,-2.6076,-0.2458,-0.1960,-0.8613,-0.2386,
10.788954,-0.2648,0.5314,-0.3503,2.3984,-2.6076,-0.2458,-0.4416,-1.0168,-0.1720,
10.804239,-0.2648,0.5314,-0.3503,2.3984,-2.6076,-0.2458,-0.6264,-1.0764,-0.0868,
10.824577,-0.3044,0.4456,-0.3799,2.3984,-2.6076,-0.2458,-0.6264,-1.0764,-0.0868,
10.828698,-0.3044,0.4456,-0.3799,2.1766,-3.4855,-0.9150,-0.6264,-1.0764,-0.0868,
10.830345,-0.3044,0.4456,-0.3799,2.1766,-3.4855,-0.9150,-0.7132,-0.9353,-0.1049,
10.844076,-0.3044,0.4456,-0.3799,2.1766,-3.4855,-0.9150,-0.6157,-0.7521,-0.1843,
10.864377,-0.3787,0.4248,-0.2492,2.1766,-3.4855,-0.9150,-0.6157,-0.7521,-0.1843,
10.866564,-0.3787,0.4248,-0.2492,1.5824,-3.7282,-0.0189,-0.6157,-0.7521,-0.1843,
10.868528,-0.3787,0.4248,-0.2492,1.5824,-3.7282,-0.0189,-0.4144,-1.0322,-0.1694,
10.884359,-0.3787,0.4248,-0.2492,1.5824,-3.7282,-0.0189,-0.1651,-1.0056,-0.1422,
10.904353,-0.4845,0.5920,-0.0706,1.5824,-3.7282,-0.0189,-0.1651,-1.0056,-0.1422,
10.906667,-0.4845,0.5920,-0.0706,0.6867,-2.0837,1.4215,-0.1651,-1.0056,-0.1422,
10.908455,-0.4845,0.5920,-0.0706,0.6867,-2.0837,1.4215,0.1726,-0.5124,-0.1300,
10.923569,-0.4845,0.5920,-0.0706,0.6867,-2.0837,1.4215,0.4048,-0.3196,-0.0778,
10.944365,-0.4942,0.5890,-0.1974,0.6867,-2.0837,1.4215,0.4048,-0.3196,-0.0778,
10.946758,-0.4942,0.5890,-0.1974,0.6585,-2.0655,0.1786,0.4048,-0.3196,-0.0778,
10.948505,-0.4942,0.5890,-0.1974,0.6585,-2.0655,0.1786,0.4101,-0.1699,-0.1081,
10.964189,-0.4942,0.5890,-0.1974,0.6585,-2.0655,0.1786,0.3537,0.3340,-0.1188,
10.983820,-0.3955,0.6213,-0.1952,0.6585,-2.0655,0.1786,0.3537,0.3340,-0.1188,
10.987123,-0.3955,0.6213,-0.1952,1.6537,-1.6914,0.3374,0.3537,0.3340,-0.1188,
10.989151,-0.3955,0.6213,-0.1952,1.6537,-1.6914,0.3374,0.3324,0.6370,0.0186,
11.003691,-0.3955,0.6213,-0.1952,1.6537,-1.6914,0.3374,0.2935,0.0751,0.2210,
11.024237,-0.5959,1.0928,-0.1329,1.6537,-1.6914,0.3374,0.2935,0.0751,0.2210,
11.027564,-0.5959,1.0928,-0.1329,-0.3889,2.9210,1.1070,0.2935,0.0751,0.2210,
11.029611,-0.5959,1.0928,-0.1329,-0.3889,2.9210,1.1070,0.1055,-0.5854,0.3244,
11.044230,-0.5959,1.0928,-0.1329,-0.3889,2.9210,1.1070,-0.2557,-1.3135,0.3430,
11.065091,-1.4778,2.3993,-0.1087,-0.3889,2.9210,1.1070,-0.2557,-1.3135,0.3430,
11.067350,-1.4778,2.3993,-0.1087,-9.0488,15.6462,1.1145,-0.2557,-1.3135,0.3430,
11.069193,-1.4778,2.3993,-0.1087,-9.0488,15.6462,1.1145,-0.4948,-1.2432,0.4847,
11.083615,-1.4778,2.3993,-0.1087,-9.0488,15.6462,1.1145,-0.3052,1.3321,0.0895,
11.104021,-0.9269,0.8065,-0.1065,-9.0488,15.6462,1.1145,-0.3052,1.3321,0.0895,
11.106414,-0.9269,0.8065,-0.1065,-3.7428,-0.0588,1.0181,-0.3052,1.3321,0.0895,
11.108321,-0.9269,0.8065,-0.1065,-3.7428,-0.0588,1.0181,-0.6610,0.8123,0.3244,
11.123581,-0.9269,0.8065,-0.1065,-3.7428,-0.0588,1.0181,-0.7803,0.4469,0.1103,
11.143077,-0.8099,1.2921,-0.1649,-3.7428,-0.0588,1.0181,-0.7803,0.4469,0.1103,
11.144927,-0.8099,1.2921,-0.1649,-2.7166,4.5967,0.3476,-0.7803,0.4469,0.1103,
11.145903,-0.8099,1.2921,-0.1649,-2.7166,4.5967,0.3476,-0.0378,0.9790,0.0123,
11.163451,-0.8099,1.2921,-0.1649,-2.7166,4.5967,0.3476,0.3345,0.0538,0.0192,
11.183710,-0.4439,0.8094,-0.4476,-2.7166,4.5967,0.3476,0.3345,0.0538,0.0192,
11.186496,-0.4439,0.8094,-0.4476,0.8233,-0.1250,-2.2674,0.3345,0.0538,0.0192,
11.188423,-0.4439,0.8094,-0.4476,0.8233,-0.1250,-2.2674,0.0357,-0.3739,-0.0245,
11.203281,-0.4439,0.8094,-0.4476,0.8233,-0.1250,-2.2674,-0.2711,-0.5736,-0.0751,
11.224338,-0.4446,0.6284,-0.0941,0.8233,-0.1250,-2.2674,-0.2711,-0.5736,-0.0751,
11.228324,-0.4446,0.6284,-0.0941,0.8724,-1.8979,1.0592,-0.2711,-0.5736,-0.0751,
11.230427,-0.4446,0.6284,-0.0941,0.8724,-1.8979,1.0592,-0.3297,-0.7159,-0.0788,
11.245206,-0.4446,0.6284,-0.0941,0.8724,-1.8979,1.0592,-0.3302,-0.5673,-0.0224,
11.264301,-0.4295,0.5612,-0.0308,0.8724,-1.8979,1.0592,-0.3302,-0.5673,-0.0224,
11.268070,-0.4295,0.5612,-0.0308,1.0860,-2.5697,1.4367,-0.3302,-0.5673,-0.0224,
11.269875,-0.4295,0.5612,-0.0308,1.0860,-2.5697,1.4367,-0.2961,-0.3957,0.1023,
11.283201,-0.4295,0.5612,-0.0308,1.0860,-2.5697,1.4367,-0.1965,-0.1417,0.1912,
11.303972,-0.4803,0.4984,-0.0559,1.0860,-2.5697,1.4367,-0.1965,-0.1417,0.1912,
11.307003,-0.4803,0.4984,-0.0559,0.5585,-3.2324,1.0537,-0.1965,-0.1417,0.1912,
11.308551,-0.4803,0.4984,-0.0559,0.5585,-3.2324,1.0537,-0.0698,0.0192,0.1731,
11.323462,-0.4803,0.4984,-0.0559,0.5585,-3.2324,1.0537,0.0250,0.0357,0.1220,
11.343512,-0.4752,0.4332,-0.1840,0.5585,-3.2324,1.0537,0.0250,0.0357,0.1220,
11.345575,-0.4752,0.4332,-0.1840,0.5591,-3.9040,-0.2024,0.0250,0.0357,0.1220,
11.347545,-0.4752,0.4332,-0.1840,0.5591,-3.9040,-0.2024,0.1337,-0.0133,0.0746,
11.363389,-0.4752,0.4332,-0.1840,0.5591,-3.9040,-0.2024,0.2919,-0.0458,0.1087,
11.383702,-0.3972,0.4871,-0.2487,0.5591,-3.9040,-0.2024,0.2919,-0.0458,0.1087,
11.385894,-0.3972,0.4871,-0.2487,1.2950,-3.3800,-0.7738,0.2919,-0.0458,0.1087,
11.387775,-0.3972,0.4871,-0.2487,1.2950,-3.3800,-0.7738,0.3766,-0.1268,0.1225,
11.403618,-0.3972,0.4871,-0.2487,1.2950,-3.3800,-0.7738,0.2722,-0.1300,0.1081,
11.424884,-0.4261,0.5292,-0.1512,1.2950,-3.3800,-0.7738,0.2722,-0.1300,0.1081,
11.429021,-0.4261,0.5292,-0.1512,0.9837,-2.9699,0.2607,0.2722,-0.1300,0.1081,
11.431238,-0.4261,0.5292,-0.1512,0.9837,-2.9699,0.2607,0.1518,-0.0186,0.1305,
11.445429,-0.4261,0.5292,-0.1512,0.9837,-2.9699,0.2607,0.1353,0.1039,0.1012,
11.463687,-0.4852,0.4920,-0.1002,0.9837,-2.9699,0.2607,0.1353,0.1039,0.1012,
11.465938,-0.4852,0.4920,-0.1002,0.3634,-3.3475,0.8166,0.1353,0.1039,0.1012,
11.467820,-0.4852,0.4920,-0.1002,0.3634,-3.3475,0.8166,0.1598,0.0437,0.0756,
11.483408,-0.4852,0.4920,-0.1002,0.3634,-3.3475,0.8166,0.0644,0.0485,0.0549,
11.503065,-0.3987,0.3938,0.0203,0.3634,-3.3475,0.8166,0.0644,0.0485,0.0549,
11.505316,-0.3987,0.3938,0.0203,1.1863,-4.3151,2.0429,0.0644,0.0485,0.0549,
11.507414,-0.3987,0.3938,0.0203,1.1863,-4.3151,2.0429,-0.1262,-0.0192,0.0740,
11.522833,-0.3987,0.3938,0.0203,1.1863,-4.3151,2.0429,-0.3313,-0.1225,0.1012,
11.543944,-0.5050,1.0405,0.0557,1.1863,-4.3151,2.0429,-0.3313,-0.1225,0.1012,
11.546213,-0.5050,1.0405,0.0557,0.1213,1.9881,2.3009,-0.3313,-0.1225,0.1012,
11.547959,-0.5050,1.0405,0.0557,0.1213,1.9881,2.3009,-0.3169,0.1284,0.1337,
11.564223,-0.5050,1.0405,0.0557,0.1213,1.9881,2.3009,0.0368,1.7588,0.0740,
11.583027,-1.0955,2.2308,-0.2384,0.1213,1.9881,2.3009,0.0368,1.7588,0.0740,
11.585488,-1.0955,2.2308,-0.2384,-5.7675,13.6221,-0.4391,0.0368,1.7588,0.0740,
11.587578,-1.0955,2.2308,-0.2384,-5.7675,13.6221,-0.4391,0.7776,2.6743,-0.0021,
11.602884,-1.0955,2.2308,-0.2384,-5.7675,13.6221,-0.4391,1.0695,1.3470,0.1449,
11.622952,-0.4268,1.3305,-0.6924,-5.7675,13.6221,-0.4391,1.0695,1.3470,0.1449,
11.626450,-0.4268,1.3305,-0.6924,0.5846,4.8704,-4.1930,1.0695,1.3470,0.1449,
11.628297,-0.4268,1.3305,-0.6924,0.5846,4.8704,-4.1930,1.0892,0.7483,0.4128,
11.643982,-0.4268,1.3305,-0.6924,0.5846,4.8704,-4.1930,0.8767,0.2381,-0.0858,
11.662143,-0.7715,0.7850,-0.7112,0.5846,4.8704,-4.1930,0.8767,0.2381,-0.0858,
11.664289,-0.7715,0.7850,-0.7112,-2.9014,-0.3965,-3.9651,0.8767,0.2381,-0.0858,
11.666149,-0.7715,0.7850,-0.7112,-2.9014,-0.3965,-3.9651,0.3318,-0.3686,-0.4666,
11.683008,-0.7715,0.7850,-0.7112,-2.9014,-0.3965,-3.9651,-0.2658,-0.5401,-0.4836,
11.703117,-0.4686,0.7146,-0.2590,-2.9014,-0.3965,-3.9651,-0.2658,-0.5401,-0.4836,
11.705877,-0.4686,0.7146,-0.2590,0.2742,-0.9915,0.3908,-0.2658,-0.5401,-0.4836,
11.707601,-0.4686,0.7146,-0.2590,0.2742,-0.9915,0.3908,-0.4879,-0.3180,-0.3888,
11.722739,-0.4686,0.7146,-0.2590,0.2742,-0.9915,0.3908,-0.3760,-0.3233,-0.3137,
11.743153,-0.2155,0.6318,-0.1857,0.2742,-0.9915,0.3908,-0.3760,-0.3233,-0.3137,
11.745463,-0.2155,0.6318,-0.1857,2.8863,-1.7893,0.9189,-0.3760,-0.3233,-0.3137,
11.747304,-0.2155,0.6318,-0.1857,2.8863,-1.7893,0.9189,-0.2322,-0.4724,-0.2578,
11.764389,-0.2155,0.6318,-0.1857,2.8863,-1.7893,0.9189,-0.2109,-0.4985,-0.2072,
11.783447,-0.2316,0.5673,-0.3894,2.8863,-1.7893,0.9189,-0.2109,-0.4985,-0.2072,
11.785763,-0.2316,0.5673,-0.3894,2.8537,-2.3979,-1.2465,-0.2109,-0.4985,-0.2072,
11.787690,-0.2316,0.5673,-0.3894,2.8537,-2.3979,-1.2465,-0.3217,-0.3803,-0.1822,
11.802758,-0.2316,0.5673,-0.3894,2.8537,-2.3979,-1.2465,-0.4985,-0.3899,-0.1795,
11.823357,-0.2902,0.4547,-0.3665,2.8537,-2.3979,-1.2465,-0.4985,-0.3899,-0.1795,
11.825679,-0.2902,0.4547,-0.3665,2.3746,-3.5046,-1.2313,-0.4985,-0.3899,-0.1795,
11.827697,-0.2902,0.4547,-0.3665,2.3746,-3.5046,-1.2313,-0.6088,-0.6482,-0.1694,
11.842785,-0.2902,0.4547,-0.3665,2.3746,-3.5046,-1.2313,-0.5422,-0.7478,-0.1710,
11.862511,-0.4148,0.5023,-0.1928,2.3746,-3.5046,-1.2313,-0.5422,-0.7478,-0.1710,
11.864808,-0.4148,0.5023,-0.1928,1.2687,-3.0524,0.1406,-0.5422,-0.7478,-0.1710,
11.866580,-0.4148,0.5023,-0.1928,1.2687,-3.0524,0.1406,-0.0889,-0.1507,-0.1896,
11.882419,-0.4148,0.5023,-0.1928,1.2687,-3.0524,0.1406,0.4043,-0.0501,-0.1055,
11.902635,-0.4175,0.6508,-0.1065,1.2687,-3.0524,0.1406,0.4043,-0.0501,-0.1055,
11.905355,-0.4175,0.6508,-0.1065,1.2974,-1.5523,1.0142,0.4043,-0.0501,-0.1055,
11.907101,-0.4175,0.6508,-0.1065,1.2974,-1.5523,1.0142,0.4815,-0.2466,-0.0634,
11.922692,-0.4175,0.6508,-0.1065,1.2974,-1.5523,1.0142,0.2407,-0.4336,-0.1358,
11.942184,-0.3320,0.5661,-0.0838,1.2974,-1.5523,1.0142,0.2407,-0.4336,-0.1358,
11.944337,-0.3320,0.5661,-0.0838,2.1953,-2.3314,1.2774,0.2407,-0.4336,-0.1358,
11.946083,-0.3320,0.5661,-0.0838,2.1953,-2.3314,1.2774,-0.0277,-0.3073,-0.1992,
11.962247,-0.3320,0.5661,-0.0838,2.1953,-2.3314,1.2774,0.0192,0.4037,0.0240,
11.982815,-0.5482,0.9508,-0.0760,2.1953,-2.3314,1.2774,0.0192,0.4037,0.0240,
11.985058,-0.5482,0.9508,-0.0760,0.0999,1.4583,1.3632,0.0192,0.4037,0.0240,
11.986761,-0.5482,0.9508,-0.0760,0.0999,1.4583,1.3632,0.4554,0.6386,0.3340,
12.002714,-0.5482,0.9508,-0.0760,0.0999,1.4583,1.3632,0.2541,-0.4330,0.5060,
12.022077,-0.9411,1.6041,-0.1671,0.0999,1.4583,1.3632,0.2541,-0.4330,0.5060,
12.024772,-0.9411,1.6041,-0.1671,-3.8906,7.8012,0.6048,0.2541,-0.4330,0.5060,
12.026485,-0.9411,1.6041,-0.1671,-3.8906,7.8012,0.6048,-0.2397,-1.7103,0.4820,
12.044200,-0.9411,1.6041,-0.1671,-3.8906,7.8012,0.6048,-0.6317,-1.8930,0.5390,
12.062029,-1.1866,1.4441,0.0083,-3.8906,7.8012,0.6048,-0.6317,-1.8930,0.5390,
12.064731,-1.1866,1.4441,0.0083,-6.3161,6.0906,1.8014,-0.6317,-1.8930,0.5390,
12.066189,-1.1866,1.4441,0.0083,-6.3161,6.0906,1.8014,-0.6903,0.4842,0.2999,
12.081452,-1.1866,1.4441,0.0083,-6.3161,6.0906,1.8014,-0.2535,1.8520,0.1912,
12.102664,-0.9833,1.0092,-0.1896,-6.3161,6.0906,1.8014,-0.2535,1.8520,0.1912,
12.104618,-0.9833,1.0092,-0.1896,-4.4841,1.7453,-0.0473,-0.2535,1.8520,0.1912,
12.106540,-0.9833,1.0092,-0.1896,-4.4841,1.7453,-0.0473,0.2152,0.8959,0.1768,
12.122433,-0.9833,1.0092,-0.1896,-4.4841,1.7453,-0.0473,0.3196,0.2775,0.1108,
12.142819,-0.4911,0.9589,-0.4942,-4.4841,1.7453,-0.0473,0.3196,0.2775,0.1108,
12.146273,-0.4911,0.9589,-0.4942,0.2489,1.2434,-2.8260,0.3196,0.2775,0.1108,
12.148056,-0.4911,0.9589,-0.4942,0.2489,1.2434,-2.8260,-0.1108,0.0495,0.1635,
12.161915,-0.4911,0.9589,-0.4942,0.2489,1.2434,-2.8260,-0.4149,-0.4506,0.0431,
12.181781,-0.3200,0.7166,-0.1248,0.2489,1.2434,-2.8260,-0.4149,-0.4506,0.0431,
12.184551,-0.3200,0.7166,-0.1248,1.9066,-1.1730,0.6679,-0.4149,-0.4506,0.0431,
12.186518,-0.3200,0.7166,-0.1248,1.9066,-1.1730,0.6679,-0.4884,-0.5859,0.0091,
12.202635,-0.3200,0.7166,-0.1248,1.9066,-1.1730,0.6679,-0.3601,-0.5183,0.1007,
12.221862,-0.3694,0.5585,-0.0735,1.9066,-1.1730,0.6679,-0.3601,-0.5183,0.1007,
12.224075,-0.3694,0.5585,-0.0735,1.4439,-2.7631,0.9199,-0.3601,-0.5183,0.1007,
12.225825,-0.3694,0.5585,-0.0735,1.4439,-2.7631,0.9199,-0.1992,-0.3952,0.1838,
12.241898,-0.3694,0.5585,-0.0735,1.4439,-2.7631,0.9199,-0.0799,-0.2956,0.2296,
12.262905,-0.4222,0.5113,-0.1349,1.4439,-2.7631,0.9199,-0.0799,-0.2956,0.2296,
12.265088,-0.4222,0.5113,-0.1349,0.8803,-3.2756,0.2033,-0.0799,-0.2956,0.2296,
12.266989,-0.4222,0.5113,-0.1349,0.8803,-3.2756,0.2033,0.0325,-0.2141,0.2232,
12.282431,-0.4222,0.5113,-0.1349,0.8803,-3.2756,0.2033,0.1784,-0.1619,0.1907,
12.301928,-0.4808,0.4427,-0.2060,0.8803,-3.2756,0.2033,0.1784,-0.1619,0.1907,
12.304854,-0.4808,0.4427,-0.2060,0.2485,-3.9833,-0.4959,0.1784,-0.1619,0.1907,
12.306697,-0.4808,0.4427,-0.2060,0.2485,-3.9833,-0.4959,0.3510,-0.2093,0.1353,
12.322047,-0.4808,0.4427,-0.2060,0.2485,-3.9833,-0.4959,0.4133,-0.2967,0.0575,
12.342631,-0.4581,0.4170,-0.1906,0.2485,-3.9833,-0.4959,0.4133,-0.2967,0.0575,
12.344907,-0.4581,0.4170,-0.1906,0.4549,-4.2299,-0.2680,0.4133,-0.2967,0.0575,
12.346794,-0.4581,0.4170,-0.1906,0.4549,-4.2299,-0.2680,0.3814,-0.2466,0.0138,
12.362536,-0.4581,0.4170,-0.1906,0.4549,-4.2299,-0.2680,0.3579,-0.0069,-0.0037,
12.382439,-0.5563,0.6103,-0.2858,0.4549,-4.2299,-0.2680,0.3579,-0.0069,-0.0037,
12.384918,-0.5563,0.6103,-0.2858,-0.5011,-2.3128,-1.1042,0.3579,-0.0069,-0.0037,
12.386980,-0.5563,0.6103,-0.2858,-0.5011,-2.3128,-1.1042,0.4479,0.1582,0.0011,
12.401773,-0.5563,0.6103,-0.2858,-0.5011,-2.3128,-1.1042,0.3718,0.1289,0.0032,
12.422179,-0.4942,0.6413,-0.1527,-0.5011,-2.3128,-1.1042,0.3718,0.1289,0.0032,
12.424676,-0.4942,0.6413,-0.1527,0.0962,-1.9800,0.3646,0.3718,0.1289,0.0032,
12.426330,-0.4942,0.6413,-0.1527,0.0962,-1.9800,0.3646,0.0485,0.0064,-0.0011,
12.443425,-0.4942,0.6413,-0.1527,0.0962,-1.9800,0.3646,-0.2306,0.0218,-0.0394,
12.461737,-0.4014,0.4688,0.0880,0.0962,-1.9800,0.3646,-0.2306,0.0218,-0.0394,
12.464404,-0.4014,0.4688,0.0880,1.0116,-3.6731,2.6956,-0.2306,0.0218,-0.0394,
12.466153,-0.4014,0.4688,0.0880,1.0116,-3.6731,2.6956,-0.3324,-0.1081,-0.0043,
12.483320,-0.4014,0.4688,0.0880,1.0116,-3.6731,2.6956,-0.3467,-0.5401,0.0783,
12.501928,-0.4231,1.1319,0.1375,1.0116,-3.6731,2.6956,-0.3467,-0.5401,0.0783,
12.505640,-0.4231,1.1319,0.1375,0.8084,2.7925,3.0000,-0.3467,-0.5401,0.0783,
12.507948,-0.4231,1.1319,0.1375,0.8084,2.7925,3.0000,-0.1603,-0.6445,0.1486,
12.521846,-0.4231,1.1319,0.1375,0.8084,2.7925,3.0000,0.2977,1.0514,0.1119,
12.542056,-0.7280,1.7795,0.0650,0.8084,2.7925,3.0000,0.2977,1.0514,0.1119,
12.544203,-0.7280,1.7795,0.0650,-2.2365,9.1184,2.3513,0.2977,1.0514,0.1119,
12.545884,-0.7280,1.7795,0.0650,-2.2365,9.1184,2.3513,1.0701,2.3393,-0.0426,
12.561332,-0.7280,1.7795,0.0650,-2.2365,9.1184,2.3513,1.6251,1.1478,0.0868,
12.581393,-0.5995,1.5570,-0.6376,-2.2365,9.1184,2.3513,1.6251,1.1478,0.0868,
12.584233,-0.5995,1.5570,-0.6376,-1.1269,7.0490,-3.7529,1.6251,1.1478,0.0868,
12.585987,-0.5995,1.5570,-0.6376,-1.1269,7.0490,-3.7529,1.7082,0.1641,0.3111,
12.601520,-0.5995,1.5570,-0.6376,-1.1269,7.0490,-3.7529,1.5324,0.5534,0.0826,
12.621548,-0.5920,0.6557,-0.7241,-1.1269,7.0490,-3.7529,1.5324,0.5534,0.0826,
12.624610,-0.5920,0.6557,-0.7241,-1.1580,-1.6401,-4.0063,1.5324,0.5534,0.0826,
12.626722,-0.5920,0.6557,-0.7241,-1.1580,-1.6401,-4.0063,0.8927,-0.1699,-0.3324,
12.641968,-0.5920,0.6557,-0.7241,-1.1580,-1.6401,-4.0063,0.0911,-0.5161,-0.3798,
12.661554,-0.4884,0.5966,-0.4314,-1.1580,-1.6401,-4.0063,0.0911,-0.5161,-0.3798,
12.664349,-0.4884,0.5966,-0.4314,0.0144,-2.0903,-1.0452,0.0911,-0.5161,-0.3798,
12.666024,-0.4884,0.5966,-0.4314,0.0144,-2.0903,-1.0452,-0.4794,-0.2876,-0.2993,
12.682186,-0.4884,0.5966,-0.4314,0.0144,-2.0903,-1.0452,-0.6738,-0.1901,-0.3020,
12.701944,-0.2519,0.6794,-0.2235,0.0144,-2.0903,-1.0452,-0.6738,-0.1901,-0.3020,
12.704358,-0.2519,0.6794,-0.2235,2.4439,-1.2936,0.7769,-0.6738,-0.1901,-0.3020,
12.706116,-0.2519,0.6794,-0.2235,2.4439,-1.2936,0.7769,-0.5369,-0.2413,-0.2530,
12.721891,-0.2519,0.6794,-0.2235,2.4439,-1.2936,0.7769,-0.4815,-0.1555,-0.1667,
12.741911,-0.2016,0.5106,-0.5150,2.4439,-1.2936,0.7769,-0.4815,-0.1555,-0.1667,
12.746148,-0.2016,0.5106,-0.5150,3.0267,-2.9647,-2.2806,-0.4815,-0.1555,-0.1667,
12.747904,-0.2016,0.5106,-0.5150,3.0267,-2.9647,-2.2806,-0.6642,-0.1071,-0.0474,
12.761183,-0.2016,0.5106,-0.5150,3.0267,-2.9647,-2.2806,-0.8346,-0.4218,-0.0756,
12.781031,-0.2614,0.4417,-0.3902,3.0267,-2.9647,-2.2806,-0.8346,-0.4218,-0.0756,
12.784183,-0.2614,0.4417,-0.3902,2.4871,-3.7062,-1.3498,-0.8346,-0.4218,-0.0756,
12.785850,-0.2614,0.4417,-0.3902,2.4871,-3.7062,-1.3498,-0.8458,-0.7904,-0.1497,
12.801633,-0.2614,0.4417,-0.3902,2.4871,-3.7062,-1.3498,-0.6205,-0.4453,-0.1880,
12.821288,-0.4483,0.5416,-0.0982,2.4871,-3.7062,-1.3498,-0.6205,-0.4453,-0.1880,
12.825211,-0.4483,0.5416,-0.0982,0.7667,-2.7595,1.1495,-0.6205,-0.4453,-0.1880,
12.827389,-0.4483,0.5416,-0.0982,0.7667,-2.7595,1.1495,-0.2637,-0.1214,-0.1768,
12.841053,-0.4483,0.5416,-0.0982,0.7667,-2.7595,1.1495,-0.0192,0.0027,-0.1731,
12.861523,-0.4222,0.5116,-0.0926,0.7667,-2.7595,1.1495,-0.0192,0.0027,-0.1731,
12.863809,-0.4222,0.5116,-0.0926,1.0841,-3.0295,1.1467,-0.0192,0.0027,-0.1731,
12.865543,-0.4222,0.5116,-0.0926,1.0841,-3.0295,1.1467,-0.0288,-0.0357,-0.2653,
12.881978,-0.4222,0.5116,-0.0926,1.0841,-3.0295,1.1467,-0.1113,0.2056,-0.2599,
12.901380,-0.2985,0.6398,-0.0926,1.0841,-3.0295,1.1467,-0.1113,0.2056,-0.2599,
12.904411,-0.2985,0.6398,-0.0926,2.3727,-1.7231,1.1422,-0.1113,0.2056,-0.2599,
12.906006,-0.2985,0.6398,-0.0926,2.3727,-1.7231,1.1422,-0.0543,0.7920,-0.0607,
12.920951,-0.2985,0.6398,-0.0926,2.3727,-1.7231,1.1422,0.1752,1.0578,0.1497,
12.940944,-0.4837,0.9643,-0.1686,2.3727,-1.7231,1.1422,0.1752,1.0578,0.1497,
12.943523,-0.4837,0.9643,-0.1686,0.4644,1.4526,0.6112,0.1752,1.0578,0.1497,
12.945226,-0.4837,0.9643,-0.1686,0.4644,1.4526,0.6112,0.0016,0.3361,0.2711,
12.961634,-0.4837,0.9643,-0.1686,0.4644,1.4526,0.6112,-0.5310,-1.0274,0.3606,
12.981239,-1.3872,2.2261,-0.0889,0.4644,1.4526,0.6112,-0.5310,-1.0274,0.3606,
12.984465,-1.3872,2.2261,-0.0889,-8.4609,13.7303,1.2360,-0.5310,-1.0274,0.3606,
12.986829,-1.3872,2.2261,-0.0889,-8.4609,13.7303,1.2360,-1.0791,-2.2019,0.5902,
13.001008,-1.3872,2.2261,-0.0889,-8.4609,13.7303,1.2360,-1.4743,-0.3910,0.5108,
13.021585,-0.9782,0.9662,0.3122,-8.4609,13.7303,1.2360,-1.4743,-0.3910,0.5108,
13.024139,-0.9782,0.9662,0.3122,-4.5368,1.1839,4.4841,-1.4743,-0.3910,0.5108,
13.025910,-0.9782,0.9662,0.3122,-4.5368,1.1839,4.4841,-1.3790,1.8765,0.3164,
13.042124,-0.9782,0.9662,0.3122,-4.5368,1.1839,4.4841,-0.5678,1.0381,0.3084,
13.061079,-0.5827,1.2501,0.0396,-4.5368,1.1839,4.4841,-0.5678,1.0381,0.3084,
13.063234,-0.5827,1.2501,0.0396,-0.8461,3.8498,1.7769,-0.5678,1.0381,0.3084,
13.065149,-0.5827,1.2501,0.0396,-0.8461,3.8498,1.7769,0.3521,0.5699,0.0154,
13.081329,-0.5827,1.2501,0.0396,-0.8461,3.8498,1.7769,0.7728,0.6487,-0.0357,
13.100459,-0.4390,0.8436,-0.6315,-0.8461,3.8498,1.7769,0.7728,0.6487,-0.0357,
13.102595,-0.4390,0.8436,-0.6315,0.5279,-0.0973,-4.4937,0.7728,0.6487,-0.0357,
13.104311,-0.4390,0.8436,-0.6315,0.5279,-0.0973,-4.4937,0.2983,-0.0021,0.0192,
13.121307,-0.4390,0.8436,-0.6315,0.5279,-0.0973,-4.4937,-0.3308,-0.3116,0.0112,
13.141288,-0.4134,0.5639,-0.2218,0.5279,-0.0973,-4.4937,-0.3308,-0.3116,0.0112,
13.143757,-0.4134,0.5639,-0.2218,0.7924,-2.8349,-0.4977,-0.3308,-0.3116,0.0112,
13.145606,-0.4134,0.5639,-0.2218,0.7924,-2.8349,-0.4977,-0.4953,-0.6993,-0.0320,
13.161460,-0.4134,0.5639,-0.2218,0.7924,-2.8349,-0.4977,-0.4495,-0.7164,-0.0133,
13.181201,-0.5414,0.5575,-0.0305,0.7924,-2.8349,-0.4977,-0.4495,-0.7164,-0.0133,
13.183681,-0.5414,0.5575,-0.0305,-0.4075,-2.9192,1.0824,-0.4495,-0.7164,-0.0133,
13.185454,-0.5414,0.5575,-0.0305,-0.4075,-2.9192,1.0824,-0.3627,-0.6583,0.0676,
13.200965,-0.5414,0.5575,-0.0305,-0.4075,-2.9192,1.0824,-0.2562,-0.2349,0.0810,
13.221296,-0.5446,0.5118,-0.1014,-0.4075,-2.9192,1.0824,-0.2562,-0.2349,0.0810,
13.223734,-0.5446,0.5118,-0.1014,-0.4404,-3.3972,0.1968,-0.2562,-0.2349,0.0810,
13.225602,-0.5446,0.5118,-0.1014,-0.4404,-3.3972,0.1968,-0.0165,0.2258,0.0266,
13.240769,-0.5446,0.5118,-0.1014,-0.4404,-3.3972,0.1968,0.2759,0.3643,-0.0378,
13.260293,-0.4862,0.4705,-0.3364,-0.4404,-3.3972,0.1968,0.2759,0.3643,-0.0378,
13.263108,-0.4862,0.4705,-0.3364,0.1191,-3.7943,-2.0053,0.2759,0.3643,-0.0378,
13.264997,-0.4862,0.4705,-0.3364,0.1191,-3.7943,-2.0053,0.4325,0.1561,-0.0160,
13.281408,-0.4862,0.4705,-0.3364,0.1191,-3.7943,-2.0053,0.3009,0.0192,0.0250,
13.300823,-0.3674,0.5846,-0.2047,0.1191,-3.7943,-2.0053,0.3009,0.0192,0.0250,
13.303897,-0.3674,0.5846,-0.2047,1.2765,-2.6571,-0.5747,0.3009,0.0192,0.0250,
13.305546,-0.3674,0.5846,-0.2047,1.2765,-2.6571,-0.5747,0.2024,0.0362,0.0533,
13.320371,-0.3674,0.5846,-0.2047,1.2765,-2.6571,-0.5747,0.1672,0.1816,0.0570,
13.340581,-0.3762,0.5402,-0.0039,1.2765,-2.6571,-0.5747,0.1672,0.1816,0.0570,
13.343143,-0.3762,0.5402,-0.0039,1.1654,-3.0927,1.4764,0.1672,0.1816,0.0570,
13.344883,-0.3762,0.5402,-0.0039,1.1654,-3.0927,1.4764,0.0618,0.2413,0.0485,
13.360599,-0.3762,0.5402,-0.0039,1.1654,-3.0927,1.4764,-0.1598,0.1470,0.0655,
13.380341,-0.2336,0.3012,0.0525,1.1654,-3.0927,1.4764,-0.1598,0.1470,0.0655,
13.383505,-0.2336,0.3012,0.0525,2.5326,-5.4483,2.0505,-0.1598,0.1470,0.0655,
13.385193,-0.2336,0.3012,0.0525,2.5326,-5.4483,2.0505,-0.4474,0.2818,0.1124,
13.400559,-0.2336,0.3012,0.0525,2.5326,-5.4483,2.0505,-0.5087,0.9476,0.1768,
13.420263,-0.3677,0.9025,0.2316,2.5326,-5.4483,2.0505,-0.5087,0.9476,0.1768,
13.423770,-0.3677,0.9025,0.2316,1.1328,0.3876,3.7618,-0.5087,0.9476,0.1768,
13.425622,-0.3677,0.9025,0.2316,1.1328,0.3876,3.7618,0.0202,1.8157,0.2120,
13.441360,-0.3677,0.9025,0.2316,1.1328,0.3876,3.7618,1.1739,2.6147,0.2290,
13.461122,-0.8949,1.8675,-0.3428,1.1328,0.3876,3.7618,1.1739,2.6147,0.2290,
13.463366,-0.8949,1.8675,-0.3428,-4.2641,9.8487,-1.2564,1.1739,2.6147,0.2290,
13.465188,-0.8949,1.8675,-0.3428,-4.2641,9.8487,-1.2564,1.7907,2.0363,0.3824,
13.480278,-0.8949,1.8675,-0.3428,-4.2641,9.8487,-1.2564,1.3806,0.0250,0.4586,
13.500410,-0.4700,1.7072,-0.6652,-4.2641,9.8487,-1.2564,1.3806,0.0250,0.4586,
13.502961,-0.4700,1.7072,-0.6652,-0.3385,8.3632,-3.7017,1.3806,0.0250,0.4586,
13.505095,-0.4700,1.7072,-0.6652,-0.3385,8.3632,-3.7017,0.8629,-0.3206,0.2839,
13.520282,-0.4700,1.7072,-0.6652,-0.3385,8.3632,-3.7017,0.4847,0.3702,0.0085,
13.540399,-0.4556,0.6347,-0.6902,-0.3385,8.3632,-3.7017,0.4847,0.3702,0.0085,
13.544232,-0.4556,0.6347,-0.6902,-0.2497,-2.0937,-3.7173,0.4847,0.3702,0.0085,
13.545991,-0.4556,0.6347,-0.6902,-0.2497,-2.0937,-3.7173,0.0762,0.1949,-0.4378,
13.559923,-0.4556,0.6347,-0.6902,-0.2497,-2.0937,-3.7173,-0.3446,-0.6514,-0.6200,
13.579533,-0.4405,0.6130,-0.3745,-0.2497,-2.0937,-3.7173,-0.3446,-0.6514,-0.6200,
13.581886,-0.4405,0.6130,-0.3745,0.1003,-2.2305,-0.7033,-0.3446,-0.6514,-0.6200,
13.583855,-0.4405,0.6130,-0.3745,0.1003,-2.2305,-0.7033,-0.7052,-1.3912,-0.5923,
13.599759,-0.4405,0.6130,-0.3745,0.1003,-2.2305,-0.7033,-0.8405,-1.3944,-0.5337,
13.621070,-0.2311,0.7031,-0.2160,0.1003,-2.2305,-0.7033,-0.8405,-1.3944,-0.5337,
13.624165,-0.2311,0.7031,-0.2160,2.4721,-1.3305,0.3627,-0.8405,-1.3944,-0.5337,
13.625640,-0.2311,0.7031,-0.2160,2.4721,-1.3305,0.3627,-0.7542,-1.1516,-0.5236,
13.641450,-0.2311,0.7031,-0.2160,2.4721,-1.3305,0.3627,-0.5523,-0.7260,-0.4858,
13.661186,-0.2467,0.6139,-0.3887,2.4721,-1.3305,0.3627,-0.5523,-0.7260,-0.4858,
13.664738,-0.2467,0.6139,-0.3887,2.5700,-2.1657,-1.7263,-0.5523,-0.7260,-0.4858,
13.666788,-0.2467,0.6139,-0.3887,2.5700,-2.1657,-1.7263,-0.3372,-0.4906,-0.3787,
13.680490,-0.2467,0.6139,-0.3887,2.5700,-2.1657,-1.7263,-0.1880,-0.8485,-0.2599,
13.700396,-0.2675,0.5216,-0.3425,2.5700,-2.1657,-1.7263,-0.1880,-0.8485,-0.2599,
13.703752,-0.2675,0.5216,-0.3425,2.5230,-3.0271,-1.4952,-0.1880,-0.8485,-0.2599,
13.705664,-0.2675,0.5216,-0.3425,2.5230,-3.0271,-1.4952,-0.0788,-1.0184,-0.2056,
13.720807,-0.2675,0.5216,-0.3425,2.5230,-3.0271,-1.4952,0.1342,-0.6237,-0.1971,
13.740711,-0.4898,0.6205,-0.0730,2.5230,-3.0271,-1.4952,0.1342,-0.6237,-0.1971,
13.742989,-0.4898,0.6205,-0.0730,0.4677,-2.0137,0.9838,0.1342,-0.6237,-0.1971,
13.744744,-0.4898,0.6205,-0.0730,0.4677,-2.0137,0.9838,0.3153,-0.5641,-0.1736,
13.760419,-0.4898,0.6205,-0.0730,0.4677,-2.0137,0.9838,0.2450,-0.6392,-0.1438,
13.780484,-0.2959,0.4615,-0.0679,0.4677,-2.0137,0.9838,0.2450,-0.6392,-0.1438,
13.782676,-0.2959,0.4615,-0.0679,2.4603,-3.5198,0.9967,0.2450,-0.6392,-0.1438,
13.784464,-0.2959,0.4615,-0.0679,2.4603,-3.5198,0.9967,0.0538,-0.4932,-0.1720,
13.799789,-0.2959,0.4615,-0.0679,2.4603,-3.5198,0.9967,-0.0133,0.2024,-0.1055,
13.820297,-0.3955,0.5795,0.0068,2.4603,-3.5198,0.9967,-0.0133,0.2024,-0.1055,
13.822506,-0.3955,0.5795,0.0068,1.5376,-2.3322,1.7046,-0.0133,0.2024,-0.1055,
13.824273,-0.3955,0.5795,0.0068,1.5376,-2.3322,1.7046,0.0000,0.3766,0.1321,
13.841028,-0.3955,0.5795,0.0068,1.5376,-2.3322,1.7046,-0.1001,-0.0293,0.3372,
13.860937,-0.9330,1.5103,-0.0467,1.5376,-2.3322,1.7046,-0.1001,-0.0293,0.3372,
13.863284,-0.9330,1.5103,-0.0467,-3.8165,6.7361,1.2016,-0.1001,-0.0293,0.3372,
13.865044,-0.9330,1.5103,-0.0467,-3.8165,6.7361,1.2016,-0.3750,-0.5135,0.4543,
13.880368,-0.9330,1.5103,-0.0467,-3.8165,6.7361,1.2016,-0.5912,-1.0493,0.5689,
13.899790,-1.5352,1.8543,0.1209,-3.8165,6.7361,1.2016,-0.5912,-1.0493,0.5689,
13.903982,-1.5352,1.8543,0.1209,-9.8378,9.9705,2.5228,-0.5912,-1.0493,0.5689,
13.905953,-1.5352,1.8543,0.1209,-9.8378,9.9705,2.5228,-0.2178,1.6416,0.2988,
13.919620,-1.5352,1.8543,0.1209,-9.8378,9.9705,2.5228,-0.4533,1.1052,0.3260,
13.939972,-0.8079,0.8573,0.0393,-9.8378,9.9705,2.5228,-0.4533,1.1052,0.3260,
13.942299,-0.8079,0.8573,0.0393,-2.8920,0.1164,1.8936,-0.4533,1.1052,0.3260,
13.944152,-0.8079,0.8573,0.0393,-2.8920,0.1164,1.8936,-0.9422,0.5012,0.0410,
13.960034,-0.8079,0.8573,0.0393,-2.8920,0.1164,1.8936,-0.5417,0.7494,-0.2200,
13.979501,-0.5634,1.1673,-0.1969,-2.8920,0.1164,1.8936,-0.5417,0.7494,-0.2200,
13.982008,-0.5634,1.1673,-0.1969,-0.5011,3.1301,-0.5425,-0.5417,0.7494,-0.2200,
13.983776,-0.5634,1.1673,-0.1969,-0.5011,3.1301,-0.5425,-0.0032,0.7595,-0.0399,
14.000150,-0.5634,1.1673,-0.1969,-0.5011,3.1301,-0.5425,0.1806,0.2471,-0.0378,
14.020412,-0.4361,0.8201,-0.4559,-0.5011,3.1301,-0.5425,0.1806,0.2471,-0.0378,
14.022850,-0.4361,0.8201,-0.4559,0.7302,-0.2590,-2.9502,0.1806,0.2471,-0.0378,
14.024763,-0.4361,0.8201,-0.4559,0.7302,-0.2590,-2.9502,-0.0075,-0.2647,-0.1481,
14.041988,-0.4361,0.8201,-0.4559,0.7302,-0.2590,-2.9502,-0.3217,-0.5412,-0.1342,
14.059627,-0.5436,0.5983,-0.1661,0.7302,-0.2590,-2.9502,-0.3217,-0.5412,-0.1342,
14.061779,-0.5436,0.5983,-0.1661,-0.2411,-2.4044,-0.2329,-0.3217,-0.5412,-0.1342,
14.063910,-0.5436,0.5983,-0.1661,-0.2411,-2.4044,-0.2329,-0.5752,-0.5880,-0.1454,
14.080189,-0.5436,0.5983,-0.1661,-0.2411,-2.4044,-0.2329,-0.7057,-0.3196,-0.1380,
14.100412,-0.4974,0.5079,0.0208,-0.2411,-2.4044,-0.2329,-0.7057,-0.3196,-0.1380,
14.104119,-0.4974,0.5079,0.0208,0.2812,-3.2928,1.2944,-0.7057,-0.3196,-0.1380,
14.105757,-0.4974,0.5079,0.0208,0.2812,-3.2928,1.2944,-0.5768,0.0730,-0.0644,
14.120408,-0.4974,0.5079,0.0208,0.2812,-3.2928,1.2944,-0.2152,0.3260,-0.0149,
14.139669,-0.4207,0.4678,-0.0987,0.2812,-3.2928,1.2944,-0.2152,0.3260,-0.0149,
14.141987,-0.4207,0.4678,-0.0987,1.0380,-3.6936,0.0339,-0.2152,0.3260,-0.0149,
14.143842,-0.4207,0.4678,-0.0987,1.0380,-3.6936,0.0339,0.1907,0.4906,-0.0080,
14.159918,-0.4207,0.4678,-0.0987,1.0380,-3.6936,0.0339,0.5406,0.4634,0.0437,
14.180050,-0.3491,0.4346,-0.2795,1.0380,-3.6936,0.0339,0.5406,0.4634,0.0437,
14.182644,-0.3491,0.4346,-0.2795,1.7127,-4.0065,-1.5188,0.5406,0.4634,0.0437,
14.184589,-0.3491,0.4346,-0.2795,1.7127,-4.0065,-1.5188,0.6605,0.2471,0.0623,
14.199387,-0.3491,0.4346,-0.2795,1.7127,-4.0065,-1.5188,0.5007,0.1731,0.0479,
14.219288,-0.3362,0.5306,-0.1065,1.7127,-4.0065,-1.5188,0.5007,0.1731,0.0479,
14.222178,-0.3362,0.5306,-0.1065,1.8102,-3.0458,0.4107,0.5007,0.1731,0.0479,
14.224200,-0.3362,0.5306,-0.1065,1.8102,-3.0458,0.4107,0.2823,0.1332,0.0490,
14.240156,-0.3362,0.5306,-0.1065,1.8102,-3.0458,0.4107,0.1369,0.1124,0.0538,
14.259964,-0.2636,0.3894,0.0682,1.8102,-3.0458,0.4107,0.1369,0.1124,0.0538,
14.262066,-0.2636,0.3894,0.0682,2.4970,-4.4276,2.2165,0.1369,0.1124,0.0538,
14.263959,-0.2636,0.3894,0.0682,2.4970,-4.4276,2.2165,0.0565,0.0858,0.1028,
14.279169,-0.2636,0.3894,0.0682,2.4970,-4.4276,2.2165,-0.0458,0.0325,0.1619,
14.298591,-0.2111,0.4158,0.1590,2.4970,-4.4276,2.2165,-0.0458,0.0325,0.1619,
14.299616,-0.2111,0.4158,0.1590,2.9644,-4.1954,3.1209,-0.0458,0.0325,0.1619,
14.300407,-0.2111,0.4158,0.1590,2.9644,-4.1954,3.1209,-0.1028,-0.1523,0.2402,
14.319861,-0.2111,0.4158,0.1590,2.9644,-4.1954,3.1209,0.0272,-0.0490,0.3238,
14.339418,-0.7168,1.3806,0.2277,2.9644,-4.1954,3.1209,0.0272,-0.0490,0.3238,
14.342195,-0.7168,1.3806,0.2277,-2.2601,5.0000,1.3861,0.0272,-0.0490,0.3238,
14.344177,-0.7168,1.3806,0.2277,-2.2601,5.0000,1.3861,0.4692,1.1771,0.2381,
14.359637,-0.7168,1.3806,0.2277,-2.2601,5.0000,1.3861,1.2107,2.4650,-0.0011,
14.379264,-1.4617,2.9175,-0.5641,-2.2601,5.0000,1.3861,1.2107,2.4650,-0.0011,
14.381363,-1.4617,2.9175,-0.5641,-9.5615,20.0219,-5.7404,1.2107,2.4650,-0.0011,
14.383539,-1.4617,2.9175,-0.5641,-9.5615,20.0219,-5.7404,1.4940,1.4658,0.0629,
14.399423,-1.4617,2.9175,-0.5641,-9.5615,20.0219,-5.7404,1.2682,0.4682,0.6775,
14.419610,-0.1378,0.7933,-0.5314,-9.5615,20.0219,-5.7404,1.2682,0.4682,0.6775,
14.422080,-0.1378,0.7933,-0.5314,3.2829,-0.8577,-4.7627,1.2682,0.4682,0.6775,
14.424114,-0.1378,0.7933,-0.5314,3.2829,-0.8577,-4.7627,1.4088,1.1585,0.4836,
14.440184,-0.1378,0.7933,-0.5314,3.2829,-0.8577,-4.7627,1.2613,0.5001,-0.3734,
14.458808,-0.6836,0.6298,-0.8673,3.2829,-0.8577,-4.7627,1.2613,0.5001,-0.3734,
14.460910,-0.6836,0.6298,-0.8673,-2.1083,-2.4289,-7.4425,1.2613,0.5001,-0.3734,
14.462190,-0.6836,0.6298,-0.8673,-2.1083,-2.4289,-7.4425,0.5273,-0.4927,-0.8250,
14.479141,-0.6836,0.6298,-0.8673,-2.1083,-2.4289,-7.4425,-0.2834,-0.9428,-0.6184,
14.499011,-0.2861,0.6125,-0.3022,-2.1083,-2.4289,-7.4425,-0.2834,-0.9428,-0.6184,
14.501714,-0.2861,0.6125,-0.3022,2.0608,-2.4553,-1.9729,-0.2834,-0.9428,-0.6184,
14.503776,-0.2861,0.6125,-0.3022,2.0608,-2.4553,-1.9729,-0.5374,-0.6184,-0.3862,
14.519638,-0.2861,0.6125,-0.3022,2.0608,-2.4553,-1.9729,-0.3718,-0.4788,-0.3238,
14.539161,-0.1182,0.5854,-0.2695,2.0608,-2.4553,-1.9729,-0.3718,-0.4788,-0.3238,
14.541721,-0.1182,0.5854,-0.2695,3.8439,-2.6667,-1.9133,-0.3718,-0.4788,-0.3238,
14.543716,-0.1182,0.5854,-0.2695,3.8439,-2.6667,-1.9133,-0.2349,-0.8224,-0.2525,
14.559887,-0.1182,0.5854,-0.2695,3.8439,-2.6667,-1.9133,-0.3382,-0.9353,-0.2061,
14.579293,-0.2184,0.5355,-0.5130,3.8439,-2.6667,-1.9133,-0.3382,-0.9353,-0.2061,
14.581727,-0.2184,0.5355,-0.5130,2.9600,-3.1155,-4.5737,-0.3382,-0.9353,-0.2061,
14.583723,-0.2184,0.5355,-0.5130,2.9600,-3.1155,-4.5737,-0.5981,-0.5625,-0.2296,
14.599977,-0.2184,0.5355,-0.5130,2.9600,-3.1155,-4.5737,-0.7175,-0.3302,-0.2131,
14.619594,-0.3020,0.3679,-0.2125,2.9600,-3.1155,-4.5737,-0.7175,-0.3302,-0.2131,
14.622653,-0.3020,0.3679,-0.2125,2.2206,-4.7202,-1.9397,-0.7175,-0.3302,-0.2131,
14.624755,-0.3020,0.3679,-0.2125,2.2206,-4.7202,-1.9397,-0.5662,-0.5582,-0.1678,
14.639615,-0.3020,0.3679,-0.2125,2.2206,-4.7202,-1.9397,-0.1763,-0.1747,-0.1369,
14.659521,-0.4967,0.4566,-0.0066,2.2206,-4.7202,-1.9397,-0.1763,-0.1747,-0.1369,
14.661993,-0.4967,0.4566,-0.0066,0.3636,-3.8200,-0.1207,-0.1763,-0.1747,-0.1369,
14.663958,-0.4967,0.4566,-0.0066,0.3636,-3.8200,-0.1207,0.1108,-0.0618,-0.0320,
14.678972,-0.4967,0.4566,-0.0066,0.3636,-3.8200,-0.1207,0.1039,-0.2322,-0.0692,
14.699922,-0.3906,0.4598,-0.0129,0.3636,-3.8200,-0.1207,0.1039,-0.2322,-0.0692,
14.702096,-0.3906,0.4598,-0.0129,1.4192,-3.7785,-0.1782,0.1039,-0.2322,-0.0692,
14.703972,-0.3906,0.4598,-0.0129,1.4192,-3.7785,-0.1782,-0.0991,-0.0991,-0.1337,
14.718837,-0.3906,0.4598,-0.0129,1.4192,-3.7785,-0.1782,-0.1641,-0.0490,0.0629,
14.739070,-0.5902,1.0168,0.0054,1.4192,-3.7785,-0.1782,-0.1641,-0.0490,0.0629,
14.741236,-0.5902,1.0168,0.0054,-0.5254,1.6881,-0.0577,-0.1641,-0.0490,0.0629,
14.743199,-0.5902,1.0168,0.0054,-0.5254,1.6881,-0.0577,-0.3329,-0.4533,0.1960,
14.758867,-0.5902,1.0168,0.0054,-0.5254,1.6881,-0.0577,-0.6509,-1.1100,0.3883,
14.778927,-1.3635,2.2083,-0.0098,-0.5254,1.6881,-0.0577,-0.6509,-1.1100,0.3883,
14.783079,-1.3635,2.2083,-0.0098,-8.2087,13.3091,-0.5319,-0.6509,-1.1100,0.3883,
14.785434,-1.3635,2.2083,-0.0098,-8.2087,13.3091,-0.5319,-1.0088,-1.4301,0.6248,
14.799464,-1.3635,2.2083,-0.0098,-8.2087,13.3091,-0.5319,-1.3374,-0.0389,0.5784,
14.818253,-0.9335,0.9645,0.2411,-8.2087,13.3091,-0.5319,-1.3374,-0.0389,0.5784,
14.820805,-0.9335,0.9645,0.2411,-4.2138,1.0342,1.3848,-1.3374,-0.0389,0.5784,
14.822653,-0.9335,0.9645,0.2411,-4.2138,1.0342,1.3848,-0.8005,2.3415,0.3073,
14.840138,-0.9335,0.9645,0.2411,-4.2138,1.0342,1.3848,0.0474,2.1183,0.2871,
14.857954,-0.9428,1.1827,-0.3958,-4.2138,1.0342,1.3848,0.0474,2.1183,0.2871,
14.860101,-0.9428,1.1827,-0.3958,-4.3287,3.1279,-4.5448,0.0474,2.1183,0.2871,
14.861905,-0.9428,1.1827,-0.3958,-4.3287,3.1279,-4.5448,0.5060,0.9215,-0.1939,
14.878893,-0.9428,1.1827,-0.3958,-4.3287,3.1279,-4.5448,0.1204,-0.2237,-0.2477,
14.898253,-0.5460,0.7139,-0.4207,-4.3287,3.1279,-4.5448,0.1204,-0.2237,-0.2477,
14.901089,-0.5460,0.7139,-0.4207,-0.3576,-1.4299,-4.6149,0.1204,-0.2237,-0.2477,
14.902903,-0.5460,0.7139,-0.4207,-0.3576,-1.4299,-4.6149,-0.6280,-0.3862,-0.1236,
14.918284,-0.5460,0.7139,-0.4207,-0.3576,-1.4299,-4.6149,-0.8128,-0.4517,-0.0676,
14.938875,-0.3210,0.6171,0.0105,-0.3576,-1.4299,-4.6149,-0.8128,-0.4517,-0.0676,
14.941335,-0.3210,0.6171,0.0105,1.8909,-2.3338,-0.6382,-0.8128,-0.4517,-0.0676,
14.943287,-0.3210,0.6171,0.0105,1.8909,-2.3338,-0.6382,-0.6434,-0.3329,0.0149,
14.959034,-0.3210,0.6171,0.0105,1.8909,-2.3338,-0.6382,-0.2983,-0.0320,0.1113,
14.978564,-0.4935,0.6279,-0.0784,1.8909,-2.3338,-0.6382,-0.2983,-0.0320,0.1113,
14.981005,-0.4935,0.6279,-0.0784,0.1805,-2.2231,-1.6862,-0.2983,-0.0320,0.1113,
14.983006,-0.4935,0.6279,-0.0784,0.1805,-2.2231,-1.6862,-0.0298,0.1497,0.1795,
14.999026,-0.4935,0.6279,-0.0784,0.1805,-2.2231,-1.6862,-0.0719,0.0538,0.1811,
15.017983,-0.5341,0.4915,-0.1813,0.1805,-2.2231,-1.6862,-0.0719,0.0538,0.1811,
15.020641,-0.5341,0.4915,-0.1813,-0.2737,-3.5931,-2.6909,-0.0719,0.0538,0.1811,
15.022733,-0.5341,0.4915,-0.1813,-0.2737,-3.5931,-2.6909,-0.2471,0.0037,0.1246,
15.040659,-0.5341,0.4915,-0.1813,-0.2737,-3.5931,-2.6909,-0.2828,0.1348,0.0543,
15.058622,-0.4803,0.4363,-0.1595,-0.2737,-3.5931,-2.6909,-0.2828,0.1348,0.0543,
15.061185,-0.4803,0.4363,-0.1595,0.2256,-4.1418,-2.5532,-0.2828,0.1348,0.0543,
15.063151,-0.4803,0.4363,-0.1595,0.2256,-4.1418,-2.5532,-0.0181,0.1507,0.0575,
15.078345,-0.4803,0.4363,-0.1595,0.2256,-4.1418,-2.5532,0.2850,0.0485,0.1177,
15.097947,-0.3623,0.4852,-0.1422,0.2256,-4.1418,-2.5532,0.2850,0.0485,0.1177,
15.100343,-0.3623,0.4852,-0.1422,1.3564,-3.6852,-2.3187,0.2850,0.0485,0.1177,
15.102295,-0.3623,0.4852,-0.1422,1.3564,-3.6852,-2.3187,0.4298,-0.0527,0.1917,
15.118295,-0.3623,0.4852,-0.1422,1.3564,-3.6852,-2.3187,0.3649,-0.0874,0.2067,
15.138316,-0.2492,0.4576,0.0117,1.3564,-3.6852,-2.3187,0.3649,-0.0874,0.2067,
15.140642,-0.2492,0.4576,0.0117,2.3951,-4.0083,-0.6896,0.3649,-0.0874,0.2067,
15.142588,-0.2492,0.4576,0.0117,2.3951,-4.0083,-0.6896,0.2562,-0.2008,0.1672,
15.158534,-0.2492,0.4576,0.0117,2.3951,-4.0083,-0.6896,0.1635,-0.1736,0.1475,
15.178144,-0.2626,0.6054,0.1925,2.3951,-4.0083,-0.6896,0.1635,-0.1736,0.1475,
15.181262,-0.2626,0.6054,0.1925,2.2041,-2.5966,1.1175,0.1635,-0.1736,0.1475,
15.183101,-0.2626,0.6054,0.1925,2.2041,-2.5966,1.1175,0.1747,-0.4272,0.1614,
15.198532,-0.2626,0.6054,0.1925,2.2041,-2.5966,1.1175,0.3723,-0.0639,0.1140,
15.218032,-0.6853,1.4653,0.1786,2.2041,-2.5966,1.1175,0.3723,-0.0639,0.1140,
15.220258,-0.6853,1.4653,0.1786,-1.9976,5.7940,1.0244,0.3723,-0.0639,0.1140,
15.222031,-0.6853,1.4653,0.1786,-1.9976,5.7940,1.0244,0.9135,1.3444,0.1150,
15.239861,-0.6853,1.4653,0.1786,-1.9976,5.7940,1.0244,1.6123,2.3100,-0.0213,
15.257388,-1.1397,2.2574,-0.6350,-1.9976,5.7940,1.0244,1.6123,2.3100,-0.0213,
15.260321,-1.1397,2.2574,-0.6350,-6.4422,13.5302,-6.1709,1.6123,2.3100,-0.0213,
15.262236,-1.1397,2.2574,-0.6350,-6.4422,13.5302,-6.1709,1.4844,1.2133,0.2131,
15.278844,-1.1397,2.2574,-0.6350,-6.4422,13.5302,-6.1709,1.0024,0.4959,0.2354,
15.297799,-0.4341,0.9843,-0.5924,-6.4422,13.5302,-6.1709,1.0024,0.4959,0.2354,
15.300774,-0.4341,0.9843,-0.5924,0.3842,1.0297,-5.1666,1.0024,0.4959,0.2354,
15.302547,-0.4341,0.9843,-0.5924,0.3842,1.0297,-5.1666,0.7425,0.7702,-0.1545,
15.318175,-0.4341,0.9843,-0.5924,0.3842,1.0297,-5.1666,0.4421,0.3899,-0.3957,
15.337229,-0.4908,0.7969,-0.6784,0.3842,1.0297,-5.1666,0.4421,0.3899,-0.3957,
