
time,gFx,gFy,gFz,ax,ay,az,wx,wy,wz,
0.028503,0.1197,0.2477,1.0637,0.0000,0.0000,0.0000,0.0000,0.0000,0.0000,
0.030578,0.1197,0.2477,1.0637,0.0000,0.0000,0.0000,-0.0953,-0.7127,-0.3254,
0.048044,0.1197,0.2477,1.0637,0.0000,0.0000,0.0000,-0.0953,-0.7127,-0.3254,
0.068553,0.0608,0.2912,0.9386,0.0000,0.0000,0.0000,-0.0953,-0.7127,-0.3254,
0.070069,0.0608,0.2912,0.9386,-0.0097,-0.0465,-0.1498,-0.0953,-0.7127,-0.3254,
0.071611,0.0608,0.2912,0.9386,-0.0097,-0.0465,-0.1498,-0.0953,-0.7127,-0.3254,
0.088042,0.0608,0.2912,0.9386,-0.0097,-0.0465,-0.1498,-0.0953,-0.7127,-0.3254,
0.108154,-0.0012,0.3738,0.8121,-0.0097,-0.0465,-0.1498,-0.0953,-0.7127,-0.3254,
0.110400,-0.0012,0.3738,0.8121,-0.3673,0.2669,-1.2346,-0.0953,-0.7127,-0.3254,
0.112482,-0.0012,0.3738,0.8121,-0.3673,0.2669,-1.2346,1.2064,0.8005,-0.6232,
0.129396,-0.0012,0.3738,0.8121,-0.3673,0.2669,-1.2346,1.1830,0.8160,-0.6413,
0.148515,0.0410,0.3696,0.8519,-0.3673,0.2669,-1.2346,1.1830,0.8160,-0.6413,
0.150644,0.0410,0.3696,0.8519,0.0137,0.0104,-0.7603,1.1830,0.8160,-0.6413,
0.152578,0.0410,0.3696,0.8519,0.0137,0.0104,-0.7603,1.2410,0.9390,-0.7622,
0.168864,0.0410,0.3696,0.8519,0.0137,0.0104,-0.7603,1.3801,0.9806,-0.9369,
0.187735,-0.0931,0.4339,0.7935,0.0137,0.0104,-0.7603,1.3801,0.9806,-0.9369,
0.189693,-0.0931,0.4339,0.7935,-0.7125,0.1718,-1.1389,1.3801,0.9806,-0.9369,
0.191665,-0.0931,0.4339,0.7935,-0.7125,0.1718,-1.1389,1.4552,0.8597,-1.0599,
0.208453,-0.0931,0.4339,0.7935,-0.7125,0.1718,-1.1389,1.4131,0.7643,-1.1025,
0.228530,-0.1832,0.5199,0.7385,-0.7125,0.1718,-1.1389,1.4131,0.7643,-1.1025,
0.230844,-0.1832,0.5199,0.7385,-0.8362,0.3526,-1.2923,1.4131,0.7643,-1.1025,
0.232838,-0.1832,0.5199,0.7385,-0.8362,0.3526,-1.2923,1.3944,0.9502,-1.0935,
0.248072,-0.1832,0.5199,0.7385,-0.8362,0.3526,-1.2923,1.4344,1.1830,-1.0946,
0.268584,-0.2858,0.5490,0.7512,-0.8362,0.3526,-1.2923,1.4344,1.1830,-1.0946,
0.271240,-0.2858,0.5490,0.7512,-0.9747,0.2520,-0.7950,1.4344,1.1830,-1.0946,
0.273533,-0.2858,0.5490,0.7512,-0.9747,0.2520,-0.7950,1.4413,1.0850,-1.1595,
0.287843,-0.2858,0.5490,0.7512,-0.9747,0.2520,-0.7950,1.3886,0.8197,-1.2043,
0.307636,-0.3699,0.6125,0.6533,-0.9747,0.2520,-0.7950,1.3886,0.8197,-1.2043,
0.309718,-0.3699,0.6125,0.6533,-0.9324,0.3521,-1.1475,1.3886,0.8197,-1.2043,
0.311557,-0.3699,0.6125,0.6533,-0.9324,0.3521,-1.1475,1.2858,0.6402,-1.1883,
0.328198,-0.3699,0.6125,0.6533,-0.9324,0.3521,-1.1475,1.2762,0.8224,-1.1297,
0.347839,-0.4867,0.6479,0.6442,-0.9324,0.3521,-1.1475,1.2762,0.8224,-1.1297,
0.350052,-0.4867,0.6479,0.6442,-1.5828,0.4570,-0.8486,1.2762,0.8224,-1.1297,
0.351757,-0.4867,0.6479,0.6442,-1.5828,0.4570,-0.8486,1.3864,1.0615,-0.9827,
0.368185,-0.4867,0.6479,0.6442,-1.5828,0.4570,-0.8486,1.3481,0.9316,-0.8959,
0.388188,-0.4952,0.6689,0.5507,-1.5828,0.4570,-0.8486,1.3481,0.9316,-0.8959,
0.390334,-0.4952,0.6689,0.5507,-1.1499,0.4102,-1.2889,1.3481,0.9316,-0.8959,
0.392304,-0.4952,0.6689,0.5507,-1.1499,0.4102,-1.2889,1.2293,0.6557,-0.9044,
0.408405,-0.4952,0.6689,0.5507,-1.1499,0.4102,-1.2889,0.9992,0.2642,-0.8240,
0.428579,-0.6064,0.7214,0.5062,-1.1499,0.4102,-1.2889,0.9992,0.2642,-0.8240,
0.431328,-0.6064,0.7214,0.5062,-1.8750,0.7627,-1.3514,0.9992,0.2642,-0.8240,
0.433424,-0.6064,0.7214,0.5062,-1.8750,0.7627,-1.3514,0.7974,0.0586,-0.6519,
0.448112,-0.6064,0.7214,0.5062,-1.8750,0.7627,-1.3514,0.6264,0.0298,-0.4405,
0.467892,-0.4742,0.6951,0.5106,-1.8750,0.7627,-1.3514,0.6264,0.0298,-0.4405,
0.469986,-0.4742,0.6951,0.5106,-0.4071,0.4063,-1.0925,0.6264,0.0298,-0.4405,
0.471929,-0.4742,0.6951,0.5106,-0.4071,0.4063,-1.0925,0.5257,0.1550,-0.3489,
0.487801,-0.4742,0.6951,0.5106,-0.4071,0.4063,-1.0925,0.5550,0.3654,-0.3803,
0.508093,-0.4681,0.6540,0.6496,-0.4071,0.4063,-1.0925,0.5550,0.3654,-0.3803,
0.510487,-0.4681,0.6540,0.6496,-0.1836,-0.0626,0.4593,0.5550,0.3654,-0.3803,
0.512815,-0.4681,0.6540,0.6496,-0.1836,-0.0626,0.4593,0.7697,0.5076,-0.4783,
0.528030,-0.4681,0.6540,0.6496,-0.1836,-0.0626,0.4593,0.9976,0.6008,-0.5140,
0.548407,-0.4793,0.6740,0.3530,-0.1836,-0.0626,0.4593,0.9976,0.6008,-0.5140,
0.551470,-0.4793,0.6740,0.3530,-0.0313,0.0142,-2.1037,0.9976,0.6008,-0.5140,
0.553531,-0.4793,0.6740,0.3530,-0.0313,0.0142,-2.1037,1.0120,0.6764,-0.4969,
0.568470,-0.4793,0.6740,0.3530,-0.0313,0.0142,-2.1037,0.8549,0.7302,-0.5017,
0.587532,-0.5595,0.7251,0.4114,-0.0313,0.0142,-2.1037,0.8549,0.7302,-0.5017,
0.589697,-0.5595,0.7251,0.4114,-0.5267,0.4012,-1.1310,0.8549,0.7302,-0.5017,
0.591630,-0.5595,0.7251,0.4114,-0.5267,0.4012,-1.1310,0.8144,0.7707,-0.4144,
0.607674,-0.5595,0.7251,0.4114,-0.5267,0.4012,-1.1310,0.6445,0.4549,-0.4804,
0.628311,-0.6645,0.7246,0.4671,-0.5267,0.4012,-1.1310,0.6445,0.4549,-0.4804,
0.630543,-0.6645,0.7246,0.4671,-1.3024,0.3409,-0.2520,0.6445,0.4549,-0.4804,
0.632108,-0.6645,0.7246,0.4671,-1.3024,0.3409,-0.2520,0.5641,0.1742,-0.4522,
0.647824,-0.6645,0.7246,0.4671,-1.3024,0.3409,-0.2520,0.6333,0.1928,-0.3052,
0.667200,-0.5534,0.7100,0.3608,-1.3024,0.3409,-0.2520,0.6333,0.1928,-0.3052,
0.668375,-0.5534,0.7100,0.3608,-0.0668,0.1573,-1.0724,0.6333,0.1928,-0.3052,
0.669866,-0.5534,0.7100,0.3608,-0.0668,0.1573,-1.0724,0.6296,0.2621,-0.2194,
0.688285,-0.5534,0.7100,0.3608,-0.0668,0.1573,-1.0724,0.5412,0.3100,-0.3404,
0.706890,-0.5490,0.6728,0.5182,-0.0668,0.1573,-1.0724,0.5412,0.3100,-0.3404,
0.709340,-0.5490,0.6728,0.5182,0.1037,-0.2501,0.6890,0.5412,0.3100,-0.3404,
0.711115,-0.5490,0.6728,0.5182,0.1037,-0.2501,0.6890,0.6653,0.4533,-0.4559,
0.727934,-0.5490,0.6728,0.5182,0.1037,-0.2501,0.6890,0.8080,0.5502,-0.4330,
0.747130,-0.5876,0.6973,0.3987,0.1037,-0.2501,0.6890,0.8080,0.5502,-0.4330,
0.749275,-0.5876,0.6973,0.3987,-0.0701,-0.0350,-0.1728,0.8080,0.5502,-0.4330,
0.751224,-0.5876,0.6973,0.3987,-0.0701,-0.0350,-0.1728,0.7254,0.3894,-0.4160,
0.766933,-0.5876,0.6973,0.3987,-0.0701,-0.0350,-0.1728,0.8069,0.3638,-0.3856,
0.787034,-0.5749,0.6767,0.3235,-0.0701,-0.0350,-0.1728,0.8069,0.3638,-0.3856,
0.789388,-0.5749,0.6767,0.3235,0.1677,-0.2748,-0.6790,0.8069,0.3638,-0.3856,
0.791397,-0.5749,0.6767,0.3235,0.1677,-0.2748,-0.6790,0.8474,0.3952,-0.4171,
0.808060,-0.5749,0.6767,0.3235,0.1677,-0.2748,-0.6790,0.7558,0.2972,-0.5087,
0.826859,-0.6714,0.7144,0.3538,0.1677,-0.2748,-0.6790,0.7558,0.2972,-0.5087,
0.829075,-0.6714,0.7144,0.3538,-0.5715,0.1466,-0.1525,0.7558,0.2972,-0.5087,
0.830690,-0.6714,0.7144,0.3538,-0.5715,0.1466,-0.1525,0.7414,0.2210,-0.4911,
0.846813,-0.6714,0.7144,0.3538,-0.5715,0.1466,-0.1525,0.7723,0.1103,-0.4533,
0.867231,-0.6284,0.7051,0.2304,-0.5715,0.1466,-0.1525,0.7723,0.1103,-0.4533,
0.869302,-0.6284,0.7051,0.2304,0.0025,0.0609,-1.1060,0.7723,0.1103,-0.4533,
0.871008,-0.6284,0.7051,0.2304,0.0025,0.0609,-1.1060,0.7505,0.0953,-0.4634,
0.887220,-0.6284,0.7051,0.2304,0.0025,0.0609,-1.1060,0.5848,0.2216,-0.3281,
0.907204,-0.7959,0.7923,0.2712,0.0025,0.0609,-1.1060,0.5848,0.2216,-0.3281,
0.909532,-0.7959,0.7923,0.2712,-1.3715,0.9038,-0.1306,0.5848,0.2216,-0.3281,
0.911517,-0.7959,0.7923,0.2712,-1.3715,0.9038,-0.1306,0.5167,0.0820,-0.1939,
0.926691,-0.7959,0.7923,0.2712,-1.3715,0.9038,-0.1306,0.4027,-0.1758,-0.1342,
0.947562,-0.8030,0.8729,0.2147,-1.3715,0.9038,-0.1306,0.4027,-0.1758,-0.1342,
0.949631,-0.8030,0.8729,0.2147,-1.4010,1.6862,-0.5698,0.4027,-0.1758,-0.1342,
0.951454,-0.8030,0.8729,0.2147,-1.4010,1.6862,-0.5698,0.2131,-0.3185,-0.0069,
0.966610,-0.8030,0.8729,0.2147,-1.4010,1.6862,-0.5698,0.1060,-0.0559,0.1182,
0.986798,-0.7214,0.8846,0.2062,-1.4010,1.6862,-0.5698,0.1060,-0.0559,0.1182,
0.988690,-0.7214,0.8846,0.2062,-0.6366,1.7697,-0.6581,0.1060,-0.0559,0.1182,
0.990349,-0.7214,0.8846,0.2062,-0.6366,1.7697,-0.6581,0.1529,0.2514,0.1960,
1.007394,-0.7214,0.8846,0.2062,-0.6366,1.7697,-0.6581,0.2690,0.5673,0.1113,
1.026765,-0.5399,0.9943,0.0887,-0.6366,1.7697,-0.6581,0.2690,0.5673,0.1113,
1.029729,-0.5399,0.9943,0.0887,1.1422,2.7834,-1.6461,0.2690,0.5673,0.1113,
1.031447,-0.5399,0.9943,0.0887,1.1422,2.7834,-1.6461,0.4224,1.9521,-0.0852,
1.047233,-0.5399,0.9943,0.0887,1.1422,2.7834,-1.6461,0.6210,2.7841,0.3111,
1.067686,-0.7671,1.1360,0.1317,1.1422,2.7834,-1.6461,0.6210,2.7841,0.3111,
1.069693,-0.7671,1.1360,0.1317,-0.9142,4.0978,-0.4615,0.6210,2.7841,0.3111,
1.071648,-0.7671,1.1360,0.1317,-0.9142,4.0978,-0.4615,0.8975,1.7082,1.1542,
1.090009,-0.7671,1.1360,0.1317,-0.9142,4.0978,-0.4615,1.0376,0.5209,1.9729,
1.106168,-0.3980,0.9951,0.0982,-0.9142,4.0978,-0.4615,1.0376,0.5209,1.9729,
1.108349,-0.3980,0.9951,0.0982,2.3168,2.2601,-0.2197,1.0376,0.5209,1.9729,
1.110062,-0.3980,0.9951,0.0982,2.3168,2.2601,-0.2197,1.3417,1.4562,2.2605,
1.126703,-0.3980,0.9951,0.0982,2.3168,2.2601,-0.2197,1.0376,1.8264,2.6296,
1.146112,-0.5365,0.9218,-0.1011,2.3168,2.2601,-0.2197,1.0376,1.8264,2.6296,
1.148386,-0.5365,0.9218,-0.1011,0.2486,0.9298,-1.4202,1.0376,1.8264,2.6296,
1.149797,-0.5365,0.9218,-0.1011,0.2486,0.9298,-1.4202,0.4256,1.2565,3.1255,
1.167082,-0.5365,0.9218,-0.1011,0.2486,0.9298,-1.4202,0.2381,0.4309,3.2693,
1.186130,-0.3726,0.6709,0.2389,0.2486,0.9298,-1.4202,0.2381,0.4309,3.2693,
1.188111,-0.3726,0.6709,0.2389,0.8004,-2.1618,2.1649,0.2381,0.4309,3.2693,
1.189868,-0.3726,0.6709,0.2389,0.8004,-2.1618,2.1649,0.6716,0.2386,2.9534,
1.207890,-0.3726,0.6709,0.2389,0.8004,-2.1618,2.1649,1.2085,-0.1124,2.5987,
1.226070,-0.4979,0.5863,0.1766,0.8004,-2.1618,2.1649,1.2085,-0.1124,2.5987,
1.228008,-0.4979,0.5863,0.1766,-1.4211,-3.4289,1.9042,1.2085,-0.1124,2.5987,
1.229863,-0.4979,0.5863,0.1766,-1.4211,-3.4289,1.9042,1.4759,-0.6216,2.2429,
1.246771,-0.4979,0.5863,0.1766,-1.4211,-3.4289,1.9042,1.6091,-0.9454,1.7417,
1.266706,-0.4666,0.6679,0.0537,-1.4211,-3.4289,1.9042,1.6091,-0.9454,1.7417,
1.268990,-0.4666,0.6679,0.0537,-1.8401,-2.8499,1.1777,1.6091,-0.9454,1.7417,
1.270804,-0.4666,0.6679,0.0537,-1.8401,-2.8499,1.1777,1.4647,-0.9103,1.2533,
1.285861,-0.4666,0.6679,0.0537,-1.8401,-2.8499,1.1777,0.8687,-0.9758,1.0493,
1.306068,-0.5363,0.7034,-0.1700,-1.8401,-2.8499,1.1777,0.8687,-0.9758,1.0493,
1.308854,-0.5363,0.7034,-0.1700,-2.9239,-2.5804,-0.6709,0.8687,-0.9758,1.0493,
1.310922,-0.5363,0.7034,-0.1700,-2.9239,-2.5804,-0.6709,-0.0815,-1.2490,0.6349,
1.326322,-0.5363,0.7034,-0.1700,-2.9239,-2.5804,-0.6709,-0.6818,-1.0972,0.0794,
1.346396,-0.5101,0.7815,0.0547,-2.9239,-2.5804,-0.6709,-0.6818,-1.0972,0.0794,
1.349894,-0.5101,0.7815,0.0547,-2.7608,-1.8597,1.2810,-0.6818,-1.0972,0.0794,
1.351925,-0.5101,0.7815,0.0547,-2.7608,-1.8597,1.2810,-0.8991,-1.2693,-0.2583,
1.366187,-0.5101,0.7815,0.0547,-2.7608,-1.8597,1.2810,-1.0567,-1.4844,-0.4384,
1.386503,-0.4324,0.8001,-0.1011,-2.7608,-1.8597,1.2810,-1.0567,-1.4844,-0.4384,
1.388669,-0.4324,0.8001,-0.1011,-1.8398,-1.6648,-0.7455,-1.0567,-1.4844,-0.4384,
1.390755,-0.4324,0.8001,-0.1011,-1.8398,-1.6648,-0.7455,-1.3444,-1.3598,-0.5726,
1.406034,-0.4324,0.8001,-0.1011,-1.8398,-1.6648,-0.7455,-1.6810,-1.2698,-0.6812,
1.425993,-0.4439,0.8250,0.0037,-1.8398,-1.6648,-0.7455,-1.6810,-1.2698,-0.6812,
1.428734,-0.4439,0.8250,0.0037,-1.7065,-1.3474,-0.4191,-1.6810,-1.2698,-0.6812,
1.430683,-0.4439,0.8250,0.0037,-1.7065,-1.3474,-0.4191,-1.8003,-1.1356,-0.7968,
1.445824,-0.4439,0.8250,0.0037,-1.7065,-1.3474,-0.4191,-1.7614,-1.0290,-0.9183,
1.466210,-0.4102,0.9078,0.0129,-1.7065,-1.3474,-0.4191,-1.7614,-1.0290,-0.9183,
1.468870,-0.4102,0.9078,0.0129,-1.0596,-0.3729,-1.0892,-1.7614,-1.0290,-0.9183,
1.470736,-0.4102,0.9078,0.0129,-1.0596,-0.3729,-1.0892,-1.7071,-0.9662,-0.9896,
1.488846,-0.4102,0.9078,0.0129,-1.0596,-0.3729,-1.0892,-1.5750,-1.0589,-1.0003,
1.505963,-0.4774,0.9423,0.0752,-1.0596,-0.3729,-1.0892,-1.5750,-1.0589,-1.0003,
1.507685,-0.4774,0.9423,0.0752,-1.3691,0.1966,-1.1436,-1.5750,-1.0589,-1.0003,
1.508783,-0.4774,0.9423,0.0752,-1.3691,0.1966,-1.1436,-1.3502,-0.7063,-0.9348,
1.525925,-0.4774,0.9423,0.0752,-1.3691,0.1966,-1.1436,-1.3209,-0.5028,-0.7862,
1.546321,-0.4319,1.0053,0.0403,-1.3691,0.1966,-1.1436,-1.3209,-0.5028,-0.7862,
1.548098,-0.4319,1.0053,0.0403,-0.6504,1.0408,-1.9917,-1.3209,-0.5028,-0.7862,
1.549525,-0.4319,1.0053,0.0403,-0.6504,1.0408,-1.9917,-1.2964,-0.3084,-1.0504,
1.564970,-0.4319,1.0053,0.0403,-0.6504,1.0408,-1.9917,-0.5816,-0.2162,-1.2101,
1.585581,-0.5011,0.8812,-0.0107,-0.6504,1.0408,-1.9917,-0.5816,-0.2162,-1.2101,
1.587688,-0.5011,0.8812,-0.0107,-0.9453,0.0778,-2.7900,-0.5816,-0.2162,-1.2101,
1.589528,-0.5011,0.8812,-0.0107,-0.9453,0.0778,-2.7900,0.2866,-0.4938,-1.2181,
1.605131,-0.5011,0.8812,-0.0107,-0.9453,0.0778,-2.7900,0.7558,-0.5923,-1.5297,
1.625735,-0.4964,0.8988,0.0870,-0.9453,0.0778,-2.7900,0.7558,-0.5923,-1.5297,
1.628266,-0.4964,0.8988,0.0870,-0.4834,0.4098,-1.6848,0.7558,-0.5923,-1.5297,
1.629373,-0.4964,0.8988,0.0870,-0.4834,0.4098,-1.6848,1.2847,-0.5992,-1.7870,
1.645635,-0.4964,0.8988,0.0870,-0.4834,0.4098,-1.6848,1.5926,-0.5113,-2.0900,
1.665665,-0.6039,0.7593,-0.0950,-0.4834,0.4098,-1.6848,1.5926,-0.5113,-2.0900,
1.667772,-0.6039,0.7593,-0.0950,-0.9315,-0.7437,-3.0069,1.5926,-0.5113,-2.0900,
1.669723,-0.6039,0.7593,-0.0950,-0.9315,-0.7437,-3.0069,1.4589,-0.5965,-2.2733,
1.685967,-0.6039,0.7593,-0.0950,-0.9315,-0.7437,-3.0069,1.5100,-0.5811,-2.4070,
1.705085,-0.6479,0.7835,0.1590,-0.9315,-0.7437,-3.0069,1.5100,-0.5811,-2.4070,
1.707367,-0.6479,0.7835,0.1590,-0.6590,-0.1291,-0.1254,1.5100,-0.5811,-2.4070,
1.709320,-0.6479,0.7835,0.1590,-0.6590,-0.1291,-0.1254,1.8690,-0.2541,-2.2349,
1.724984,-0.6479,0.7835,0.1590,-0.6590,-0.1291,-0.1254,1.8024,-0.7404,-1.6245,
1.745500,-0.4940,0.5753,0.1336,-0.6590,-0.1291,-0.1254,1.8024,-0.7404,-1.6245,
1.747864,-0.4940,0.5753,0.1336,1.4096,-1.8146,0.0639,1.8024,-0.7404,-1.6245,
1.749564,-0.4940,0.5753,0.1336,1.4096,-1.8146,0.0639,1.2022,-0.3899,-1.4786,
1.764722,-0.4940,0.5753,0.1336,1.4096,-1.8146,0.0639,0.8282,0.3888,-1.4786,
1.784360,-0.5978,0.7041,0.2673,1.4096,-1.8146,0.0639,0.8282,0.3888,-1.4786,
1.785066,-0.5978,0.7041,0.2673,0.8155,-0.2212,1.6634,0.8282,0.3888,-1.4786,
1.785609,-0.5978,0.7041,0.2673,0.8155,-0.2212,1.6634,0.5854,0.4485,-1.3678,
1.805032,-0.5978,0.7041,0.2673,0.8155,-0.2212,1.6634,0.5859,0.2754,-1.0365,
1.825995,-0.6579,0.9530,0.0049,0.8155,-0.2212,1.6634,0.5859,0.2754,-1.0365,
1.828039,-0.6579,0.9530,0.0049,0.5372,2.4922,-0.6547,0.5859,0.2754,-1.0365,
1.829324,-0.6579,0.9530,0.0049,0.5372,2.4922,-0.6547,0.7547,-0.2764,-0.4985,
1.845101,-0.6579,0.9530,0.0049,0.5372,2.4922,-0.6547,0.8256,-0.4767,-0.2738,
1.864594,-0.6833,0.9423,-0.1845,0.5372,2.4922,-0.6547,0.8256,-0.4767,-0.2738,
1.866485,-0.6833,0.9423,-0.1845,0.3737,2.4641,-2.3949,0.8256,-0.4767,-0.2738,
1.868296,-0.6833,0.9423,-0.1845,0.3737,2.4641,-2.3949,0.7590,-0.1491,-0.2493,
1.886778,-0.6833,0.9423,-0.1845,0.3737,2.4641,-2.3949,0.4442,-0.0570,-0.2056,
1.905400,-0.8868,1.0449,0.0195,0.3737,2.4641,-2.3949,0.4442,-0.0570,-0.2056,
1.907439,-0.8868,1.0449,0.0195,-1.5616,3.5216,-0.2629,0.4442,-0.0570,-0.2056,
1.909337,-0.8868,1.0449,0.0195,-1.5616,3.5216,-0.2629,0.2551,-0.3095,-0.0075,
1.924609,-0.8868,1.0449,0.0195,-1.5616,3.5216,-0.2629,-0.0794,-0.2866,0.0602,
1.945016,-0.8258,0.9027,-0.0555,-1.5616,3.5216,-0.2629,-0.0794,-0.2866,0.0602,
1.946994,-0.8258,0.9027,-0.0555,-0.9758,2.1191,-1.0591,-0.0794,-0.2866,0.0602,
1.948726,-0.8258,0.9027,-0.0555,-0.9758,2.1191,-1.0591,-0.5135,-0.1822,0.1758,
1.964361,-0.8258,0.9027,-0.0555,-0.9758,2.1191,-1.0591,-0.5944,-0.1119,0.2567,
1.986332,-0.7573,0.8727,0.1307,-0.9758,2.1191,-1.0591,-0.5944,-0.1119,0.2567,
1.988058,-0.7573,0.8727,0.1307,-0.3673,1.7770,0.5743,-0.5944,-0.1119,0.2567,
1.989102,-0.7573,0.8727,0.1307,-0.3673,1.7770,0.5743,-0.4511,-0.0277,0.1965,
2.004366,-0.7573,0.8727,0.1307,-0.3673,1.7770,0.5743,-0.4751,-0.1406,0.3366,
2.024272,-0.7512,0.7806,0.0574,-0.3673,1.7770,0.5743,-0.4751,-0.1406,0.3366,
2.026321,-0.7512,0.7806,0.0574,-0.3825,0.8141,-0.2933,-0.4751,-0.1406,0.3366,
2.028237,-0.7512,0.7806,0.0574,-0.3825,0.8141,-0.2933,-0.7249,-0.1726,0.5012,
2.045099,-0.7512,0.7806,0.0574,-0.3825,0.8141,-0.2933,-0.9231,-0.0383,0.6141,
2.065571,-0.6977,0.5385,0.0247,-0.3825,0.8141,-0.2933,-0.9231,-0.0383,0.6141,
2.067590,-0.6977,0.5385,0.0247,-0.0095,-1.6770,-0.8483,-0.9231,-0.0383,0.6141,
2.069521,-0.6977,0.5385,0.0247,-0.0095,-1.6770,-0.8483,-1.0786,0.1992,0.6179,
2.084960,-0.6977,0.5385,0.0247,-0.0095,-1.6770,-0.8483,-1.0450,0.3398,0.5172,
2.104258,-0.6618,0.4693,0.1952,-0.0095,-1.6770,-0.8483,-1.0450,0.3398,0.5172,
2.105987,-0.6618,0.4693,0.1952,0.2071,-2.4472,0.6012,-1.0450,0.3398,0.5172,
2.107404,-0.6618,0.4693,0.1952,0.2071,-2.4472,0.6012,-0.7691,0.3883,0.3862,
2.123938,-0.6618,0.4693,0.1952,0.2071,-2.4472,0.6012,-0.2471,0.3547,0.2008,
2.144008,-0.6552,0.4893,0.2805,0.2071,-2.4472,0.6012,-0.2471,0.3547,0.2008,
2.145332,-0.6552,0.4893,0.2805,0.2089,-2.3017,1.3920,-0.2471,0.3547,0.2008,
2.146470,-0.6552,0.4893,0.2805,0.2089,-2.3017,1.3920,0.1561,0.2610,0.0618,
2.164505,-0.6552,0.4893,0.2805,0.2089,-2.3017,1.3920,0.2290,0.2418,-0.0538,
2.186013,-0.6054,0.6191,0.1129,0.2089,-2.3017,1.3920,0.2290,0.2418,-0.0538,
2.188070,-0.6054,0.6191,0.1129,0.7092,-1.0414,-0.1292,0.2290,0.2418,-0.0538,
2.189961,-0.6054,0.6191,0.1129,0.7092,-1.0414,-0.1292,-0.0644,0.2019,-0.1662,
2.205502,-0.6054,0.6191,0.1129,0.7092,-1.0414,-0.1292,-0.2274,0.0905,-0.3174,
2.225501,-0.6435,0.8231,0.1776,0.7092,-1.0414,-0.1292,-0.2274,0.0905,-0.3174,
2.227527,-0.6435,0.8231,0.1776,0.4093,1.0293,0.4933,-0.2274,0.0905,-0.3174,
2.229117,-0.6435,0.8231,0.1776,0.4093,1.0293,0.4933,-0.0810,-0.1364,-0.2344,
2.244146,-0.6435,0.8231,0.1776,0.4093,1.0293,0.4933,-0.0692,-0.3744,-0.1060,
2.264112,-0.6328,0.7762,0.0784,0.4093,1.0293,0.4933,-0.0692,-0.3744,-0.1060,
2.265716,-0.6328,0.7762,0.0784,0.5399,0.6101,-0.5666,-0.0692,-0.3744,-0.1060,
2.267065,-0.6328,0.7762,0.0784,0.5399,0.6101,-0.5666,-0.0975,-0.2253,-0.0399,
2.284570,-0.6328,0.7762,0.0784,0.5399,0.6101,-0.5666,-0.0964,-0.1278,0.0730,
2.306027,-0.6828,0.7126,0.0726,0.5399,0.6101,-0.5666,-0.0964,-0.1278,0.0730,
2.308863,-0.6828,0.7126,0.0726,0.0304,-0.0181,-0.6866,-0.0964,-0.1278,0.0730,
2.310924,-0.6828,0.7126,0.0726,0.0304,-0.0181,-0.6866,-0.1625,-0.0282,0.1177,
2.324744,-0.6828,0.7126,0.0726,0.0304,-0.0181,-0.6866,-0.2466,0.1726,0.0868,
2.344469,-0.7617,0.7454,0.1786,0.0304,-0.0181,-0.6866,-0.2466,0.1726,0.0868,
2.346290,-0.7617,0.7454,0.1786,-0.7669,0.2870,0.3162,-0.2466,0.1726,0.0868,
2.347676,-0.7617,0.7454,0.1786,-0.7669,0.2870,0.3162,-0.3169,0.2999,0.0836,
2.364454,-0.7617,0.7454,0.1786,-0.7669,0.2870,0.3162,-0.2818,0.2759,0.1774,
2.384199,-0.7598,0.7400,0.2494,-0.7669,0.2870,0.3162,-0.2818,0.2759,0.1774,
2.386005,-0.7598,0.7400,0.2494,-0.7654,0.2201,0.9978,-0.2818,0.2759,0.1774,
2.387025,-0.7598,0.7400,0.2494,-0.7654,0.2201,0.9978,-0.2131,0.1923,0.2226,
2.406086,-0.7598,0.7400,0.2494,-0.7654,0.2201,0.9978,-0.1438,0.0330,0.2578,
2.423668,-0.6841,0.7153,0.1244,-0.7654,0.2201,0.9978,-0.1438,0.0330,0.2578,
2.425127,-0.6841,0.7153,0.1244,0.0519,0.0642,-0.2926,-0.1438,0.0330,0.2578,
2.426116,-0.6841,0.7153,0.1244,0.0519,0.0642,-0.2926,-0.0916,0.0746,0.1566,
2.443847,-0.6841,0.7153,0.1244,0.0519,0.0642,-0.2926,-0.0735,0.1593,0.0746,
2.464383,-0.6706,0.7349,0.0760,0.0519,0.0642,-0.2926,-0.0735,0.1593,0.0746,
2.466221,-0.6706,0.7349,0.0760,0.1264,0.1391,-0.4470,-0.0735,0.1593,0.0746,
2.467984,-0.6706,0.7349,0.0760,0.1264,0.1391,-0.4470,-0.0479,0.1310,0.0506,
2.485052,-0.6706,0.7349,0.0760,0.1264,0.1391,-0.4470,-0.0778,0.2125,0.0895,
2.503710,-0.6726,0.6550,0.0960,0.1264,0.1391,-0.4470,-0.0778,0.2125,0.0895,
2.505280,-0.6726,0.6550,0.0960,0.2154,-0.5520,-0.1762,-0.0778,0.2125,0.0895,
2.507615,-0.6726,0.6550,0.0960,0.2154,-0.5520,-0.1762,-0.1779,0.1710,0.1252,
2.523519,-0.6726,0.6550,0.0960,0.2154,-0.5520,-0.1762,-0.1981,0.2194,0.1161,
2.543982,-0.6855,0.6137,0.1864,0.2154,-0.5520,-0.1762,-0.1981,0.2194,0.1161,
2.545968,-0.6855,0.6137,0.1864,0.2543,-0.7248,0.3634,-0.1981,0.2194,0.1161,
2.547767,-0.6855,0.6137,0.1864,0.2543,-0.7248,0.3634,-0.1161,0.3009,0.0730,
2.563392,-0.6855,0.6137,0.1864,0.2543,-0.7248,0.3634,-0.0234,0.2248,0.0341,
2.584447,-0.6777,0.5863,0.2213,0.2543,-0.7248,0.3634,-0.0234,0.2248,0.0341,
2.585276,-0.6777,0.5863,0.2213,0.3414,-0.9856,0.7225,-0.0234,0.2248,0.0341,
2.585959,-0.6777,0.5863,0.2213,0.3414,-0.9856,0.7225,0.1198,0.1150,-0.0208,
2.605082,-0.6777,0.5863,0.2213,0.3414,-0.9856,0.7225,0.2573,-0.0149,-0.0234,
2.623496,-0.6811,0.5450,0.2081,0.3414,-0.9856,0.7225,0.2573,-0.0149,-0.0234,
2.624969,-0.6811,0.5450,0.2081,0.3192,-1.3910,0.6521,0.2573,-0.0149,-0.0234,
2.626170,-0.6811,0.5450,0.2081,0.3192,-1.3910,0.6521,0.3723,-0.1933,0.0149,
2.643615,-0.6811,0.5450,0.2081,0.3192,-1.3910,0.6521,0.5268,-0.2067,0.0703,
2.663547,-0.7798,0.5387,0.0635,0.3192,-1.3910,0.6521,0.5268,-0.2067,0.0703,
2.665329,-0.7798,0.5387,0.0635,-0.6621,-1.4805,-0.7013,0.5268,-0.2067,0.0703,
2.666914,-0.7798,0.5387,0.0635,-0.6621,-1.4805,-0.7013,0.6631,-0.1177,0.1188,
2.686874,-0.7798,0.5387,0.0635,-0.6621,-1.4805,-0.7013,0.2530,-0.9374,0.4405,
2.703447,-0.6924,0.7571,0.1415,-0.6621,-1.4805,-0.7013,0.2530,-0.9374,0.4405,
2.704656,-0.6924,0.7571,0.1415,0.1000,0.5675,0.0394,0.2530,-0.9374,0.4405,
2.705347,-0.6924,0.7571,0.1415,0.1000,0.5675,0.0394,0.5763,-1.0546,0.2541,
2.723180,-0.6924,0.7571,0.1415,0.1000,0.5675,0.0394,0.9412,-0.9321,0.3201,
2.743347,-0.3003,0.3205,-0.0804,0.1000,0.5675,0.0394,0.9412,-0.9321,0.3201,
2.745327,-0.3003,0.3205,-0.0804,3.8081,-3.8314,-2.1957,0.9412,-0.9321,0.3201,
2.747085,-0.3003,0.3205,-0.0804,3.8081,-3.8314,-2.1957,1.3023,0.1688,0.2216,
2.763469,-0.3003,0.3205,-0.0804,3.8081,-3.8314,-2.1957,1.6070,0.2381,-0.1241,
2.783536,-0.6946,1.1013,0.3061,3.8081,-3.8314,-2.1957,1.6070,0.2381,-0.1241,
2.785553,-0.6946,1.1013,0.3061,-0.0840,3.7190,2.0343,1.6070,0.2381,-0.1241,
2.787300,-0.6946,1.1013,0.3061,-0.0840,3.7190,2.0343,1.5963,0.1044,-0.0975,
2.805575,-0.6946,1.1013,0.3061,-0.0840,3.7190,2.0343,1.4445,-0.2828,0.0511,
2.824208,-0.7095,1.0224,-0.2274,-0.0840,3.7190,2.0343,1.4445,-0.2828,0.0511,
2.826210,-0.7095,1.0224,-0.2274,-0.2293,2.9025,-2.7851,1.4445,-0.2828,0.0511,
2.828142,-0.7095,1.0224,-0.2274,-0.2293,2.9025,-2.7851,0.9934,-0.6951,0.3329,
2.843336,-0.7095,1.0224,-0.2274,-0.2293,2.9025,-2.7851,0.3803,-0.4117,0.3489,
2.863626,-0.5580,0.7398,-0.1598,-0.2293,2.9025,-2.7851,0.3803,-0.4117,0.3489,
2.865774,-0.5580,0.7398,-0.1598,1.1244,0.0049,-2.0349,0.3803,-0.4117,0.3489,
2.867503,-0.5580,0.7398,-0.1598,1.1244,0.0049,-2.0349,-0.1023,0.2743,0.3169,
2.884138,-0.5580,0.7398,-0.1598,1.1244,0.0049,-2.0349,-0.1710,0.3201,0.5183,
2.903663,-0.6266,0.8245,0.0748,1.1244,0.0049,-2.0349,-0.1710,0.3201,0.5183,
2.905536,-0.6266,0.8245,0.0748,0.3187,0.7137,0.3169,-0.1710,0.3201,0.5183,
2.907063,-0.6266,0.8245,0.0748,0.3187,0.7137,0.3169,-0.0943,0.5055,0.6408,
2.923316,-0.6266,0.8245,0.0748,0.3187,0.7137,0.3169,-0.0985,0.3366,0.9444,
2.943796,-0.6499,0.7102,0.0034,0.3187,0.7137,0.3169,-0.0985,0.3366,0.9444,
2.945503,-0.6499,0.7102,0.0034,-0.1397,-0.6076,-0.2892,-0.0985,0.3366,0.9444,
2.947535,-0.6499,0.7102,0.0034,-0.1397,-0.6076,-0.2892,-0.0032,-0.0932,1.4338,
2.963767,-0.6499,0.7102,0.0034,-0.1397,-0.6076,-0.2892,0.0575,-0.6147,1.6863,
2.983103,-0.4429,0.6860,0.1011,-0.1397,-0.6076,-0.2892,0.0575,-0.6147,1.6863,
2.987656,-0.4429,0.6860,0.1011,1.4001,-1.2178,0.5933,0.0575,-0.6147,1.6863,
2.988960,-0.4429,0.6860,0.1011,1.4001,-1.2178,0.5933,0.2764,-0.6557,1.6101,
3.003327,-0.4429,0.6860,0.1011,1.4001,-1.2178,0.5933,0.5332,-0.2466,1.5670,
3.024209,-0.5460,0.6789,-0.0213,1.4001,-1.2178,0.5933,0.5332,-0.2466,1.5670,
3.026453,-0.5460,0.6789,-0.0213,-0.1328,-1.6415,-0.5742,0.5332,-0.2466,1.5670,
3.028483,-0.5460,0.6789,-0.0213,-0.1328,-1.6415,-0.5742,0.3473,-0.3095,1.6687,
3.043232,-0.5460,0.6789,-0.0213,-0.1328,-1.6415,-0.5742,0.3318,-0.9023,1.7140,
3.063146,-0.2392,1.1678,-0.0618,-0.1328,-1.6415,-0.5742,0.3318,-0.9023,1.7140,
3.065285,-0.2392,1.1678,-0.0618,2.2727,2.7992,-0.9532,0.3318,-0.9023,1.7140,
3.067041,-0.2392,1.1678,-0.0618,2.2727,2.7992,-0.9532,0.6780,-0.5699,0.9193,
3.084131,-0.2392,1.1678,-0.0618,2.2727,2.7992,-0.9532,0.4884,-0.3159,0.2450,
3.103240,-0.4876,0.8661,-0.1781,2.2727,2.7992,-0.9532,0.4884,-0.3159,0.2450,
3.105186,-0.4876,0.8661,-0.1781,-0.3697,-0.2702,-1.9270,0.4884,-0.3159,0.2450,
3.106539,-0.4876,0.8661,-0.1781,-0.3697,-0.2702,-1.9270,0.3254,-0.4836,0.0868,
3.123852,-0.4876,0.8661,-0.1781,-0.3697,-0.2702,-1.9270,0.1587,-0.1806,-0.0549,
3.142918,-0.3569,0.8221,-0.0906,-0.3697,-0.2702,-1.9270,0.1587,-0.1806,-0.0549,
3.145193,-0.3569,0.8221,-0.0906,0.8990,-0.7082,-1.0197,0.1587,-0.1806,-0.0549,
3.146993,-0.3569,0.8221,-0.0906,0.8990,-0.7082,-1.0197,0.2157,0.0213,-0.0581,
3.162769,-0.3569,0.8221,-0.0906,0.8990,-0.7082,-1.0197,0.2365,-0.0650,-0.0916,
3.182708,-0.3943,0.8426,0.0274,0.8990,-0.7082,-1.0197,0.2365,-0.0650,-0.0916,
3.184754,-0.3943,0.8426,0.0274,0.5548,-0.4968,0.2199,0.2365,-0.0650,-0.0916,
3.186901,-0.3943,0.8426,0.0274,0.5548,-0.4968,0.2199,0.2381,-0.2354,-0.1955,
3.204420,-0.3943,0.8426,0.0274,0.5548,-0.4968,0.2199,0.4884,-0.2386,-0.1449,
3.222649,-0.3320,0.7918,-0.1974,0.5548,-0.4968,0.2199,0.4884,-0.2386,-0.1449,
3.224711,-0.3320,0.7918,-0.1974,1.2224,-0.9658,-1.8928,0.4884,-0.2386,-0.1449,
3.226529,-0.3320,0.7918,-0.1974,1.2224,-0.9658,-1.8928,0.2482,-0.0218,0.4826,
3.242741,-0.3320,0.7918,-0.1974,1.2224,-0.9658,-1.8928,0.1625,0.3270,1.3321,
3.263370,-0.3638,1.0139,-0.1823,1.2224,-0.9658,-1.8928,0.1625,0.3270,1.3321,
3.265335,-0.3638,1.0139,-0.1823,0.5752,1.0480,-1.6026,0.1625,0.3270,1.3321,
3.266991,-0.3638,1.0139,-0.1823,0.5752,1.0480,-1.6026,0.0282,-0.0836,1.6778,
3.282869,-0.3638,1.0139,-0.1823,0.5752,1.0480,-1.6026,0.1214,-0.0613,1.7753,
3.302449,-0.2621,0.9088,-0.2204,0.5752,1.0480,-1.6026,0.1214,-0.0613,1.7753,
3.304390,-0.2621,0.9088,-0.2204,0.9418,-0.2469,-1.9115,0.1214,-0.0613,1.7753,
3.306202,-0.2621,0.9088,-0.2204,0.9418,-0.2469,-1.9115,0.1161,-0.3095,1.9164,
3.323335,-0.2621,0.9088,-0.2204,0.9418,-0.2469,-1.9115,0.1912,0.3494,1.8355,
3.343963,-0.8387,0.8060,-0.1019,0.9418,-0.2469,-1.9115,0.1912,0.3494,1.8355,
3.346009,-0.8387,0.8060,-0.1019,-5.3453,-1.4718,-0.6678,0.1912,0.3494,1.8355,
3.348033,-0.8387,0.8060,-0.1019,-5.3453,-1.4718,-0.6678,0.0831,0.3169,1.4472,
3.363380,-0.8387,0.8060,-0.1019,-5.3453,-1.4718,-0.6678,-0.0218,0.0293,1.1148,
3.383788,-0.5595,0.8448,-0.2932,-5.3453,-1.4718,-0.6678,-0.0218,0.0293,1.1148,
3.386087,-0.5595,0.8448,-0.2932,-3.0435,-1.2113,-2.4845,-0.0218,0.0293,1.1148,
3.388056,-0.5595,0.8448,-0.2932,-3.0435,-1.2113,-2.4845,0.4192,0.3313,0.9033,
3.403673,-0.5595,0.8448,-0.2932,-3.0435,-1.2113,-2.4845,0.5758,0.4080,0.8916,
3.423148,-0.4437,1.1512,-0.1588,-3.0435,-1.2113,-2.4845,0.5758,0.4080,0.8916,
3.425552,-0.4437,1.1512,-0.1588,-2.2575,1.7197,-0.9450,0.5758,0.4080,0.8916,
3.427494,-0.4437,1.1512,-0.1588,-2.2575,1.7197,-0.9450,0.7372,0.3750,1.0962,
3.442976,-0.4437,1.1512,-0.1588,-2.2575,1.7197,-0.9450,0.9944,0.1481,1.1031,
3.462685,-0.1361,1.1145,-0.2604,-2.2575,1.7197,-0.9450,0.9944,0.1481,1.1031,
3.464994,-0.1361,1.1145,-0.2604,0.3280,1.3056,-1.5893,0.9944,0.1481,1.1031,
3.466656,-0.1361,1.1145,-0.2604,0.3280,1.3056,-1.5893,0.8740,-0.1539,0.9268,
3.483435,-0.1361,1.1145,-0.2604,0.3280,1.3056,-1.5893,0.4906,-0.2535,0.5129,
3.503382,0.0999,1.1653,-0.2316,0.3280,1.3056,-1.5893,0.4906,-0.2535,0.5129,
3.506232,0.0999,1.1653,-0.2316,2.3732,1.7894,-1.0567,0.4906,-0.2535,0.5129,
3.507837,0.0999,1.1653,-0.2316,2.3732,1.7894,-1.0567,0.1656,0.2461,0.1523,
3.522684,0.0999,1.1653,-0.2316,2.3732,1.7894,-1.0567,0.1140,0.4804,0.2162,
3.542755,-0.0943,1.4956,-0.0872,2.3732,1.7894,-1.0567,0.1140,0.4804,0.2162,
3.544921,-0.0943,1.4956,-0.0872,0.3808,5.0234,0.4316,0.1140,0.4804,0.2162,
3.546456,-0.0943,1.4956,-0.0872,0.3808,5.0234,0.4316,0.1987,-0.1257,0.4139,
3.563615,-0.0943,1.4956,-0.0872,0.3808,5.0234,0.4316,0.2977,-0.4618,0.7260,
3.583105,0.0169,1.2838,-0.1180,0.3808,5.0234,0.4316,0.2977,-0.4618,0.7260,
3.585524,0.0169,1.2838,-0.1180,1.2664,2.9334,0.2116,0.2977,-0.4618,0.7260,
3.587142,0.0169,1.2838,-0.1180,1.2664,2.9334,0.2116,0.2487,-0.6930,0.6397,
3.603225,0.0169,1.2838,-0.1180,1.2664,2.9334,0.2116,0.2104,-1.1169,0.3696,
3.623330,0.0484,1.3259,0.1698,1.2664,2.9334,0.2116,0.2104,-1.1169,0.3696,
3.625474,0.0484,1.3259,0.1698,1.4313,3.3374,3.0841,0.2104,-1.1169,0.3696,
3.627138,0.0484,1.3259,0.1698,1.4313,3.3374,3.0841,0.3675,-1.7534,-0.0607,
3.642984,0.0484,1.3259,0.1698,1.4313,3.3374,3.0841,0.2328,-2.8261,-0.5369,
3.663179,-0.0523,1.1436,-0.2204,1.4313,3.3374,3.0841,0.2328,-2.8261,-0.5369,
3.666002,-0.0523,1.1436,-0.2204,0.6921,1.5817,-0.7212,0.2328,-2.8261,-0.5369,
3.668024,-0.0523,1.1436,-0.2204,0.6921,1.5817,-0.7212,-0.0048,-2.9843,-0.5097,
3.682455,-0.0523,1.1436,-0.2204,0.6921,1.5817,-0.7212,-1.0013,-2.6078,-0.3601,
3.702499,-0.0599,0.7224,-0.1708,0.6921,1.5817,-0.7212,-1.0013,-2.6078,-0.3601,
3.705596,-0.0599,0.7224,-0.1708,0.8977,-2.5517,-0.5758,-1.0013,-2.6078,-0.3601,
3.707562,-0.0599,0.7224,-0.1708,0.8977,-2.5517,-0.5758,-1.7833,-2.5657,-0.1225,
3.722789,-0.0599,0.7224,-0.1708,0.8977,-2.5517,-0.5758,-1.9691,-2.1417,0.1353,
3.742079,0.3337,0.4627,0.5167,0.8977,-2.5517,-0.5758,-1.9691,-2.1417,0.1353,
3.744170,0.3337,0.4627,0.5167,4.8171,-5.1466,5.2935,-1.9691,-2.1417,0.1353,
3.745360,0.3337,0.4627,0.5167,4.8171,-5.1466,5.2935,-1.6080,-0.8128,-0.0991,
3.762563,0.3337,0.4627,0.5167,4.8171,-5.1466,5.2935,-0.4144,2.0171,0.0133,
3.782002,-0.3552,1.2257,0.0999,4.8171,-5.1466,5.2935,-0.4144,2.0171,0.0133,
3.784575,-0.3552,1.2257,0.0999,-1.9351,2.3290,0.8191,-0.4144,2.0171,0.0133,
3.786603,-0.3552,1.2257,0.0999,-1.9351,2.3290,0.8191,-0.0144,3.1963,0.6237,
3.803217,-0.3552,1.2257,0.0999,-1.9351,2.3290,0.8191,0.1220,1.7225,1.3726,
3.822938,-0.1713,0.8216,-0.2001,-1.9351,2.3290,0.8191,0.1220,1.7225,1.3726,
3.825205,-0.1713,0.8216,-0.2001,-0.5103,-1.6851,-1.9600,0.1220,1.7225,1.3726,
3.827165,-0.1713,0.8216,-0.2001,-0.5103,-1.6851,-1.9600,-0.2242,0.3244,1.5766,
3.842624,-0.1713,0.8216,-0.2001,-0.5103,-1.6851,-1.9600,-0.3910,-0.2093,1.4269,
3.862711,0.0892,0.8854,0.0530,-0.5103,-1.6851,-1.9600,-0.3910,-0.2093,1.4269,
3.865717,0.0892,0.8854,0.0530,1.4560,-1.1121,0.4039,-0.3910,-0.2093,1.4269,
3.867494,0.0892,0.8854,0.0530,1.4560,-1.1121,0.4039,-0.2194,-0.1587,0.8149,
3.882328,0.1204,0.9139,0.1695,1.4560,-1.1121,0.4039,-0.2194,-0.1587,0.8149,
3.884409,0.1204,0.9139,0.1695,1.6008,-0.8396,1.5009,-0.2194,-0.1587,0.8149,
3.886021,0.1204,0.9139,0.1695,1.6008,-0.8396,1.5009,-0.0154,0.0288,0.2216,
3.902249,0.0796,0.9552,0.0645,1.6008,-0.8396,1.5009,-0.0154,0.0288,0.2216,
3.905136,0.0796,0.9552,0.0645,1.1577,-0.4367,0.4686,-0.0154,0.0288,0.2216,
3.906756,0.0796,0.9552,0.0645,1.1577,-0.4367,0.4686,0.1800,-0.3318,-0.2423,
3.922434,0.0149,0.9858,-0.1527,1.1577,-0.4367,0.4686,0.1800,-0.3318,-0.2423,
3.924609,0.0149,0.9858,-0.1527,0.5697,-0.1360,-1.6273,0.1800,-0.3318,-0.2423,
3.926469,0.0149,0.9858,-0.1527,0.5697,-0.1360,-1.6273,-0.0043,-0.3329,-0.5449,
3.943341,0.0247,1.0307,-0.0515,0.5697,-0.1360,-1.6273,-0.0043,-0.3329,-0.5449,
3.945894,0.0247,1.0307,-0.0515,0.7710,0.3097,-0.6401,-0.0043,-0.3329,-0.5449,
3.947519,0.0247,1.0307,-0.0515,0.7710,0.3097,-0.6401,-0.2306,-0.4879,-0.6786,
3.963823,0.1170,0.9692,0.0388,0.7710,0.3097,-0.6401,-0.2306,-0.4879,-0.6786,
3.965990,0.1170,0.9692,0.0388,1.8072,-0.2848,0.1949,-0.2306,-0.4879,-0.6786,
3.968045,0.1170,0.9692,0.0388,1.8072,-0.2848,0.1949,-0.1806,-0.9188,-0.8448,
3.982506,0.1287,0.9396,-0.0381,1.8072,-0.2848,0.1949,-0.1806,-0.9188,-0.8448,
3.984811,0.1287,0.9396,-0.0381,2.0831,-0.5613,-0.6081,-0.1806,-0.9188,-0.8448,
3.986647,0.1287,0.9396,-0.0381,2.0831,-0.5613,-0.6081,-0.1289,-1.0530,-1.0903,
4.002711,-0.0689,0.8526,-0.1192,2.0831,-0.5613,-0.6081,-0.1289,-1.0530,-1.0903,
4.004985,-0.0689,0.8526,-0.1192,0.3532,-1.3928,-1.4475,-0.1289,-1.0530,-1.0903,
4.006812,-0.0689,0.8526,-0.1192,0.3532,-1.3928,-1.4475,-0.2679,-1.1116,-1.1649,
4.022571,-0.0305,0.6762,-0.2138,0.3532,-1.3928,-1.4475,-0.2679,-1.1116,-1.1649,
4.024936,-0.0305,0.6762,-0.2138,0.9483,-3.0933,-2.4514,-0.2679,-1.1116,-1.1649,
4.026727,-0.0305,0.6762,-0.2138,0.9483,-3.0933,-2.4514,-0.7089,-1.1345,-0.9523,
4.042873,0.0024,0.6946,-0.0452,0.9483,-3.0933,-2.4514,-0.7089,-1.1345,-0.9523,
4.045240,0.0024,0.6946,-0.0452,1.4460,-2.8821,-0.9669,-0.7089,-1.1345,-0.9523,
4.047069,0.0024,0.6946,-0.0452,1.4460,-2.8821,-0.9669,-0.9497,-1.0807,-0.9406,
4.061608,-0.0032,0.7156,-0.0103,1.4460,-2.8821,-0.9669,-0.9497,-1.0807,-0.9406,
4.063831,-0.0032,0.7156,-0.0103,1.5591,-2.6359,-0.8406,-0.9497,-1.0807,-0.9406,
4.065576,-0.0032,0.7156,-0.0103,1.5591,-2.6359,-0.8406,-1.0397,-0.9049,-1.0072,
4.082533,-0.0247,0.6811,0.0076,1.5591,-2.6359,-0.8406,-1.0397,-0.9049,-1.0072,
4.084792,-0.0247,0.6811,0.0076,1.5264,-2.9220,-0.8959,-1.0397,-0.9049,-1.0072,
4.086532,-0.0247,0.6811,0.0076,1.5264,-2.9220,-0.8959,-1.2192,-0.6860,-1.0866,
4.102682,-0.0428,0.7478,0.0816,1.5264,-2.9220,-0.8959,-1.2192,-0.6860,-1.0866,
4.105433,-0.0428,0.7478,0.0816,1.5416,-2.2012,-0.4287,-1.2192,-0.6860,-1.0866,
4.107451,-0.0428,0.7478,0.0816,1.5416,-2.2012,-0.4287,-1.3492,-0.2344,-1.1755,
4.121974,-0.0953,0.8255,0.1510,1.5416,-2.2012,-0.4287,-1.3492,-0.2344,-1.1755,
4.124226,-0.0953,0.8255,0.1510,1.2431,-1.3546,-0.0138,-1.3492,-0.2344,-1.1755,
4.126028,-0.0953,0.8255,0.1510,1.2431,-1.3546,-0.0138,-1.3982,0.2658,-1.2868,
4.142359,-0.2954,0.9161,0.2316,1.2431,-1.3546,-0.0138,-1.3982,0.2658,-1.2868,
4.144833,-0.2954,0.9161,0.2316,-0.4680,-0.3621,0.5264,-1.3982,0.2658,-1.2868,
4.146658,-0.2954,0.9161,0.2316,-0.4680,-0.3621,0.5264,-1.2996,0.8714,-1.3140,
4.162060,-0.5287,1.0024,0.3166,-0.4680,-0.3621,0.5264,-1.2996,0.8714,-1.3140,
4.164243,-0.5287,1.0024,0.3166,-2.4790,0.5980,1.1634,-1.2996,0.8714,-1.3140,
4.165955,-0.5287,1.0024,0.3166,-2.4790,0.5980,1.1634,-1.2256,0.9737,-0.9406,
4.182165,-0.6345,1.0114,0.3564,-2.4790,0.5980,1.1634,-1.2256,0.9737,-0.9406,
4.184237,-0.6345,1.0114,0.3564,-3.3041,0.7889,1.3838,-1.2256,0.9737,-0.9406,
4.185936,-0.6345,1.0114,0.3564,-3.3041,0.7889,1.3838,-1.0956,0.9971,-0.3382,
4.201712,-0.5597,1.0075,0.4532,-3.3041,0.7889,1.3838,-1.0956,0.9971,-0.3382,
4.203584,-0.5597,1.0075,0.4532,-2.4666,0.8183,2.1919,-1.0956,0.9971,-0.3382,
4.204983,-0.5597,1.0075,0.4532,-2.4666,0.8183,2.1919,-0.9529,0.5875,0.2296,
4.222410,-0.5629,1.0789,0.4424,-2.4666,0.8183,2.1919,-0.9529,0.5875,0.2296,
4.224559,-0.5629,1.0789,0.4424,-2.5119,1.5477,1.9500,-0.9529,0.5875,0.2296,
4.225870,-0.5629,1.0789,0.4424,-2.5119,1.5477,1.9500,-0.6653,0.1651,0.5848,
4.241664,-0.4776,1.1429,0.3308,-2.5119,1.5477,1.9500,-0.6653,0.1651,0.5848,
4.244022,-0.4776,1.1429,0.3308,-1.7735,2.1729,0.7459,-0.6653,0.1651,0.5848,
4.245550,-0.4776,1.1429,0.3308,-1.7735,2.1729,0.7459,-0.3787,0.0879,0.6253,
4.262273,-0.4642,1.2782,0.2187,-1.7735,2.1729,0.7459,-0.3787,0.0879,0.6253,
4.264514,-0.4642,1.2782,0.2187,-1.7503,3.4828,-0.4164,-0.3787,0.0879,0.6253,
4.266307,-0.4642,1.2782,0.2187,-1.7503,3.4828,-0.4164,-0.0863,0.1699,0.4602,
4.282138,-0.5548,1.4272,0.1195,-1.7503,3.4828,-0.4164,-0.0863,0.1699,0.4602,
4.284388,-0.5548,1.4272,0.1195,-2.7131,4.9223,-1.3947,-0.0863,0.1699,0.4602,
4.286210,-0.5548,1.4272,0.1195,-2.7131,4.9223,-1.3947,0.1007,-0.1166,0.4368,
4.302062,-0.6103,1.6053,0.0254,-2.7131,4.9223,-1.3947,0.1007,-0.1166,0.4368,
4.304850,-0.6103,1.6053,0.0254,-3.3416,6.6391,-2.3045,0.1007,-0.1166,0.4368,
4.306590,-0.6103,1.6053,0.0254,-3.3416,6.6391,-2.3045,0.0186,-0.7920,0.6125,
4.322318,-0.5719,1.6630,0.0472,-3.3416,6.6391,-2.3045,0.0186,-0.7920,0.6125,
4.324641,-0.5719,1.6630,0.0472,-3.1178,7.1719,-2.1285,0.0186,-0.7920,0.6125,
4.326446,-0.5719,1.6630,0.0472,-3.1178,7.1719,-2.1285,-0.1236,-1.1239,0.7931,
4.341680,-0.4261,1.5467,0.1109,-3.1178,7.1719,-2.1285,-0.1236,-1.1239,0.7931,
4.343940,-0.4261,1.5467,0.1109,-1.8924,6.0009,-1.5798,-0.1236,-1.1239,0.7931,
4.345763,-0.4261,1.5467,0.1109,-1.8924,6.0009,-1.5798,-0.1204,-1.0168,0.9076,
4.362163,-0.2690,1.1692,0.1327,-1.8924,6.0009,-1.5798,-0.1204,-1.0168,0.9076,
4.364615,-0.2690,1.1692,0.1327,-0.5739,2.2690,-1.4328,-0.1204,-1.0168,0.9076,
4.366511,-0.2690,1.1692,0.1327,-0.5739,2.2690,-1.4328,-0.0485,-0.6716,0.8405,
4.381703,-0.2956,1.1903,0.2482,-0.5739,2.2690,-1.4328,-0.0485,-0.6716,0.8405,
4.384445,-0.2956,1.1903,0.2482,-1.0261,2.4446,-0.3356,-0.0485,-0.6716,0.8405,
4.386251,-0.2956,1.1903,0.2482,-1.0261,2.4446,-0.3356,0.0618,-0.5172,0.8128,
4.402125,-0.2521,1.3241,0.3584,-1.0261,2.4446,-0.3356,0.0618,-0.5172,0.8128,
4.404565,-0.2521,1.3241,0.3584,-0.7784,3.7243,0.7371,0.0618,-0.5172,0.8128,
4.406330,-0.2521,1.3241,0.3584,-0.7784,3.7243,0.7371,0.3611,-0.6290,0.7894,
4.421971,-0.1544,1.1824,0.3994,-0.7784,3.7243,0.7371,0.3611,-0.6290,0.7894,
4.424171,-0.1544,1.1824,0.3994,-0.0017,2.2905,1.1862,0.3611,-0.6290,0.7894,
4.425899,-0.1544,1.1824,0.3994,-0.0017,2.2905,1.1862,0.5811,-0.8906,0.7191,
4.441950,-0.0638,1.0009,0.3870,-0.0017,2.2905,1.1862,0.5811,-0.8906,0.7191,
4.444324,-0.0638,1.0009,0.3870,0.7050,0.4601,1.1469,0.5811,-0.8906,0.7191,
4.445968,-0.0638,1.0009,0.3870,0.7050,0.4601,1.1469,0.7707,-1.1121,0.6637,
4.461685,0.0359,0.8543,0.3433,0.7050,0.4601,1.1469,0.7707,-1.1121,0.6637,
4.463700,0.0359,0.8543,0.3433,1.5002,-1.0327,0.8351,0.7707,-1.1121,0.6637,
4.465416,0.0359,0.8543,0.3433,1.5002,-1.0327,0.8351,0.7824,-1.1500,0.5950,
4.481902,0.0894,0.8006,0.3266,1.5002,-1.0327,0.8351,0.7824,-1.1500,0.5950,
4.484028,0.0894,0.8006,0.3266,1.8557,-1.6106,0.7954,0.7824,-1.1500,0.5950,
4.485703,0.0894,0.8006,0.3266,1.8557,-1.6106,0.7954,0.5843,-1.2528,0.5720,
4.501409,0.1534,0.8685,0.3296,1.8557,-1.6106,0.7954,0.5843,-1.2528,0.5720,
4.503628,0.1534,0.8685,0.3296,2.3157,-0.9828,0.9122,0.5843,-1.2528,0.5720,
4.505361,0.1534,0.8685,0.3296,2.3157,-0.9828,0.9122,0.2296,-1.2490,0.5902,
4.521510,0.2714,0.9003,0.3838,2.3157,-0.9828,0.9122,0.2296,-1.2490,0.5902,
4.523611,0.2714,0.9003,0.3838,3.3028,-0.6907,1.4691,0.2296,-1.2490,0.5902,
4.525332,0.2714,0.9003,0.3838,3.3028,-0.6907,1.4691,-0.2258,-1.0317,0.6535,
4.541495,0.4280,0.8294,0.4788,3.3028,-0.6907,1.4691,-0.2258,-1.0317,0.6535,
4.543562,0.4280,0.8294,0.4788,4.6653,-1.3818,2.3460,-0.2258,-1.0317,0.6535,
4.545304,0.4280,0.8294,0.4788,4.6653,-1.3818,2.3460,-0.3894,-0.2977,0.5268,
4.561869,0.4671,0.7823,0.4967,4.6653,-1.3818,2.3460,-0.3894,-0.2977,0.5268,
4.563841,0.4671,0.7823,0.4967,4.9335,-1.8296,2.4439,-0.3894,-0.2977,0.5268,
4.565564,0.4671,0.7823,0.4967,4.9335,-1.8296,2.4439,-0.2892,0.2210,0.1971,
4.581544,0.4082,0.8226,0.4547,4.9335,-1.8296,2.4439,-0.2892,0.2210,0.1971,
4.583815,0.4082,0.8226,0.4547,4.3299,-1.4217,1.9788,-0.2892,0.2210,0.1971,
4.585417,0.4082,0.8226,0.4547,4.3299,-1.4217,1.9788,-0.0900,0.2743,-0.1752,
4.600900,0.1957,0.9037,0.4053,4.3299,-1.4217,1.9788,-0.0900,0.2743,-0.1752,
4.602982,0.1957,0.9037,0.4053,2.2937,-0.6212,1.4800,-0.0900,0.2743,-0.1752,
4.604691,0.1957,0.9037,0.4053,2.2937,-0.6212,1.4800,0.1055,0.2519,-0.3356,
4.622010,0.0858,0.9203,0.3183,2.2937,-0.6212,1.4800,0.1055,0.2519,-0.3356,
4.624315,0.0858,0.9203,0.3183,1.2924,-0.4608,0.6498,0.1055,0.2519,-0.3356,
4.626014,0.0858,0.9203,0.3183,1.2924,-0.4608,0.6498,0.2988,0.4288,-0.3015,
4.641694,0.0059,0.8978,0.2604,1.2924,-0.4608,0.6498,0.2988,0.4288,-0.3015,
4.643883,0.0059,0.8978,0.2604,0.5874,-0.6927,0.1431,0.2988,0.4288,-0.3015,
4.645612,0.0059,0.8978,0.2604,0.5874,-0.6927,0.1431,0.5768,0.9124,-0.2061,
4.661014,-0.0823,0.9413,0.2546,0.5874,-0.6927,0.1431,0.5768,0.9124,-0.2061,
4.663227,-0.0823,0.9413,0.2546,-0.1950,-0.2912,0.2055,0.5768,0.9124,-0.2061,
4.665257,-0.0823,0.9413,0.2546,-0.1950,-0.2912,0.2055,1.0796,1.8030,-0.1848,
4.681249,-0.0166,1.0036,0.2033,-0.1950,-0.2912,0.2055,1.0796,1.8030,-0.1848,
4.683403,-0.0166,1.0036,0.2033,0.5626,0.2749,-0.0674,1.0796,1.8030,-0.1848,
4.685058,-0.0166,1.0036,0.2033,0.5626,0.2749,-0.0674,1.7204,2.5966,-0.5135,
4.701651,-0.2074,1.0935,0.2111,0.5626,0.2749,-0.0674,1.7204,2.5966,-0.5135,
4.704084,-0.2074,1.0935,0.2111,-1.1119,1.1001,0.3811,1.7204,2.5966,-0.5135,
4.705849,-0.2074,1.0935,0.2111,-1.1119,1.1001,0.3811,2.3777,2.5529,-1.1095,
4.721856,-0.3567,1.0070,0.1180,-1.1119,1.1001,0.3811,2.3777,2.5529,-1.1095,
4.724099,-0.3567,1.0070,0.1180,-2.2884,0.2081,-0.0195,2.3777,2.5529,-1.1095,
4.725854,-0.3567,1.0070,0.1180,-2.2884,0.2081,-0.0195,2.7431,1.7151,-1.2650,
4.741822,-0.3950,0.8590,0.0188,-2.2884,0.2081,-0.0195,2.7431,1.7151,-1.2650,
4.744130,-0.3950,0.8590,0.0188,-2.3898,-1.2574,-0.4162,2.7431,1.7151,-1.2650,
4.746087,-0.3950,0.8590,0.0188,-2.3898,-1.2574,-0.4162,2.7782,0.7270,-1.0786,
4.761084,-0.3000,0.7427,-0.0647,-2.3898,-1.2574,-0.4162,2.7782,0.7270,-1.0786,
4.763012,-0.3000,0.7427,-0.0647,-1.2453,-2.3806,-0.6751,2.7782,0.7270,-1.0786,
4.764710,-0.3000,0.7427,-0.0647,-1.2453,-2.3806,-0.6751,2.5614,0.0746,-0.6578,
4.780765,-0.1715,0.7036,-0.1241,-1.2453,-2.3806,-0.6751,2.5614,0.0746,-0.6578,
4.782776,-0.1715,0.7036,-0.1241,0.1403,-2.7300,-0.7613,2.5614,0.0746,-0.6578,
4.784337,-0.1715,0.7036,-0.1241,0.1403,-2.7300,-0.7613,2.1854,-0.1001,-0.2083,
4.803153,-0.0525,0.6594,-0.2389,0.1403,-2.7300,-0.7613,2.1854,-0.1001,-0.2083,
4.805324,-0.0525,0.6594,-0.2389,1.3476,-3.1268,-1.4706,2.1854,-0.1001,-0.2083,
4.806702,-0.0525,0.6594,-0.2389,1.3476,-3.1268,-1.4706,1.8195,0.2780,0.0778,
4.820391,0.0694,0.6186,-0.3125,1.3476,-3.1268,-1.4706,1.8195,0.2780,0.0778,
4.822619,0.0694,0.6186,-0.3125,2.5216,-3.4914,-1.8334,1.8195,0.2780,0.0778,
4.824528,0.0694,0.6186,-0.3125,2.5216,-3.4914,-1.8334,1.3156,0.8037,0.1188,
4.840483,0.1273,0.6130,-0.2976,2.5216,-3.4914,-1.8334,1.3156,0.8037,0.1188,
4.842715,0.1273,0.6130,-0.2976,3.0444,-3.5147,-1.4073,1.3156,0.8037,0.1188,
4.844585,0.1273,0.6130,-0.2976,3.0444,-3.5147,-1.4073,0.8740,0.8815,0.0224,
4.860649,0.1368,0.5753,-0.3865,3.0444,-3.5147,-1.4073,0.8740,0.8815,0.0224,
4.862961,0.1368,0.5753,-0.3865,3.1053,-3.8562,-2.0816,0.8740,0.8815,0.0224,
4.864850,0.1368,0.5753,-0.3865,3.1053,-3.8562,-2.0816,0.3973,0.8970,-0.1758,
4.880604,0.0601,0.5624,-0.3095,3.1053,-3.8562,-2.0816,0.3973,0.8970,-0.1758,
4.882820,0.0601,0.5624,-0.3095,2.3553,-3.9629,-1.2205,0.3973,0.8970,-0.1758,
4.884749,0.0601,0.5624,-0.3095,2.3553,-3.9629,-1.2205,0.0383,0.8181,-0.3127,
4.900434,-0.0342,0.6183,-0.2177,2.3553,-3.9629,-1.2205,0.0383,0.8181,-0.3127,
4.902818,-0.0342,0.6183,-0.2177,1.4603,-3.4021,-0.2839,0.0383,0.8181,-0.3127,
4.904628,-0.0342,0.6183,-0.2177,1.4603,-3.4021,-0.2839,-0.0905,0.6471,-0.3217,
4.921203,-0.0682,0.6806,-0.2387,1.4603,-3.4021,-0.2839,-0.0905,0.6471,-0.3217,
4.923224,-0.0682,0.6806,-0.2387,1.1643,-2.7833,-0.4835,-0.0905,0.6471,-0.3217,
4.924697,-0.0682,0.6806,-0.2387,1.1643,-2.7833,-0.4835,-0.1257,0.5401,-0.2445,
4.940512,-0.1107,0.7271,-0.2450,1.1643,-2.7833,-0.4835,-0.1257,0.5401,-0.2445,
4.943192,-0.1107,0.7271,-0.2450,0.7739,-2.3240,-0.5496,-0.1257,0.5401,-0.2445,
4.944789,-0.1107,0.7271,-0.2450,0.7739,-2.3240,-0.5496,-0.1944,0.6328,-0.1960,
4.960577,-0.1867,0.7950,-0.2617,0.7739,-2.3240,-0.5496,-0.1944,0.6328,-0.1960,
4.962700,-0.1867,0.7950,-0.2617,0.0430,-1.6583,-0.7255,-0.1944,0.6328,-0.1960,
4.964661,-0.1867,0.7950,-0.2617,0.0430,-1.6583,-0.7255,-0.2423,0.7553,-0.1731,
4.980109,-0.2707,0.8732,-0.3161,0.0430,-1.6583,-0.7255,-0.2423,0.7553,-0.1731,
4.981666,-0.2707,0.8732,-0.3161,-0.7756,-0.8946,-1.2768,-0.2423,0.7553,-0.1731,
4.982950,-0.2707,0.8732,-0.3161,-0.7756,-0.8946,-1.2768,-0.1976,0.8618,-0.1380,
5.000777,-0.3105,0.9298,-0.4075,-0.7756,-0.8946,-1.2768,-0.1976,0.8618,-0.1380,
5.004503,-0.3105,0.9298,-0.4075,-1.1711,-0.3411,-2.1773,-0.1976,0.8618,-0.1380,
5.006236,-0.3105,0.9298,-0.4075,-1.1711,-0.3411,-2.1773,-0.0762,0.8884,-0.0634,
5.020568,-0.3352,0.9960,-0.5018,-1.1711,-0.3411,-2.1773,-0.0762,0.8884,-0.0634,
5.024778,-0.3352,0.9960,-0.5018,-1.4333,0.3073,-3.0828,-0.0762,0.8884,-0.0634,
5.027837,-0.3352,0.9960,-0.5018,-1.4333,0.3073,-3.0828,-0.1039,0.7611,-0.0447,
5.040579,-0.3469,1.0776,-0.5331,-1.4333,0.3073,-3.0828,-0.1039,0.7611,-0.0447,
5.043024,-0.3469,1.0776,-0.5331,-1.5678,1.1048,-3.3809,-0.1039,0.7611,-0.0447,
5.044971,-0.3469,1.0776,-0.5331,-1.5678,1.1048,-3.3809,-0.3196,0.7526,-0.0368,
5.060938,-0.3865,1.2594,-0.5157,-1.5678,1.1048,-3.3809,-0.3196,0.7526,-0.0368,
5.063094,-0.3865,1.2594,-0.5157,-1.9761,2.8758,-3.2439,-0.3196,0.7526,-0.0368,
5.064972,-0.3865,1.2594,-0.5157,-1.9761,2.8758,-3.2439,-0.5896,0.8293,-0.1427,
5.080584,-0.4310,1.4954,-0.3218,-1.9761,2.8758,-3.2439,-0.5896,0.8293,-0.1427,
5.081924,-0.4310,1.4954,-0.3218,-2.4142,5.1729,-1.4246,-0.5896,0.8293,-0.1427,
5.082881,-0.4310,1.4954,-0.3218,-2.4142,5.1729,-1.4246,-0.7180,0.7175,-0.3073,
5.101329,-0.4507,1.9435,-0.1327,-2.4142,5.1729,-1.4246,-0.7180,0.7175,-0.3073,
5.103637,-0.4507,1.9435,-0.1327,-2.5739,9.5511,0.3187,-0.7180,0.7175,-0.3073,
5.105273,-0.4507,1.9435,-0.1327,-2.5739,9.5511,0.3187,-0.5209,0.0144,-0.4107,
5.121229,-0.3535,1.7568,-0.4871,-2.5739,9.5511,0.3187,-0.5209,0.0144,-0.4107,
5.123200,-0.3535,1.7568,-0.4871,-1.5435,7.7210,-3.2536,-0.5209,0.0144,-0.4107,
5.125134,-0.3535,1.7568,-0.4871,-1.5435,7.7210,-3.2536,-0.7468,-0.2722,-0.4959,
5.140875,0.0799,0.7456,-0.2761,-1.5435,7.7210,-3.2536,-0.7468,-0.2722,-0.4959,
5.143036,0.0799,0.7456,-0.2761,2.8057,-2.1906,-1.3372,-0.7468,-0.2722,-0.4959,
5.144948,0.0799,0.7456,-0.2761,2.8057,-2.1906,-1.3372,-1.0099,-0.0378,0.1001,
5.160803,0.1908,0.5568,-0.0401,2.8057,-2.1906,-1.3372,-1.0099,-0.0378,0.1001,
5.162814,0.1908,0.5568,-0.0401,3.8746,-4.0710,0.7820,-1.0099,-0.0378,0.1001,
5.164675,0.1908,0.5568,-0.0401,3.8746,-4.0710,0.7820,-0.5864,-0.4682,0.4320,
5.180776,0.1270,0.8578,0.0244,3.8746,-4.0710,0.7820,-0.5864,-0.4682,0.4320,
5.182911,0.1270,0.8578,0.0244,3.1778,-1.1513,1.2840,-0.5864,-0.4682,0.4320,
5.184689,0.1270,0.8578,0.0244,3.1778,-1.1513,1.2840,-0.1678,-1.6043,0.4980,
5.201208,0.0657,1.1964,-0.0557,3.1778,-1.1513,1.2840,-0.1678,-1.6043,0.4980,
5.203550,0.0657,1.1964,-0.0557,2.5136,2.1447,0.4057,-0.1678,-1.6043,0.4980,
5.205229,0.0657,1.1964,-0.0557,2.5136,2.1447,0.4057,-0.0362,-2.3585,0.4272,
5.221679,0.0362,1.2892,-0.0706,2.5136,2.1447,0.4057,-0.0362,-2.3585,0.4272,
5.223735,0.0362,1.2892,-0.0706,2.1847,3.0381,0.1656,-0.0362,-2.3585,0.4272,
5.225316,0.0362,1.2892,-0.0706,2.1847,3.0381,0.1656,-0.2003,-2.9742,0.6285,
5.241592,0.0750,1.2330,-0.0967,2.1847,3.0381,0.1656,-0.2003,-2.9742,0.6285,
5.243759,0.0750,1.2330,-0.0967,2.4913,2.4618,-0.2357,-0.2003,-2.9742,0.6285,
5.245462,0.0750,1.2330,-0.0967,2.4913,2.4618,-0.2357,-0.4197,-3.1532,1.0189,
5.261218,0.1818,1.1204,-0.1165,2.4913,2.4618,-0.2357,-0.4197,-3.1532,1.0189,
5.263432,0.1818,1.1204,-0.1165,3.3805,1.3187,-0.6159,-0.4197,-3.1532,1.0189,
5.265162,0.1818,1.1204,-0.1165,3.3805,1.3187,-0.6159,-0.8197,-2.8538,1.2235,
5.280684,0.2482,1.0114,-0.0811,3.3805,1.3187,-0.6159,-0.8197,-2.8538,1.2235,
5.282831,0.2482,1.0114,-0.0811,3.8180,0.2078,-0.5126,-0.8197,-2.8538,1.2235,
5.284620,0.2482,1.0114,-0.0811,3.8180,0.2078,-0.5126,-1.3172,-2.2946,1.2298,
5.300535,0.2956,0.9362,-0.0086,3.8180,0.2078,-0.5126,-1.3172,-2.2946,1.2298,
5.302511,0.2956,0.9362,-0.0086,4.0496,-0.5640,-0.1152,-1.3172,-2.2946,1.2298,
5.304104,0.2956,0.9362,-0.0086,4.0496,-0.5640,-0.1152,-1.7545,-1.8397,1.2053,
5.320475,0.3064,0.8409,0.0498,4.0496,-0.5640,-0.1152,-1.7545,-1.8397,1.2053,
5.322554,0.3064,0.8409,0.0498,3.9120,-1.5149,0.0773,-1.7545,-1.8397,1.2053,
5.324413,0.3064,0.8409,0.0498,3.9120,-1.5149,0.0773,-2.1865,-1.5265,1.0173,
5.340498,0.3139,0.8292,0.1390,3.9120,-1.5149,0.0773,-2.1865,-1.5265,1.0173,
5.342516,0.3139,0.8292,0.1390,3.7688,-1.6183,0.5013,-2.1865,-1.5265,1.0173,
5.344336,0.3139,0.8292,0.1390,3.7688,-1.6183,0.5013,-2.4858,-1.1036,0.7361,
5.360789,0.3149,0.8324,0.1693,3.7688,-1.6183,0.5013,-2.4858,-1.1036,0.7361,
5.363075,0.3149,0.8324,0.1693,3.6109,-1.5410,0.3017,-2.4858,-1.1036,0.7361,
5.364856,0.3149,0.8324,0.1693,3.6109,-1.5410,0.3017,-2.6664,-0.4826,0.2296,
5.380508,0.3017,0.8319,0.2333,3.6109,-1.5410,0.3017,-2.6664,-0.4826,0.2296,
5.381880,0.3017,0.8319,0.2333,3.4218,-1.4620,0.4104,-2.6664,-0.4826,0.2296,
5.382811,0.3017,0.8319,0.2333,3.4218,-1.4620,0.4104,-2.8538,0.0021,-0.2913,
5.400570,0.2463,0.8407,0.3420,3.4218,-1.4620,0.4104,-2.8538,0.0021,-0.2913,
5.402454,0.2463,0.8407,0.3420,2.9340,-1.2504,0.9309,-2.8538,0.0021,-0.2913,
5.403878,0.2463,0.8407,0.3420,2.9340,-1.2504,0.9309,-2.9071,0.7798,-0.8597,
5.421245,0.0708,0.8028,0.5299,2.9340,-1.2504,0.9309,-2.9071,0.7798,-0.8597,
5.423519,0.0708,0.8028,0.5299,1.4182,-1.4548,2.2361,-2.9071,0.7798,-0.8597,
5.425229,0.0708,0.8028,0.5299,1.4182,-1.4548,2.2361,-2.6264,2.0133,-1.3662,
5.440361,-0.1881,0.7302,0.6779,1.4182,-1.4548,2.2361,-2.6264,2.0133,-1.3662,
5.442458,-0.1881,0.7302,0.6779,-0.7397,-1.9739,3.2394,-2.6264,2.0133,-1.3662,
5.444463,-0.1881,0.7302,0.6779,-0.7397,-1.9739,3.2394,-2.0075,2.9811,-1.6325,
5.460097,-0.4112,0.7503,0.6428,-0.7397,-1.9739,3.2394,-2.0075,2.9811,-1.6325,
5.461395,-0.4112,0.7503,0.6428,-2.4202,-1.5914,2.6132,-2.0075,2.9811,-1.6325,
5.462521,-0.4112,0.7503,0.6428,-2.4202,-1.5914,2.6132,-1.3044,3.1985,-1.6474,
5.480214,-0.7351,0.6990,0.5758,-2.4202,-1.5914,2.6132,-1.3044,3.1985,-1.6474,
5.482457,-0.7351,0.6990,0.5758,-5.0638,-1.9349,1.8460,-1.3044,3.1985,-1.6474,
5.484443,-0.7351,0.6990,0.5758,-5.0638,-1.9349,1.8460,-0.6631,2.6813,-1.1089,
5.500701,-0.6926,0.6210,0.4456,-5.0638,-1.9349,1.8460,-0.6631,2.6813,-1.1089,
5.502964,-0.6926,0.6210,0.4456,-4.2509,-2.5967,0.5794,-0.6631,2.6813,-1.1089,
5.504872,-0.6926,0.6210,0.4456,-4.2509,-2.5967,0.5794,-0.2610,1.8003,-0.3297,
5.521631,-0.4351,0.5311,0.2827,-4.2509,-2.5967,0.5794,-0.2610,1.8003,-0.3297,
5.523935,-0.4351,0.5311,0.2827,-1.5349,-3.4408,-0.9680,-0.2610,1.8003,-0.3297,
5.525865,-0.4351,0.5311,0.2827,-1.5349,-3.4408,-0.9680,0.0474,0.9204,0.1582,
5.540242,-0.2336,0.4710,0.1881,-1.5349,-3.4408,-0.9680,0.0474,0.9204,0.1582,
5.542555,-0.2336,0.4710,0.1881,0.4811,-4.0419,-1.8359,0.0474,0.9204,0.1582,
5.544472,-0.2336,0.4710,0.1881,0.4811,-4.0419,-1.8359,0.2503,0.3031,0.1965,
5.560208,-0.1791,0.5084,0.2191,0.4811,-4.0419,-1.8359,0.2503,0.3031,0.1965,
5.562231,-0.1791,0.5084,0.2191,1.0030,-3.7047,-1.4716,0.2503,0.3031,0.1965,
5.564126,-0.1791,0.5084,0.2191,1.0030,-3.7047,-1.4716,0.4447,-0.0655,-0.0394,
5.580726,-0.1962,0.5780,0.2301,1.0030,-3.7047,-1.4716,0.4447,-0.0655,-0.0394,
5.583130,-0.1962,0.5780,0.2301,0.8376,-3.0520,-1.2903,0.4447,-0.0655,-0.0394,
5.585086,-0.1962,0.5780,0.2301,0.8376,-3.0520,-1.2903,0.6551,-0.4266,-0.2376,
5.600965,-0.1915,0.6489,0.2267,0.8376,-3.0520,-1.2903,0.6551,-0.4266,-0.2376,
5.603190,-0.1915,0.6489,0.2267,0.8947,-2.3904,-1.2330,0.6551,-0.4266,-0.2376,
5.605187,-0.1915,0.6489,0.2267,0.8947,-2.3904,-1.2330,0.7468,-0.8133,-0.3419,
5.619994,-0.1744,0.7178,0.2047,0.8947,-2.3904,-1.2330,0.7468,-0.8133,-0.3419,
5.622232,-0.1744,0.7178,0.2047,1.0667,-1.7471,-1.3629,0.7468,-0.8133,-0.3419,
5.624196,-0.1744,0.7178,0.2047,1.0667,-1.7471,-1.3629,0.7217,-1.1239,-0.3302,
5.640148,-0.1520,0.7977,0.2218,1.0667,-1.7471,-1.3629,0.7217,-1.1239,-0.3302,
5.642391,-0.1520,0.7977,0.2218,1.2701,-0.9941,-1.1306,0.7217,-1.1239,-0.3302,
5.645327,-0.1520,0.7977,0.2218,1.2701,-0.9941,-1.1306,0.6360,-1.2272,-0.2344,
5.660374,-0.1278,0.8805,0.2218,1.2701,-0.9941,-1.1306,0.6360,-1.2272,-0.2344,
5.661590,-0.1278,0.8805,0.2218,1.4680,-0.2113,-1.0857,0.6360,-1.2272,-0.2344,
5.662307,-0.1278,0.8805,0.2218,1.4680,-0.2113,-1.0857,0.5902,-1.1707,-0.0927,
5.680876,-0.1400,0.9589,0.2030,1.4680,-0.2113,-1.0857,0.5902,-1.1707,-0.0927,
5.683395,-0.1400,0.9589,0.2030,1.2889,0.5240,-1.2285,0.5902,-1.1707,-0.0927,
5.685154,-0.1400,0.9589,0.2030,1.2889,0.5240,-1.2285,0.4847,-0.9220,0.0463,
5.704238,-0.1661,1.0105,0.1549,1.2889,0.5240,-1.2285,0.4847,-0.9220,0.0463,
5.706258,-0.1661,1.0105,0.1549,0.9657,0.9958,-1.6625,0.4847,-0.9220,0.0463,
5.708077,-0.1661,1.0105,0.1549,0.9657,0.9958,-1.6625,0.2748,-0.3883,0.1411,
5.721314,-0.2472,1.0444,0.1615,0.9657,0.9958,-1.6625,0.2748,-0.3883,0.1411,
5.723636,-0.2472,1.0444,0.1615,0.1210,1.3039,-1.5688,0.2748,-0.3883,0.1411,
5.725346,-0.2472,1.0444,0.1615,0.1210,1.3039,-1.5688,-0.0080,0.0293,0.1534,
5.740909,-0.3731,1.1197,0.2204,0.1210,1.3039,-1.5688,-0.0080,0.0293,0.1534,
5.742700,-0.3731,1.1197,0.2204,-1.1375,2.0341,-0.9917,-0.0080,0.0293,0.1534,
5.744224,-0.3731,1.1197,0.2204,-1.1375,2.0341,-0.9917,-0.1417,0.0623,0.1449,
5.760439,-0.5126,1.2704,0.2443,-1.1375,2.0341,-0.9917,-0.1417,0.0623,0.1449,
5.762379,-0.5126,1.2704,0.2443,-2.5265,3.5130,-0.7793,-0.1417,0.0623,0.1449,
5.764379,-0.5126,1.2704,0.2443,-2.5265,3.5130,-0.7793,-0.0666,-0.0964,0.1289,
5.779783,-0.6711,1.4785,0.3232,-2.5265,3.5130,-0.7793,-0.0666,-0.0964,0.1289,
5.781714,-0.6711,1.4785,0.3232,-4.1095,5.5507,-0.0226,-0.0666,-0.0964,0.1289,
5.783173,-0.6711,1.4785,0.3232,-4.1095,5.5507,-0.0226,-0.0479,-0.1912,0.1497,
5.799822,-0.8008,1.6979,0.4129,-4.1095,5.5507,-0.0226,-0.0479,-0.1912,0.1497,
5.801672,-0.8008,1.6979,0.4129,-5.4198,7.6965,0.8381,-0.0479,-0.1912,0.1497,
5.803020,-0.8008,1.6979,0.4129,-5.4198,7.6965,0.8381,0.2248,-0.3361,0.3180,
5.819557,-0.7038,1.7434,0.3665,-5.4198,7.6965,0.8381,0.2248,-0.3361,0.3180,
5.821544,-0.7038,1.7434,0.3665,-4.5477,8.1122,0.4074,0.2248,-0.3361,0.3180,
5.823339,-0.7038,1.7434,0.3665,-4.5477,8.1122,0.4074,0.5832,-0.5593,0.5886,
5.839184,-0.4676,1.5873,0.3093,-4.5477,8.1122,0.4074,0.5832,-0.5593,0.5886,
5.841354,-0.4676,1.5873,0.3093,-2.3733,6.5190,-0.0734,0.5832,-0.5593,0.5886,
5.843113,-0.4676,1.5873,0.3093,-2.3733,6.5190,-0.0734,0.7830,-0.4762,0.6051,
5.859576,-0.4092,1.4072,0.2470,-2.3733,6.5190,-0.0734,0.7830,-0.4762,0.6051,
5.861750,-0.4092,1.4072,0.2470,-1.9398,4.6809,-0.5623,0.7830,-0.4762,0.6051,
5.863581,-0.4092,1.4072,0.2470,-1.9398,4.6809,-0.5623,0.9209,-0.2487,0.5683,
5.880039,-0.2856,1.2159,0.2304,-1.9398,4.6809,-0.5623,0.9209,-0.2487,0.5683,
5.882672,-0.2856,1.2159,0.2304,-0.8465,2.7301,-0.5670,0.9209,-0.2487,0.5683,
5.884653,-0.2856,1.2159,0.2304,-0.8465,2.7301,-0.5670,0.9081,-0.2280,0.6099,
5.898852,-0.1583,1.0718,0.3669,-0.8465,2.7301,-0.5670,0.9081,-0.2280,0.6099,
5.899807,-0.1583,1.0718,0.3669,0.2761,1.2447,0.9299,0.9081,-0.2280,0.6099,
5.900308,-0.1583,1.0718,0.3669,0.2761,1.2447,0.9299,0.8517,-0.3622,0.5486,
5.919457,-0.0330,0.9452,0.4429,0.2761,1.2447,0.9299,0.8517,-0.3622,0.5486,
5.920210,-0.0330,0.9452,0.4429,1.3838,-0.0589,1.8197,0.8517,-0.3622,0.5486,
5.920795,-0.0330,0.9452,0.4429,1.3838,-0.0589,1.8197,0.8964,-0.5726,0.4293,
5.939866,0.1182,0.8648,0.4366,1.3838,-0.0589,1.8197,0.8964,-0.5726,0.4293,
5.941277,0.1182,0.8648,0.4366,2.7576,-0.9046,1.9060,0.8964,-0.5726,0.4293,
5.942436,0.1182,0.8648,0.4366,2.7576,-0.9046,1.9060,0.8629,-0.8890,0.3254,
5.959391,0.2370,0.9074,0.4935,2.7576,-0.9046,1.9060,0.8629,-0.8890,0.3254,
5.961017,0.2370,0.9074,0.4935,3.8192,-0.5378,2.5984,0.8629,-0.8890,0.3254,
5.962330,0.2370,0.9074,0.4935,3.8192,-0.5378,2.5984,0.7414,-0.8213,0.2450,
5.980136,0.2858,0.9135,0.4630,3.8192,-0.5378,2.5984,0.7414,-0.8213,0.2450,
5.982433,0.2858,0.9135,0.4630,4.2161,-0.5173,2.4151,0.7414,-0.8213,0.2450,
5.984248,0.2858,0.9135,0.4630,4.2161,-0.5173,2.4151,0.4740,-0.2796,0.2216,
6.000992,0.2890,0.9020,0.3662,4.2161,-0.5173,2.4151,0.4740,-0.2796,0.2216,
6.003223,0.2890,0.9020,0.3662,4.1936,-0.6557,1.5491,0.4740,-0.2796,0.2216,
6.005042,0.2890,0.9020,0.3662,4.1936,-0.6557,1.5491,0.0170,0.4298,0.2589,
6.020506,0.2670,0.8402,0.2961,4.1936,-0.6557,1.5491,0.0170,0.4298,0.2589,
6.024367,0.2670,0.8402,0.2961,3.9169,-1.2693,0.8586,0.0170,0.4298,0.2589,
6.026117,0.2670,0.8402,0.2961,3.9169,-1.2693,0.8586,-0.4772,0.5795,0.2248,
6.039642,0.2336,0.8189,0.3110,3.9169,-1.2693,0.8586,-0.4772,0.5795,0.2248,
6.042506,0.2336,0.8189,0.3110,3.5704,-1.4635,0.9291,-0.4772,0.5795,0.2248,
6.044304,0.2336,0.8189,0.3110,3.5704,-1.4635,0.9291,-0.8607,0.3766,0.0506,
6.059548,0.1490,0.8128,0.4119,3.5704,-1.4635,0.9291,-0.8607,0.3766,0.0506,
6.063083,0.1490,0.8128,0.4119,2.7185,-1.4869,1.7477,-0.8607,0.3766,0.0506,
6.065556,0.1490,0.8128,0.4119,2.7185,-1.4869,1.7477,-0.9518,0.1848,-0.1433,
6.079658,0.0601,0.8187,0.4253,2.7185,-1.4869,1.7477,-0.9518,0.1848,-0.1433,
6.082027,0.0601,0.8187,0.4253,1.8827,-1.3807,1.7049,-0.9518,0.1848,-0.1433,
6.083589,0.0601,0.8187,0.4253,1.8827,-1.3807,1.7049,-0.7558,0.0948,-0.2131,
6.099489,-0.0066,0.9003,0.4214,1.8827,-1.3807,1.7049,-0.7558,0.0948,-0.2131,
6.101634,-0.0066,0.9003,0.4214,1.2738,-0.5371,1.5274,-0.7558,0.0948,-0.2131,
6.103444,-0.0066,0.9003,0.4214,1.2738,-0.5371,1.5274,-0.4602,0.2328,-0.1348,
6.120726,-0.1131,0.9157,0.3191,1.2738,-0.5371,1.5274,-0.4602,0.2328,-0.1348,
6.122824,-0.1131,0.9157,0.3191,0.2674,-0.3584,0.4447,-0.4602,0.2328,-0.1348,
6.124588,-0.1131,0.9157,0.3191,0.2674,-0.3584,0.4447,0.1081,1.1223,0.0282,
6.140099,-0.1737,0.9201,0.3049,0.2674,-0.3584,0.4447,0.1081,1.1223,0.0282,
6.143800,-0.1737,0.9201,0.3049,-0.2721,-0.3218,0.3575,0.1081,1.1223,0.0282,
6.145536,-0.1737,0.9201,0.3049,-0.2721,-0.3218,0.3575,0.7728,2.4038,0.1475,
6.159624,-0.2641,1.0031,0.2541,-0.2721,-0.3218,0.3575,0.7728,2.4038,0.1475,
6.161709,-0.2641,1.0031,0.2541,-1.0644,0.4489,0.0747,0.7728,2.4038,0.1475,
6.163478,-0.2641,1.0031,0.2541,-1.0644,0.4489,0.0747,1.3726,2.2839,0.0357,
6.179650,-0.3015,0.9731,0.2169,-1.0644,0.4489,0.0747,1.3726,2.2839,0.0357,
6.181824,-0.3015,0.9731,0.2169,-1.3347,0.0916,0.0408,1.3726,2.2839,0.0357,
6.183193,-0.3015,0.9731,0.2169,-1.3347,0.0916,0.0408,1.8386,1.7289,-0.2780,
6.199653,-0.3880,0.9064,0.1559,-1.3347,0.0916,0.0408,1.8386,1.7289,-0.2780,
6.201925,-0.3880,0.9064,0.1559,-2.0648,-0.6218,-0.1521,1.8386,1.7289,-0.2780,
6.203972,-0.3880,0.9064,0.1559,-2.0648,-0.6218,-0.1521,2.1513,0.9374,-0.4858,
6.220375,-0.3105,0.7823,0.1351,-2.0648,-0.6218,-0.1521,2.1513,0.9374,-0.4858,
6.222636,-0.3105,0.7823,0.1351,-1.1860,-1.8833,0.0877,2.1513,0.9374,-0.4858,
6.224578,-0.3105,0.7823,0.1351,-1.1860,-1.8833,0.0877,2.2727,0.4708,-0.3702,
6.239748,-0.2091,0.6418,0.0911,-1.1860,-1.8833,0.0877,2.2727,0.4708,-0.3702,
6.241984,-0.2091,0.6418,0.0911,-0.1122,-3.2918,0.1085,2.2727,0.4708,-0.3702,
6.243877,-0.2091,0.6418,0.0911,-0.1122,-3.2918,0.1085,2.3068,0.2519,-0.1928,
6.259810,-0.1583,0.5646,0.0298,-0.1122,-3.2918,0.1085,2.3068,0.2519,-0.1928,
6.261998,-0.1583,0.5646,0.0298,0.4255,-4.0665,-0.0411,2.3068,0.2519,-0.1928,
6.263971,-0.1583,0.5646,0.0298,0.4255,-4.0665,-0.0411,2.3260,0.1108,0.0304,
6.278976,-0.0669,0.5011,-0.1493,0.4255,-4.0665,-0.0411,2.3260,0.1108,0.0304,
6.281027,-0.0669,0.5011,-0.1493,1.3153,-4.6952,-1.3452,2.3260,0.1108,0.0304,
6.282871,-0.0669,0.5011,-0.1493,1.3153,-4.6952,-1.3452,2.1923,-0.1518,0.2945,
6.298963,0.0909,0.4918,-0.4581,1.3153,-4.6952,-1.3452,2.1923,-0.1518,0.2945,
6.301770,0.0909,0.4918,-0.4581,2.8065,-4.7834,-3.9571,2.1923,-0.1518,0.2945,
6.303704,0.0909,0.4918,-0.4581,2.8065,-4.7834,-3.9571,1.6453,-0.2498,0.3814,
6.318960,0.2311,0.5287,-0.7571,2.8065,-4.7834,-3.9571,1.6453,-0.2498,0.3814,
6.322002,0.2311,0.5287,-0.7571,4.1111,-4.4137,-6.5818,1.6453,-0.2498,0.3814,
6.324224,0.2311,0.5287,-0.7571,4.1111,-4.4137,-6.5818,0.6141,-0.0144,0.1017,
6.338648,0.0454,0.5983,-0.3506,4.1111,-4.4137,-6.5818,0.6141,-0.0144,0.1017,
6.340996,0.0454,0.5983,-0.3506,2.2723,-3.7241,-2.4806,0.6141,-0.0144,0.1017,
6.342808,0.0454,0.5983,-0.3506,2.2723,-3.7241,-2.4806,-0.3031,0.4469,-0.1662,
6.359351,-0.0594,0.6904,-0.1063,2.2723,-3.7241,-2.4806,-0.3031,0.4469,-0.1662,
6.361638,-0.0594,0.6904,-0.1063,1.2687,-2.8211,-0.1280,-0.3031,0.4469,-0.1662,
6.363470,-0.0594,0.6904,-0.1063,1.2687,-2.8211,-0.1280,-0.4863,0.4959,-0.1651,
6.379387,-0.1309,0.7806,-0.0916,1.2687,-2.8211,-0.1280,-0.4863,0.4959,-0.1651,
6.381593,-0.1309,0.7806,-0.0916,0.5901,-1.9400,-0.0590,-0.4863,0.4959,-0.1651,
6.383423,-0.1309,0.7806,-0.0916,0.5901,-1.9400,-0.0590,-0.4549,0.3851,-0.1806,
6.399034,-0.2064,0.8592,-0.1842,0.5901,-1.9400,-0.0590,-0.4549,0.3851,-0.1806,
6.401331,-0.2064,0.8592,-0.1842,-0.1213,-1.1695,-1.0390,-0.4549,0.3851,-0.1806,
6.403362,-0.2064,0.8592,-0.1842,-0.1213,-1.1695,-1.0390,-0.5177,0.4352,-0.2471,
6.418929,-0.2917,0.9535,-0.1950,-0.1213,-1.1695,-1.0390,-0.5177,0.4352,-0.2471,
6.421192,-0.2917,0.9535,-0.1950,-0.9159,-0.2434,-1.2267,-0.5177,0.4352,-0.2471,
6.423113,-0.2917,0.9535,-0.1950,-0.9159,-0.2434,-1.2267,-0.6663,0.6440,-0.2019,
6.438451,-0.3476,1.1099,-0.2731,-0.9159,-0.2434,-1.2267,-0.6663,0.6440,-0.2019,
6.440890,-0.3476,1.1099,-0.2731,-1.4336,1.2884,-2.0953,-0.6663,0.6440,-0.2019,
6.442717,-0.3476,1.1099,-0.2731,-1.4336,1.2884,-2.0953,-0.5673,1.0663,-0.0735,
6.458884,-0.4476,1.1387,-0.3398,-1.4336,1.2884,-2.0953,-0.5673,1.0663,-0.0735,
6.461037,-0.4476,1.1387,-0.3398,-2.4105,1.5676,-2.8155,-0.5673,1.0663,-0.0735,
6.462458,-0.4476,1.1387,-0.3398,-2.4105,1.5676,-2.8155,-0.4943,1.0940,-0.1193,
6.479595,-0.3792,1.2159,-0.3330,-2.4105,1.5676,-2.8155,-0.4943,1.0940,-0.1193,
6.481973,-0.3792,1.2159,-0.3330,-1.7279,2.3241,-2.7998,-0.4943,1.0940,-0.1193,
6.483908,-0.3792,1.2159,-0.3330,-1.7279,2.3241,-2.7998,-0.3649,0.8133,-0.0575,
6.498698,-0.4053,1.3598,-0.3980,-1.7279,2.3241,-2.7998,-0.3649,0.8133,-0.0575,
6.501117,-0.4053,1.3598,-0.3980,-1.9803,3.7333,-3.4742,-0.3649,0.8133,-0.0575,
6.502900,-0.4053,1.3598,-0.3980,-1.9803,3.7333,-3.4742,-0.3366,0.6679,-0.1523,
6.518937,-0.4683,1.4280,-0.3442,-1.9803,3.7333,-3.4742,-0.3366,0.6679,-0.1523,
6.521534,-0.4683,1.4280,-0.3442,-2.5742,4.4046,-2.9853,-0.3366,0.6679,-0.1523,
6.523419,-0.4683,1.4280,-0.3442,-2.5742,4.4046,-2.9853,-0.6780,0.7175,-0.3089,
6.539339,-0.4708,1.6066,-0.1275,-2.5742,4.4046,-2.9853,-0.6780,0.7175,-0.3089,
6.541710,-0.4708,1.6066,-0.1275,-2.5439,6.1628,-0.9621,-0.6780,0.7175,-0.3089,
6.543592,-0.4708,1.6066,-0.1275,-2.5439,6.1628,-0.9621,-0.9183,0.5396,-0.4501,
6.558314,-0.4209,1.7280,-0.1891,-2.5439,6.1628,-0.9621,-0.9183,0.5396,-0.4501,
6.560603,-0.4209,1.7280,-0.1891,-1.9718,7.3678,-1.7182,-0.9183,0.5396,-0.4501,
6.562428,-0.4209,1.7280,-0.1891,-1.9718,7.3678,-1.7182,-1.0509,0.0794,-0.4730,
6.579231,-0.0843,1.0556,-0.0366,-1.9718,7.3678,-1.7182,-1.0509,0.0794,-0.4730,
6.581562,-0.0843,1.0556,-0.0366,1.4176,0.7990,-0.4211,-1.0509,0.0794,-0.4730,
6.583380,-0.0843,1.0556,-0.0366,1.4176,0.7990,-0.4211,-1.3177,0.2248,-0.1609,
6.598814,0.2692,0.7806,0.1393,1.4176,0.7990,-0.4211,-1.3177,0.2248,-0.1609,
6.599870,0.2692,0.7806,0.1393,4.9134,-1.8848,1.0619,-1.3177,0.2248,-0.1609,
6.600611,0.2692,0.7806,0.1393,4.9134,-1.8848,1.0619,-0.7595,-0.0756,0.2439,
6.618398,0.3420,1.0004,0.1493,4.9134,-1.8848,1.0619,-0.7595,-0.0756,0.2439,
6.620424,0.3420,1.0004,0.1493,5.5799,0.2647,1.0121,-0.7595,-0.0756,0.2439,
6.622042,0.3420,1.0004,0.1493,5.5799,0.2647,1.0121,-0.3755,-1.6299,0.1182,
6.638220,0.3518,1.2450,0.0657,5.5799,0.2647,1.0121,-0.3755,-1.6299,0.1182,
6.640111,0.3518,1.2450,0.0657,5.6362,2.6600,0.0502,-0.3755,-1.6299,0.1182,
6.641714,0.3518,1.2450,0.0657,5.6362,2.6600,0.0502,-0.4948,-3.0557,-0.3254,
6.657930,0.3188,1.3237,0.1156,5.6362,2.6600,0.0502,-0.4948,-3.0557,-0.3254,
6.660073,0.3188,1.3237,0.1156,5.3317,3.4522,0.3104,-0.4948,-3.0557,-0.3254,
6.661670,0.3188,1.3237,0.1156,5.3317,3.4522,0.3104,-0.8389,-2.7159,-0.9603,
6.677622,0.3501,1.1653,0.2768,5.3317,3.4522,0.3104,-0.8389,-2.7159,-0.9603,
6.679541,0.3501,1.1653,0.2768,5.7679,1.9604,1.6086,-0.8389,-2.7159,-0.9603,
6.681118,0.3501,1.1653,0.2768,5.7679,1.9604,1.6086,-1.1920,-1.9244,-1.3161,
6.697642,0.2482,0.9872,0.4867,5.7679,1.9604,1.6086,-1.1920,-1.9244,-1.3161,
6.699581,0.2482,0.9872,0.4867,4.9685,0.3093,3.3472,-1.1920,-1.9244,-1.3161,
6.701082,0.2482,0.9872,0.4867,4.9685,0.3093,3.3472,-1.2325,-0.6392,-1.6506,
6.717809,-0.0137,0.8929,0.6667,4.9685,0.3093,3.3472,-1.2325,-0.6392,-1.6506,
6.720117,-0.0137,0.8929,0.6667,2.6886,-0.4884,4.8487,-1.2325,-0.6392,-1.6506,
6.721922,-0.0137,0.8929,0.6667,2.6886,-0.4884,4.8487,-1.0418,0.1886,-1.6283,
6.738562,-0.2893,0.8477,0.7266,2.6886,-0.4884,4.8487,-1.0418,0.1886,-1.6283,
6.740584,-0.2893,0.8477,0.7266,0.2927,-0.7978,5.2557,-1.0418,0.1886,-1.6283,
6.742259,-0.2893,0.8477,0.7266,0.2927,-0.7978,5.2557,-0.6967,0.4645,-1.3742,
6.758769,-0.5907,0.8546,0.8626,0.2927,-0.7978,5.2557,-0.6967,0.4645,-1.3742,
6.761057,-0.5907,0.8546,0.8626,-2.3959,-0.6147,6.4937,-0.6967,0.4645,-1.3742,
6.762844,-0.5907,0.8546,0.8626,-2.3959,-0.6147,6.4937,0.0123,0.4533,-0.8756,
6.778678,-0.6924,0.8932,0.7437,-2.3959,-0.6147,6.4937,0.0123,0.4533,-0.8756,
6.780943,-0.6924,0.8932,0.7437,-3.2177,-0.1761,5.3614,0.0123,0.4533,-0.8756,
6.782765,-0.6924,0.8932,0.7437,-3.2177,-0.1761,5.3614,0.8778,0.9864,-0.1832,
6.798137,-0.4669,0.8272,0.4424,-3.2177,-0.1761,5.3614,0.8778,0.9864,-0.1832,
6.800585,-0.4669,0.8272,0.4424,-0.9394,-0.8411,2.6372,0.8778,0.9864,-0.1832,
6.802361,-0.4669,0.8272,0.4424,-0.9394,-0.8411,2.6372,1.3284,1.4557,0.2147,
6.818324,-0.3154,0.7649,0.2255,-0.9394,-0.8411,2.6372,1.3284,1.4557,0.2147,
6.820794,-0.3154,0.7649,0.2255,0.5509,-1.5077,0.8549,1.3284,1.4557,0.2147,
6.822498,-0.3154,0.7649,0.2255,0.5509,-1.5077,0.8549,1.3252,1.3966,0.1795,
6.838755,-0.2018,0.7251,0.0782,0.5509,-1.5077,0.8549,1.3252,1.3966,0.1795,
6.840805,-0.2018,0.7251,0.0782,1.6649,-1.9424,-0.2481,1.3252,1.3966,0.1795,
6.842715,-0.2018,0.7251,0.0782,1.6649,-1.9424,-0.2481,1.0258,0.7446,-0.2280,
6.857876,-0.3283,0.7346,-0.1038,1.6649,-1.9424,-0.2481,1.0258,0.7446,-0.2280,
6.860218,-0.3283,0.7346,-0.1038,0.4792,-1.8507,-1.7919,1.0258,0.7446,-0.2280,
6.862161,-0.3283,0.7346,-0.1038,0.4792,-1.8507,-1.7919,0.4911,0.2296,-0.6333,
6.878261,-0.4928,0.6904,-0.2257,0.4792,-1.8507,-1.7919,0.4911,0.2296,-0.6333,
6.880798,-0.4928,0.6904,-0.2257,-1.0147,-2.2436,-2.8809,0.4911,0.2296,-0.6333,
6.882750,-0.4928,0.6904,-0.2257,-1.0147,-2.2436,-2.8809,-0.2248,0.0165,-0.6083,
6.898775,-0.4505,0.6508,-0.2822,-1.0147,-2.2436,-2.8809,-0.2248,0.0165,-0.6083,
6.900503,-0.4505,0.6508,-0.2822,-0.4910,-2.5813,-3.4731,-0.2248,0.0165,-0.6083,
6.901287,-0.4505,0.6508,-0.2822,-0.4910,-2.5813,-3.4731,-0.9539,0.2818,-0.3169,
6.917285,-0.2832,0.6323,-0.2233,-0.4910,-2.5813,-3.4731,-0.9539,0.2818,-0.3169,
6.919128,-0.2832,0.6323,-0.2233,1.2100,-2.7234,-3.0440,-0.9539,0.2818,-0.3169,
6.920911,-0.2832,0.6323,-0.2233,1.2100,-2.7234,-3.0440,-1.5782,0.4224,-0.1896,
6.937560,-0.2355,0.6499,-0.0559,1.2100,-2.7234,-3.0440,-1.5782,0.4224,-0.1896,
6.938410,-0.2355,0.6499,-0.0559,1.7188,-2.5049,-1.6508,-1.5782,0.4224,-0.1896,
6.939096,-0.2355,0.6499,-0.0559,1.7188,-2.5049,-1.6508,-1.9196,0.4112,-0.1726,
6.957703,-0.2260,0.6579,0.0943,1.7188,-2.5049,-1.6508,-1.9196,0.4112,-0.1726,
6.959469,-0.2260,0.6579,0.0943,1.8530,-2.3639,-0.4840,-1.9196,0.4112,-0.1726,
6.961236,-0.2260,0.6579,0.0943,1.8530,-2.3639,-0.4840,-1.7705,0.4996,-0.1337,
6.977843,-0.2182,0.6484,0.1688,1.8530,-2.3639,-0.4840,-1.7705,0.4996,-0.1337,
6.980068,-0.2182,0.6484,0.1688,1.9684,-2.3917,-0.0236,-1.7705,0.4996,-0.1337,
6.981829,-0.2182,0.6484,0.1688,1.9684,-2.3917,-0.0236,-1.2655,0.4645,-0.0644,
6.997697,-0.1593,0.6714,0.2812,1.9684,-2.3917,-0.0236,-1.2655,0.4645,-0.0644,
7.000099,-0.1593,0.6714,0.2812,2.5731,-2.1167,0.8957,-1.2655,0.4645,-0.0644,
7.001973,-0.1593,0.6714,0.2812,2.5731,-2.1167,0.8957,-0.5806,0.2216,-0.1561,
7.019007,-0.2875,0.7034,0.3696,2.5731,-2.1167,0.8957,-0.5806,0.2216,-0.1561,
7.020907,-0.2875,0.7034,0.3696,1.3516,-1.7680,1.6800,-0.5806,0.2216,-0.1561,
7.022247,-0.2875,0.7034,0.3696,1.3516,-1.7680,1.6800,0.2338,-0.0426,-0.3457,
7.038231,-0.3237,0.6650,0.2624,1.3516,-1.7680,1.6800,0.2338,-0.0426,-0.3457,
7.040399,-0.3237,0.6650,0.2624,1.0553,-2.1240,0.6658,0.2338,-0.0426,-0.3457,
7.042084,-0.3237,0.6650,0.2624,1.0553,-2.1240,0.6658,0.7659,-0.0352,-0.3643,
7.057600,-0.3481,0.6574,0.2035,1.0553,-2.1240,0.6658,0.7659,-0.0352,-0.3643,
7.059829,-0.3481,0.6574,0.2035,0.8775,-2.1953,0.2181,0.7659,-0.0352,-0.3643,
7.061527,-0.3481,0.6574,0.2035,0.8775,-2.1953,0.2181,0.9518,-0.0969,-0.3563,
7.077838,-0.4119,0.6755,0.0948,0.8775,-2.1953,0.2181,0.9518,-0.0969,-0.3563,
7.080013,-0.4119,0.6755,0.0948,0.3108,-2.0197,-0.6916,0.9518,-0.0969,-0.3563,
7.081807,-0.4119,0.6755,0.0948,0.3108,-2.0197,-0.6916,0.9028,-0.1848,-0.3031,
7.097990,-0.4507,0.7368,0.0303,0.3108,-2.0197,-0.6916,0.9028,-0.1848,-0.3031,
7.100283,-0.4507,0.7368,0.0303,-0.0234,-1.4203,-1.1841,0.9028,-0.1848,-0.3031,
7.102143,-0.4507,0.7368,0.0303,-0.0234,-1.4203,-1.1841,0.5987,-0.3521,-0.2248,
7.117381,-0.5152,0.8346,-0.0159,-0.0234,-1.4203,-1.1841,0.5987,-0.3521,-0.2248,
7.119760,-0.5152,0.8346,-0.0159,-0.6268,-0.4601,-1.5642,0.5987,-0.3521,-0.2248,
7.121682,-0.5152,0.8346,-0.0159,-0.6268,-0.4601,-1.5642,0.2141,-0.3270,-0.1049,
7.138084,-0.5414,0.9306,-0.0105,-0.6268,-0.4601,-1.5642,0.2141,-0.3270,-0.1049,
7.140621,-0.5414,0.9306,-0.0105,-0.8740,0.4841,-1.5036,0.2141,-0.3270,-0.1049,
7.142428,-0.5414,0.9306,-0.0105,-0.8740,0.4841,-1.5036,-0.1087,-0.2951,-0.0309,
7.157726,-0.6135,1.0263,0.0403,-0.8740,0.4841,-1.5036,-0.1087,-0.2951,-0.0309,
7.159988,-0.6135,1.0263,0.0403,-1.5834,1.4284,-1.0504,-0.1087,-0.2951,-0.0309,
7.161786,-0.6135,1.0263,0.0403,-1.5834,1.4284,-1.0504,-0.2397,-0.2711,0.0250,
7.177750,-0.6941,1.1434,0.1009,-1.5834,1.4284,-1.0504,-0.2397,-0.2711,0.0250,
7.180212,-0.6941,1.1434,0.1009,-2.3858,2.5801,-0.5219,-0.2397,-0.2711,0.0250,
7.181963,-0.6941,1.1434,0.1009,-2.3858,2.5801,-0.5219,-0.1065,-0.2546,0.0490,
7.197366,-0.7749,1.2870,0.0909,-2.3858,2.5801,-0.5219,-0.1065,-0.2546,0.0490,
7.199638,-0.7749,1.2870,0.0909,-3.1945,3.9869,-0.6608,-0.1065,-0.2546,0.0490,
7.201435,-0.7749,1.2870,0.0909,-3.1945,3.9869,-0.6608,0.0687,-0.3212,0.0730,
7.217701,-0.8226,1.3649,0.0770,-3.1945,3.9869,-0.6608,0.0687,-0.3212,0.0730,
7.220058,-0.8226,1.3649,0.0770,-3.6839,4.7421,-0.8136,0.0687,-0.3212,0.0730,
7.221906,-0.8226,1.3649,0.0770,-3.6839,4.7421,-0.8136,0.1923,-0.3563,0.0895,
7.238081,-0.8065,1.3886,0.1532,-3.6839,4.7421,-0.8136,0.1923,-0.3563,0.0895,
7.240383,-0.8065,1.3886,0.1532,-3.5525,4.9605,-0.0645,0.1923,-0.3563,0.0895,
7.242224,-0.8065,1.3886,0.1532,-3.5525,4.9605,-0.0645,0.2961,-0.4591,0.1166,
7.257826,-0.7141,1.3615,0.2631,-3.5525,4.9605,-0.0645,0.2961,-0.4591,0.1166,
7.260296,-0.7141,1.3615,0.2631,-2.6820,4.6754,1.0244,0.2961,-0.4591,0.1166,
7.262095,-0.7141,1.3615,0.2631,-2.6820,4.6754,1.0244,0.4868,-0.5854,0.1779,
7.277809,-0.5661,1.3298,0.2443,-2.6820,4.6754,1.0244,0.4868,-0.5854,0.1779,
7.279971,-0.5661,1.3298,0.2443,-1.2799,4.3340,0.8742,0.4868,-0.5854,0.1779,
7.281674,-0.5661,1.3298,0.2443,-1.2799,4.3340,0.8742,0.5971,-0.4224,0.2637,
7.297816,-0.4808,1.3109,0.2822,-1.2799,4.3340,0.8742,0.5971,-0.4224,0.2637,
7.300436,-0.4808,1.3109,0.2822,-0.5028,4.1096,1.3136,0.5971,-0.4224,0.2637,
7.302054,-0.4808,1.3109,0.2822,-0.5028,4.1096,1.3136,0.4171,-0.1369,0.3750,
7.317350,-0.4808,1.3109,0.2822,-0.5028,4.1096,1.3136,0.2067,-0.1870,0.4224,
7.337718,-0.2191,1.0662,0.3652,-0.5028,4.1096,1.3136,0.2067,-0.1870,0.4224,
7.340050,-0.2191,1.0662,0.3652,1.9127,1.6273,2.2100,0.2067,-0.1870,0.4224,
7.341642,-0.2191,1.0662,0.3652,1.9127,1.6273,2.2100,0.0815,-0.1987,0.4362,
7.357645,-0.2191,1.0662,0.3652,1.9127,1.6273,2.2100,-0.0043,-0.1598,0.4506,
7.377180,-0.1393,0.9452,0.2990,1.9127,1.6273,2.2100,-0.0043,-0.1598,0.4506,
7.379310,-0.1393,0.9452,0.2990,2.5289,0.3697,1.5463,-0.0043,-0.1598,0.4506,
7.380767,-0.1393,0.9452,0.2990,2.5289,0.3697,1.5463,-0.0415,-0.0623,0.4847,
7.397208,-0.1393,0.9452,0.2990,2.5289,0.3697,1.5463,-0.1326,0.0634,0.5571,
7.416890,-0.1307,0.9064,0.2013,2.5289,0.3697,1.5463,-0.1326,0.0634,0.5571,
7.419313,-0.1307,0.9064,0.2013,2.4048,-0.0922,0.5441,-0.1326,0.0634,0.5571,
7.421588,-0.1307,0.9064,0.2013,2.4048,-0.0922,0.5441,-0.2407,0.0794,0.6280,
7.437376,-0.1307,0.9064,0.2013,2.4048,-0.0922,0.5441,-0.3441,0.2019,0.6658,
7.457330,-0.1493,0.9259,0.1815,2.4048,-0.0922,0.5441,-0.3441,0.2019,0.6658,
7.459784,-0.1493,0.9259,0.1815,1.9476,0.0086,0.2436,-0.3441,0.2019,0.6658,
7.461515,-0.1493,0.9259,0.1815,1.9476,0.0086,0.2436,-0.3835,0.2477,0.6775,
7.477025,-0.1493,0.9259,0.1815,1.9476,0.0086,0.2436,-0.3265,0.1976,0.6509,
7.496495,-0.0926,0.8385,0.1710,1.9476,0.0086,0.2436,-0.3265,0.1976,0.6509,
7.497282,-0.0926,0.8385,0.1710,0.7464,-1.2323,-0.3608,-0.3265,0.1976,0.6509,
7.497876,-0.0926,0.8385,0.1710,0.7464,-1.2323,-0.3608,-0.1933,0.2349,0.6322,
7.516211,-0.0926,0.8385,0.1710,0.7464,-1.2323,-0.3608,0.0644,0.2786,0.5902,
7.537542,-0.1507,0.8050,0.1881,0.7464,-1.2323,-0.3608,0.0644,0.2786,0.5902,
7.538961,-0.1507,0.8050,0.1881,-0.0333,-1.5928,-0.2017,0.0644,0.2786,0.5902,
7.540248,-0.1507,0.8050,0.1881,-0.0333,-1.5928,-0.2017,0.5007,0.2716,0.5433,
7.557903,-0.1507,0.8050,0.1881,-0.0333,-1.5928,-0.2017,1.0594,0.3382,0.3856,
7.577352,-0.3904,0.9494,0.1319,-0.0333,-1.5928,-0.2017,1.0594,0.3382,0.3856,
7.581469,-0.3904,0.9494,0.1319,-2.5073,-0.2581,-0.4394,1.0594,0.3382,0.3856,
7.583636,-0.3904,0.9494,0.1319,-2.5073,-0.2581,-0.4394,1.5446,0.4549,0.1081,
7.597100,-0.3904,0.9494,0.1319,-2.5073,-0.2581,-0.4394,1.8647,0.6242,-0.2067,
7.617093,-0.4876,0.7837,-0.0870,-2.5073,-0.2581,-0.4394,1.8647,0.6242,-0.2067,
7.619934,-0.4876,0.7837,-0.0870,-3.3892,-1.9706,-1.8978,1.8647,0.6242,-0.2067,
7.621549,-0.4876,0.7837,-0.0870,-3.3892,-1.9706,-1.8978,1.7902,0.1683,-0.3388,
7.636593,-0.4876,0.7837,-0.0870,-3.3892,-1.9706,-1.8978,1.3124,-0.1076,-0.2024,
7.657597,-0.0774,0.4158,-0.3884,-3.3892,-1.9706,-1.8978,1.3124,-0.1076,-0.2024,
7.661962,-0.0774,0.4158,-0.3884,0.7368,-5.6068,-4.2514,1.3124,-0.1076,-0.2024,
7.663720,-0.0774,0.4158,-0.3884,0.7368,-5.6068,-4.2514,0.7366,-0.0490,0.0064,
7.676977,-0.0774,0.4158,-0.3884,0.7368,-5.6068,-4.2514,0.0005,-0.0895,-0.0128,
7.697469,-0.0125,0.5983,-0.1410,0.7368,-5.6068,-4.2514,0.0005,-0.0895,-0.0128,
7.699689,-0.0125,0.5983,-0.1410,1.3740,-3.8236,-1.6877,0.0005,-0.0895,-0.0128,
7.701497,-0.0125,0.5983,-0.1410,1.3740,-3.8236,-1.6877,-0.3957,-0.1433,-0.0138,
7.716544,-0.0125,0.5983,-0.1410,1.3740,-3.8236,-1.6877,-0.4165,-0.1188,0.0815,
7.737604,-0.1358,0.8702,-0.0530,1.3740,-3.8236,-1.6877,-0.4165,-0.1188,0.0815,
7.740037,-0.1358,0.8702,-0.0530,0.1499,-1.1546,-0.9906,-0.4165,-0.1188,0.0815,
7.741852,-0.1358,0.8702,-0.0530,0.1499,-1.1546,-0.9906,-0.3079,-0.0900,0.0921,
7.757272,-0.1358,0.8702,-0.0530,0.1499,-1.1546,-0.9906,-0.2653,0.2008,-0.0495,
7.776992,-0.3503,0.9601,-0.2372,0.1499,-1.1546,-0.9906,-0.2653,0.2008,-0.0495,
7.780813,-0.3503,0.9601,-0.2372,-1.9592,-0.2687,-2.9034,-0.2653,0.2008,-0.0495,
7.783007,-0.3503,0.9601,-0.2372,-1.9592,-0.2687,-2.9034,-0.3569,0.4938,-0.1486,
7.796947,-0.3503,0.9601,-0.2372,-1.9592,-0.2687,-2.9034,-0.4176,0.7388,-0.1380,
7.817630,-0.3357,1.0175,-0.2287,-1.9592,-0.2687,-2.9034,-0.4176,0.7388,-0.1380,
7.820267,-0.3357,1.0175,-0.2287,-1.7141,0.3132,-2.8716,-0.4176,0.7388,-0.1380,
7.822171,-0.3357,1.0175,-0.2287,-1.7141,0.3132,-2.8716,-0.3702,0.7515,-0.1087,
7.836542,-0.3357,1.0175,-0.2287,-1.7141,0.3132,-2.8716,-0.3499,0.6487,-0.1790,
7.856104,-0.4065,1.3105,-0.2072,-1.7141,0.3132,-2.8716,-0.3499,0.6487,-0.1790,
7.858265,-0.4065,1.3105,-0.2072,-2.3341,3.2028,-2.7547,-0.3499,0.6487,-0.1790,
7.860184,-0.4065,1.3105,-0.2072,-2.3341,3.2028,-2.7547,-0.4346,0.5039,-0.3212,
7.876490,-0.4065,1.3105,-0.2072,-2.3341,3.2028,-2.7547,-0.5278,0.3217,-0.6573,
7.895980,-0.5756,1.4707,0.0181,-2.3341,3.2028,-2.7547,-0.5278,0.3217,-0.6573,
7.898198,-0.5756,1.4707,0.0181,-3.7901,4.8230,-0.7036,-0.5278,0.3217,-0.6573,
7.900018,-0.5756,1.4707,0.0181,-3.7901,4.8230,-0.7036,-0.6621,-0.3675,-0.7425,
7.915772,-0.5756,1.4707,0.0181,-3.7901,4.8230,-0.7036,-0.9662,-0.9412,-0.4160,
7.936708,0.0291,0.8907,0.0454,-3.7901,4.8230,-0.7036,-0.9662,-0.9412,-0.4160,
7.938820,0.0291,0.8907,0.0454,2.3284,-0.7812,-0.7978,-0.9662,-0.9412,-0.4160,
7.940651,0.0291,0.8907,0.0454,2.3284,-0.7812,-0.7978,-0.9864,-1.0381,-0.0053,
7.956373,0.0291,0.8907,0.0454,2.3284,-0.7812,-0.7978,-0.9348,-1.6165,0.1172,
7.976598,0.0843,1.2352,0.2033,2.3284,-0.7812,-0.7978,-0.9348,-1.6165,0.1172,
7.978841,0.0843,1.2352,0.2033,2.7689,2.6466,0.2793,-0.9348,-1.6165,0.1172,
7.980485,0.0843,1.2352,0.2033,2.7689,2.6466,0.2793,-0.9832,-2.2674,-0.0719,
7.996530,0.0843,1.2352,0.2033,2.7689,2.6466,0.2793,-1.2101,-2.4293,-0.5358,
8.016690,-0.2042,1.0478,0.5194,2.7689,2.6466,0.2793,-1.2101,-2.4293,-0.5358,
8.020459,-0.2042,1.0478,0.5194,-0.1325,0.9211,2.7880,-1.2101,-2.4293,-0.5358,
8.021973,-0.2042,1.0478,0.5194,-0.1325,0.9211,2.7880,-1.4988,-3.1148,-0.6759,
8.036376,-0.2042,1.0478,0.5194,-0.1325,0.9211,2.7880,-1.1143,-2.9827,-0.3276,
8.058573,-0.1415,0.6914,0.8265,-0.1325,0.9211,2.7880,-1.1143,-2.9827,-0.3276,
8.060518,-0.1415,0.6914,0.8265,0.3381,-2.3907,5.0704,-1.1143,-2.9827,-0.3276,
8.061890,-0.1415,0.6914,0.8265,0.3381,-2.3907,5.0704,-0.5364,-2.5758,0.0341,
8.076349,-0.1415,0.6914,0.8265,0.3381,-2.3907,5.0704,-0.1023,-1.9521,0.0336,
8.096538,-0.1202,0.6836,0.6003,0.3381,-2.3907,5.0704,-0.1023,-1.9521,0.0336,
8.098783,-0.1202,0.6836,0.6003,0.2439,-2.3993,2.5105,-0.1023,-1.9521,0.0336,
8.100596,-0.1202,0.6836,0.6003,0.2439,-2.3993,2.5105,0.0767,-1.0738,-0.0170,
8.116672,-0.1202,0.6836,0.6003,0.2439,-2.3993,2.5105,0.0373,-0.4256,0.0474,
8.136936,-0.3594,0.8074,0.4493,0.2439,-2.3993,2.5105,0.0373,-0.4256,0.0474,
8.141549,-0.3594,0.8074,0.4493,-2.1719,-1.1667,0.9518,0.0373,-0.4256,0.0474,
8.143766,-0.3594,0.8074,0.4493,-2.1719,-1.1667,0.9518,-0.1300,-0.0639,0.1987,
8.156291,-0.3594,0.8074,0.4493,-2.1719,-1.1667,0.9518,-0.2855,0.2525,0.3851,
8.176300,-0.3647,0.8431,0.3933,-2.1719,-1.1667,0.9518,-0.2855,0.2525,0.3851,
8.179892,-0.3647,0.8431,0.3933,-2.2597,-0.7802,0.2948,-0.2855,0.2525,0.3851,
8.181600,-0.3647,0.8431,0.3933,-2.2597,-0.7802,0.2948,-0.3079,0.7547,0.4740,
8.195780,-0.3647,0.8431,0.3933,-2.2597,-0.7802,0.2948,-0.3680,1.4232,0.3537,
8.216739,-0.2946,0.7219,0.2915,-2.2597,-0.7802,0.2948,-0.3680,1.4232,0.3537,
8.220334,-0.2946,0.7219,0.2915,-1.5515,-1.9370,-0.7731,-0.3680,1.4232,0.3537,
8.222646,-0.2946,0.7219,0.2915,-1.5515,-1.9370,-0.7731,-0.4309,1.8663,0.1582,
8.236520,-0.2946,0.7219,0.2915,-1.5515,-1.9370,-0.7731,-0.4432,1.9633,0.0123,
8.256817,-0.2460,0.5301,0.2206,-1.5515,-1.9370,-0.7731,-0.4432,1.9633,0.0123,
8.259393,-0.2460,0.5301,0.2206,-0.8262,-3.7574,-1.5131,-0.4432,1.9633,0.0123,
8.261352,-0.2460,0.5301,0.2206,-0.8262,-3.7574,-1.5131,-0.4400,1.5968,-0.0538,
8.276592,-0.2460,0.5301,0.2206,-0.8262,-3.7574,-1.5131,-0.3766,1.1579,-0.1513,
8.295778,-0.1942,0.5260,0.2309,-0.8262,-3.7574,-1.5131,-0.3766,1.1579,-0.1513,
8.298831,-0.1942,0.5260,0.2309,-0.0786,-3.7306,-1.4646,-0.3766,1.1579,-0.1513,
8.300865,-0.1942,0.5260,0.2309,-0.0786,-3.7306,-1.4646,-0.2567,0.7228,-0.2439,
8.315918,-0.1942,0.5260,0.2309,-0.0786,-3.7306,-1.4646,-0.0421,0.3356,-0.2610,
8.336698,-0.1131,0.6423,0.2270,-0.0786,-3.7306,-1.4646,-0.0421,0.3356,-0.2610,
8.338948,-0.1131,0.6423,0.2270,0.8846,-2.5494,-1.5156,-0.0421,0.3356,-0.2610,
8.340830,-0.1131,0.6423,0.2270,0.8846,-2.5494,-1.5156,0.1997,0.1800,-0.2429,
8.355736,-0.1131,0.6423,0.2270,0.8846,-2.5494,-1.5156,0.3004,-0.0123,-0.1236,
8.376225,-0.2301,0.6775,0.1136,0.8846,-2.5494,-1.5156,0.3004,-0.0123,-0.1236,
8.379193,-0.2301,0.6775,0.1136,-0.1850,-2.2266,-2.5314,0.3004,-0.0123,-0.1236,
8.383605,-0.2301,0.6775,0.1136,-0.1850,-2.2266,-2.5314,0.1997,-0.2349,0.0863,
8.395150,-0.2301,0.6775,0.1136,-0.1850,-2.2266,-2.5314,0.0101,-0.1262,0.2354,
8.415156,-0.2773,0.7999,0.1805,-0.1850,-2.2266,-2.5314,0.0101,-0.1262,0.2354,
8.417629,-0.2773,0.7999,0.1805,-0.7304,-1.0553,-1.8529,0.0101,-0.1262,0.2354,
8.419398,-0.2773,0.7999,0.1805,-0.7304,-1.0553,-1.8529,-0.1614,0.1625,0.2956,
8.436185,-0.2773,0.7999,0.1805,-0.7304,-1.0553,-1.8529,-0.2509,0.3286,0.3254,
8.456119,-0.4952,1.0324,0.2734,-0.7304,-1.0553,-1.8529,-0.2509,0.3286,0.3254,
8.459512,-0.4952,1.0324,0.2734,-2.9092,1.2274,-0.9747,-0.2509,0.3286,0.3254,
8.461428,-0.4952,1.0324,0.2734,-2.9092,1.2274,-0.9747,-0.2908,0.3856,0.4245,
8.475558,-0.4952,1.0324,0.2734,-2.9092,1.2274,-0.9747,-0.2684,0.4277,0.5385,
8.495859,-0.6044,1.2284,0.3557,-2.9092,1.2274,-0.9747,-0.2684,0.4277,0.5385,
8.498684,-0.6044,1.2284,0.3557,-4.0904,3.1524,-0.2363,-0.2684,0.4277,0.5385,
8.500445,-0.6044,1.2284,0.3557,-4.0904,3.1524,-0.2363,-0.1939,0.3803,0.5848,
8.515773,-0.6044,1.2284,0.3557,-4.0904,3.1524,-0.2363,-0.0804,0.0261,0.5241,
8.535757,-0.5472,1.4893,0.4317,-4.0904,3.1524,-0.2363,-0.0804,0.0261,0.5241,
8.538541,-0.5472,1.4893,0.4317,-3.6968,5.6910,0.4741,-0.0804,0.0261,0.5241,
8.540341,-0.5472,1.4893,0.4317,-3.6968,5.6910,0.4741,0.1071,-0.4128,0.3760,
8.555632,-0.5472,1.4893,0.4317,-3.6968,5.6910,0.4741,0.3233,-0.8069,0.2828,
8.575726,-0.5724,1.6474,0.4351,-3.6968,5.6910,0.4741,0.3233,-0.8069,0.2828,
8.577998,-0.5724,1.6474,0.4351,-4.1520,7.1872,0.5466,0.3233,-0.8069,0.2828,
8.579811,-0.5724,1.6474,0.4351,-4.1520,7.1872,0.5466,0.4692,-0.8490,0.4202,
8.595454,-0.5724,1.6474,0.4351,-4.1520,7.1872,0.5466,0.6136,-0.8485,0.5614,
8.616341,-0.3286,1.2242,0.3809,-4.1520,7.1872,0.5466,0.6136,-0.8485,0.5614,
8.618531,-0.3286,1.2242,0.3809,-2.0630,2.9360,0.1655,0.6136,-0.8485,0.5614,
8.620351,-0.3286,1.2242,0.3809,-2.0630,2.9360,0.1655,0.6173,-0.8064,0.5422,
8.634987,-0.3286,1.2242,0.3809,-2.0630,2.9360,0.1655,0.5923,-0.7164,0.4144,
8.655221,-0.1529,0.8775,0.4549,-2.0630,2.9360,0.1655,0.5923,-0.7164,0.4144,
8.657275,-0.1529,0.8775,0.4549,-0.6213,-0.5647,1.0803,0.5923,-0.7164,0.4144,
8.659084,-0.1529,0.8775,0.4549,-0.6213,-0.5647,1.0803,0.6035,-0.6876,0.3073,
8.675475,-0.1529,0.8775,0.4549,-0.6213,-0.5647,1.0803,0.6482,-0.7899,0.2823,
8.696039,0.0774,0.7820,0.5057,-0.6213,-0.5647,1.0803,0.6482,-0.7899,0.2823,
8.699362,0.0774,0.7820,0.5057,1.4339,-1.5905,1.7824,0.6482,-0.7899,0.2823,
8.701522,0.0774,0.7820,0.5057,1.4339,-1.5905,1.7824,0.6823,-0.7494,0.2999,
8.715085,0.0774,0.7820,0.5057,1.4339,-1.5905,1.7824,0.5193,-0.4144,0.2322,
8.734764,0.1099,0.8678,0.4285,1.4339,-1.5905,1.7824,0.5193,-0.4144,0.2322,
8.737420,0.1099,0.8678,0.4285,1.5781,-0.8194,1.2011,0.5193,-0.4144,0.2322,
8.739390,0.1099,0.8678,0.4285,1.5781,-0.8194,1.2011,0.1699,-0.0751,0.2429,
8.754942,0.1099,0.8678,0.4285,1.5781,-0.8194,1.2011,-0.2045,0.2301,0.2141,
8.775401,0.1158,0.8480,0.3936,1.5781,-0.8194,1.2011,-0.2045,0.2301,0.2141,
8.778307,0.1158,0.8480,0.3936,1.5342,-1.0025,0.8101,-0.2045,0.2301,0.2141,
8.779967,0.1158,0.8480,0.3936,1.5342,-1.0025,0.8101,-0.4682,0.2695,0.0778,
8.795101,0.1158,0.8480,0.3936,1.5342,-1.0025,0.8101,-0.5337,0.1859,-0.0240,
8.814775,-0.1058,0.9460,0.3968,1.5342,-1.0025,0.8101,-0.5337,0.1859,-0.0240,
8.818108,-0.1058,0.9460,0.3968,-0.6239,0.0302,0.6293,-0.5337,0.1859,-0.0240,
8.819933,-0.1058,0.9460,0.3968,-0.6239,0.0302,0.6293,-0.3515,0.2972,0.0181,
8.835055,-0.1058,0.9460,0.3968,-0.6239,0.0302,0.6293,0.1305,0.9502,0.1662,
8.854296,-0.2968,1.1927,0.4832,-0.6239,0.0302,0.6293,0.1305,0.9502,0.1662,
8.856633,-0.2968,1.1927,0.4832,-2.4478,2.4612,1.4471,0.1305,0.9502,0.1662,
8.858372,-0.2968,1.1927,0.4832,-2.4478,2.4612,1.4471,1.1420,2.3889,0.3270,
8.875066,-0.2968,1.1927,0.4832,-2.4478,2.4612,1.4471,2.0879,2.0608,-0.2722,
8.895420,-0.2905,0.7757,0.2724,-2.4478,2.4612,1.4471,2.0879,2.0608,-0.2722,
8.899321,-0.2905,0.7757,0.2724,-2.0832,-1.8039,0.0006,2.0879,2.0608,-0.2722,
8.901332,-0.2905,0.7757,0.2724,-2.0832,-1.8039,0.0006,2.5156,0.6642,-0.7041,
8.916601,-0.2905,0.7757,0.2724,-2.0832,-1.8039,0.0006,2.6046,-0.3638,-0.6956,
8.935068,-0.1950,0.5675,0.0071,-2.0832,-1.8039,0.0006,2.6046,-0.3638,-0.6956,
8.937466,-0.1950,0.5675,0.0071,-0.8633,-4.0407,-1.6236,2.6046,-0.3638,-0.6956,
8.939516,-0.1950,0.5675,0.0071,-0.8633,-4.0407,-1.6236,2.3979,-0.7127,-0.5071,
8.954644,-0.1950,0.5675,0.0071,-0.8633,-4.0407,-1.6236,1.9468,-0.5257,-0.3020,
8.974626,-0.1114,0.5749,-0.0921,-0.8633,-4.0407,-1.6236,1.9468,-0.5257,-0.3020,
8.977530,-0.1114,0.5749,-0.0921,0.0793,-4.0628,-1.7854,1.9468,-0.5257,-0.3020,
8.979497,-0.1114,0.5749,-0.0921,0.0793,-4.0628,-1.7854,1.4557,0.0666,-0.1065,
8.994451,-0.1114,0.5749,-0.0921,0.0793,-4.0628,-1.7854,1.0759,0.6573,-0.0085,
9.014701,-0.0445,0.4478,-0.1742,0.0793,-4.0628,-1.7854,1.0759,0.6573,-0.0085,
9.018265,-0.0445,0.4478,-0.1742,0.7650,-5.3371,-2.0814,1.0759,0.6573,-0.0085,
9.020722,-0.0445,0.4478,-0.1742,0.7650,-5.3371,-2.0814,0.7659,1.0834,-0.0075,
9.035040,-0.0445,0.4478,-0.1742,0.7650,-5.3371,-2.0814,0.4341,1.3135,-0.0570,
9.055478,-0.1131,0.4730,-0.4749,0.7650,-5.3371,-2.0814,0.4341,1.3135,-0.0570,
9.057901,-0.1131,0.4730,-0.4749,0.1147,-5.0945,-4.7375,0.4341,1.3135,-0.0570,
9.059761,-0.1131,0.4730,-0.4749,0.1147,-5.0945,-4.7375,-0.0043,1.3694,-0.1491,
9.074929,-0.1131,0.4730,-0.4749,0.1147,-5.0945,-4.7375,-0.3595,1.1942,-0.1103,
9.094922,-0.3577,0.8871,-0.3770,0.1147,-5.0945,-4.7375,-0.3595,1.1942,-0.1103,
9.097521,-0.3577,0.8871,-0.3770,-2.2280,-1.0294,-3.7840,-0.3595,1.1942,-0.1103,
9.099544,-0.3577,0.8871,-0.3770,-2.2280,-1.0294,-3.7840,-0.4639,0.9566,-0.0431,
9.118042,-0.3577,0.8871,-0.3770,-2.2280,-1.0294,-3.7840,-0.4117,0.6471,0.0399,
9.134367,-0.3242,1.0578,-0.4429,-2.2280,-1.0294,-3.7840,-0.4117,0.6471,0.0399,
9.135377,-0.3242,1.0578,-0.4429,-1.8754,0.6485,-4.5115,-0.4117,0.6471,0.0399,
9.136060,-0.3242,1.0578,-0.4429,-1.8754,0.6485,-4.5115,-0.4799,0.3419,0.0288,
9.153948,-0.3242,1.0578,-0.4429,-1.8754,0.6485,-4.5115,-0.5699,0.2738,-0.2253,
9.174738,-0.4683,1.3119,-0.1204,-1.8754,0.6485,-4.5115,-0.5699,0.2738,-0.2253,
9.178065,-0.4683,1.3119,-0.1204,-3.2467,3.1492,-1.5388,-0.5699,0.2738,-0.2253,
9.180255,-0.4683,1.3119,-0.1204,-3.2467,3.1492,-1.5388,-0.4597,0.2461,-0.6887,
9.194312,-0.4683,1.3119,-0.1204,-3.2467,3.1492,-1.5388,-0.5902,-0.6823,-0.8293,
9.214653,-0.2700,1.0588,-0.0711,-3.2467,3.1492,-1.5388,-0.5902,-0.6823,-0.8293,
9.217775,-0.2700,1.0588,-0.0711,-1.0142,0.7236,-1.2722,-0.5902,-0.6823,-0.8293,
9.219859,-0.2700,1.0588,-0.0711,-1.0142,0.7236,-1.2722,-1.1175,-1.3614,-0.4650,
9.234741,-0.2700,1.0588,-0.0711,-1.0142,0.7236,-1.2722,-0.9731,-1.3838,0.4932,
9.254435,0.2959,1.3571,0.0061,-1.0142,0.7236,-1.2722,-0.9731,-1.3838,0.4932,
9.256939,0.2959,1.3571,0.0061,4.4801,3.6805,-1.0084,-0.9731,-1.3838,0.4932,
9.258589,0.2959,1.3571,0.0061,4.4801,3.6805,-1.0084,-0.7191,-1.2101,0.8410,
9.274871,0.2959,1.3571,0.0061,4.4801,3.6805,-1.0084,-1.0317,-1.4360,-0.4096,
9.294875,-0.1388,1.0991,0.1143,4.4801,3.6805,-1.0084,-1.0317,-1.4360,-0.4096,
9.298385,-0.1388,1.0991,0.1143,0.0706,1.1834,-0.3603,-1.0317,-1.4360,-0.4096,
9.300064,-0.1388,1.0991,0.1143,0.0706,1.1834,-0.3603,-1.6426,-2.0506,-1.1942,
9.314746,-0.1388,1.0991,0.1143,0.0706,1.1834,-0.3603,-2.0437,-2.7857,-0.9950,
9.334518,-0.3010,0.8377,0.4356,0.0706,1.1834,-0.3603,-2.0437,-2.7857,-0.9950,
9.336744,-0.3010,0.8377,0.4356,-1.2879,-1.1730,1.9507,-2.0437,-2.7857,-0.9950,
9.338582,-0.3010,0.8377,0.4356,-1.2879,-1.1730,1.9507,-2.2466,-3.1393,-0.4336,
9.354780,-0.3010,0.8377,0.4356,-1.2879,-1.1730,1.9507,-1.9425,-2.6504,0.1065,
9.374113,0.0415,0.8446,0.9235,-1.2879,-1.1730,1.9507,-1.9425,-2.6504,0.1065,
9.377311,0.0415,0.8446,0.9235,1.7990,-0.8559,5.7596,-1.9425,-2.6504,0.1065,
9.379379,0.0415,0.8446,0.9235,1.7990,-0.8559,5.7596,-1.5377,-2.3276,0.3883,
9.394207,0.0415,0.8446,0.9235,1.7990,-0.8559,5.7596,-0.9944,-1.6277,0.3031,
9.414980,-0.0518,0.8729,0.8898,1.7990,-0.8559,5.7596,-0.9944,-1.6277,0.3031,
9.418738,-0.0518,0.8729,0.8898,0.4775,-0.4143,4.8776,-0.9944,-1.6277,0.3031,
9.420606,-0.0518,0.8729,0.8898,0.4775,-0.4143,4.8776,-0.4639,-0.7137,0.1843,
9.434239,-0.0518,0.8729,0.8898,0.4775,-0.4143,4.8776,-0.1225,0.1103,0.3073,
9.454443,-0.3657,0.9447,0.5971,0.4775,-0.4143,4.8776,-0.1225,0.1103,0.3073,
9.456695,-0.3657,0.9447,0.5971,-2.7337,0.3265,1.8930,-0.1225,0.1103,0.3073,
9.458383,-0.3657,0.9447,0.5971,-2.7337,0.3265,1.8930,-0.0336,1.0988,0.6658,
9.474468,-0.3657,0.9447,0.5971,-2.7337,0.3265,1.8930,-0.1507,2.1130,0.9651,
9.494928,-0.3911,0.8018,0.3340,-2.7337,0.3265,1.8930,-0.1507,2.1130,0.9651,
9.497352,-0.3911,0.8018,0.3340,-2.9816,-1.0742,-0.6850,-0.1507,2.1130,0.9651,
9.499383,-0.3911,0.8018,0.3340,-2.9816,-1.0742,-0.6850,-0.4389,2.6855,1.1340,
9.517068,-0.3911,0.8018,0.3340,-2.9816,-1.0742,-0.6850,-0.7872,2.7399,1.1601,
9.534345,-0.2614,0.5648,0.2819,-2.9816,-1.0742,-0.6850,-0.7872,2.7399,1.1601,
9.537052,-0.2614,0.5648,0.2819,-1.6845,-3.3379,-1.3193,-0.7872,2.7399,1.1601,
9.538948,-0.2614,0.5648,0.2819,-1.6845,-3.3379,-1.3193,-1.0759,2.3958,1.0237,
9.554084,-0.2614,0.5648,0.2819,-1.6845,-3.3379,-1.3193,-1.1729,1.7396,0.7105,
9.573907,-0.1129,0.4681,0.3701,-1.6845,-3.3379,-1.3193,-1.1729,1.7396,0.7105,
9.577241,-0.1129,0.4681,0.3701,-0.1850,-4.1266,-0.7762,-1.1729,1.7396,0.7105,
9.578982,-0.1129,0.4681,0.3701,-0.1850,-4.1266,-0.7762,-0.9875,0.9641,0.3238,
9.594169,-0.1129,0.4681,0.3701,-0.1850,-4.1266,-0.7762,-0.5950,0.1358,0.0053,
9.614702,-0.1192,0.6003,0.3279,-0.1850,-4.1266,-0.7762,-0.5950,0.1358,0.0053,
9.616954,-0.1192,0.6003,0.3279,-0.2055,-2.6945,-1.4429,-0.5950,0.1358,0.0053,
9.618905,-0.1192,0.6003,0.3279,-0.2055,-2.6945,-1.4429,-0.1427,-0.4602,-0.1465,
9.633657,-0.1192,0.6003,0.3279,-0.2055,-2.6945,-1.4429,0.2940,-0.6780,-0.1875,
9.653978,-0.1764,0.7727,0.1810,-0.2055,-2.6945,-1.4429,0.2940,-0.6780,-0.1875,
9.657503,-0.1764,0.7727,0.1810,-0.8148,-1.0120,-2.8773,0.2940,-0.6780,-0.1875,
9.659827,-0.1764,0.7727,0.1810,-0.8148,-1.0120,-2.8773,0.4394,-0.5246,-0.0703,
9.674502,-0.1764,0.7727,0.1810,-0.8148,-1.0120,-2.8773,0.4746,-0.1923,0.0985,
9.693624,-0.3034,0.9841,0.1473,-0.8148,-1.0120,-2.8773,0.4746,-0.1923,0.0985,
9.696670,-0.3034,0.9841,0.1473,-2.1305,0.9750,-3.0630,0.4746,-0.1923,0.0985,
9.698492,-0.3034,0.9841,0.1473,-2.1305,0.9750,-3.0630,0.3931,0.2370,0.2317,
9.713825,-0.3034,0.9841,0.1473,-2.1305,0.9750,-3.0630,0.3467,0.4858,0.3638,
9.734021,-0.4292,1.2506,0.2875,-2.1305,0.9750,-3.0630,0.3467,0.4858,0.3638,
9.736531,-0.4292,1.2506,0.2875,-3.3879,3.5063,-1.5345,0.3467,0.4858,0.3638,
9.738286,-0.4292,1.2506,0.2875,-3.3879,3.5063,-1.5345,0.3691,0.5028,0.4602,
9.754392,-0.4292,1.2506,0.2875,-3.3879,3.5063,-1.5345,0.3398,0.4783,0.4336,
9.773419,-0.5072,1.3845,0.3713,-3.3879,3.5063,-1.5345,0.3398,0.4783,0.4336,
9.776588,-0.5072,1.3845,0.3713,-4.2246,4.7437,-0.5735,0.3398,0.4783,0.4336,
9.778267,-0.5072,1.3845,0.3713,-4.2246,4.7437,-0.5735,0.4000,0.3478,0.3611,
9.793186,-0.5072,1.3845,0.3713,-4.2246,4.7437,-0.5735,0.4996,0.3180,0.2786,
9.813069,-0.4432,1.3012,0.4781,-4.2246,4.7437,-0.5735,0.4996,0.3180,0.2786,
9.816671,-0.4432,1.3012,0.4781,-3.6556,3.8440,0.6414,0.4996,0.3180,0.2786,
9.818508,-0.4432,1.3012,0.4781,-3.6556,3.8440,0.6414,0.6535,0.1028,0.1774,
9.833231,-0.4432,1.3012,0.4781,-3.6556,3.8440,0.6414,0.7483,-0.3952,0.1390,
9.852798,-0.2670,1.0652,0.5321,-3.6556,3.8440,0.6414,0.7483,-0.3952,0.1390,
9.854362,-0.2670,1.0652,0.5321,-2.0082,1.4173,1.4179,0.7483,-0.3952,0.1390,
9.855523,-0.2670,1.0652,0.5321,-2.0082,1.4173,1.4179,0.8101,-0.6988,0.1880,
9.872890,-0.2670,1.0652,0.5321,-2.0082,1.4173,1.4179,0.7814,-0.7164,0.0932,
9.893850,0.0906,1.0092,0.5424,-2.0082,1.4173,1.4179,0.7814,-0.7164,0.0932,
9.898208,0.0906,1.0092,0.5424,1.3426,0.7498,1.7921,0.7814,-0.7164,0.0932,
9.900836,0.0906,1.0092,0.5424,1.3426,0.7498,1.7921,0.6125,-0.7286,-0.1113,
9.918198,0.0906,1.0092,0.5424,1.3426,0.7498,1.7921,0.3393,-0.6168,-0.2258,
9.933408,0.2206,0.9154,0.5184,1.3426,0.7498,1.7921,0.3393,-0.6168,-0.2258,
9.935491,0.2206,0.9154,0.5184,2.5860,-0.2321,1.7202,0.3393,-0.6168,-0.2258,
9.937216,0.2206,0.9154,0.5184,2.5860,-0.2321,1.7202,0.0112,-0.2684,-0.1747,
9.953931,0.2206,0.9154,0.5184,2.5860,-0.2321,1.7202,-0.2519,0.0985,-0.0581,
9.973525,0.2880,0.8812,0.5465,2.5860,-0.2321,1.7202,-0.2519,0.0985,-0.0581,
9.976586,0.2880,0.8812,0.5465,3.2762,-0.5485,1.9482,-0.2519,0.0985,-0.0581,
9.978784,0.2880,0.8812,0.5465,3.2762,-0.5485,1.9482,-0.3457,0.2668,-0.0123,
9.993732,0.2880,0.8812,0.5465,3.2762,-0.5485,1.9482,-0.2876,0.2940,-0.0543,
10.014535,0.0774,0.9220,0.4344,3.2762,-0.5485,1.9482,-0.2876,0.2940,-0.0543,
10.016815,0.0774,0.9220,0.4344,1.2422,-0.0999,0.7245,-0.2876,0.2940,-0.0543,
10.018561,0.0774,0.9220,0.4344,1.2422,-0.0999,0.7245,-0.1609,0.3079,-0.0133,
10.034303,0.0774,0.9220,0.4344,1.2422,-0.0999,0.7245,-0.0096,0.4229,0.1113,
10.053298,-0.1278,0.9176,0.2824,1.2422,-0.0999,0.7245,-0.0096,0.4229,0.1113,
10.055488,-0.1278,0.9176,0.2824,-0.7547,-0.1290,-0.7987,-0.0096,0.4229,0.1113,
10.057454,-0.1278,0.9176,0.2824,-0.7547,-0.1290,-0.7987,0.2210,0.9273,0.2977,
10.073255,-0.1278,0.9176,0.2824,-0.7547,-0.1290,-0.7987,0.9055,2.5545,0.5071,
10.093081,-0.2497,1.0732,0.4012,-0.7547,-0.1290,-0.7987,0.9055,2.5545,0.5071,
10.095418,-0.2497,1.0732,0.4012,-1.8528,1.3116,0.6050,0.9055,2.5545,0.5071,
10.097071,-0.2497,1.0732,0.4012,-1.8528,1.3116,0.6050,1.7609,3.1079,-0.0277,
10.113274,-0.2497,1.0732,0.4012,-1.8528,1.3116,0.6050,2.4309,1.8898,-0.7489,
10.133612,-0.3152,0.6904,0.1498,-1.8528,1.3116,0.6050,2.4309,1.8898,-0.7489,
10.135972,-0.3152,0.6904,0.1498,-2.0393,-2.6647,-1.0084,2.4309,1.8898,-0.7489,
10.137882,-0.3152,0.6904,0.1498,-2.0393,-2.6647,-1.0084,2.5529,0.0762,-0.8868,
10.153135,-0.3152,0.6904,0.1498,-2.0393,-2.6647,-1.0084,2.3324,-0.8112,-0.6711,
10.173556,-0.2094,0.4669,-0.0650,-2.0393,-2.6647,-1.0084,2.3324,-0.8112,-0.6711,
10.176141,-0.2094,0.4669,-0.0650,-0.7323,-5.0150,-2.2039,2.3324,-0.8112,-0.6711,
10.178134,-0.2094,0.4669,-0.0650,-0.7323,-5.0150,-2.2039,2.0538,-0.6674,-0.3585,
10.192912,-0.2094,0.4669,-0.0650,-0.7323,-5.0150,-2.2039,1.7428,-0.1246,0.0101,
10.213617,-0.0217,0.5680,-0.2125,-0.7323,-5.0150,-2.2039,1.7428,-0.1246,0.0101,
10.216272,-0.0217,0.5680,-0.2125,1.1524,-4.1066,-2.9409,1.7428,-0.1246,0.0101,
10.218126,-0.0217,0.5680,-0.2125,1.1524,-4.1066,-2.9409,1.3018,0.3462,0.2679,
10.234287,-0.0217,0.5680,-0.2125,1.1524,-4.1066,-2.9409,0.8794,0.6471,0.2514,
10.253411,0.0208,0.6667,-0.5546,1.1524,-4.1066,-2.9409,0.8794,0.6471,0.2514,
10.255657,0.0208,0.6667,-0.5546,1.4799,-3.1808,-5.8445,0.8794,0.6471,0.2514,
10.257487,0.0208,0.6667,-0.5546,1.4799,-3.1808,-5.8445,0.2583,0.6935,-0.0123,
10.272939,0.0208,0.6667,-0.5546,1.4799,-3.1808,-5.8445,-0.3233,0.6669,-0.2551,
10.292884,-0.3718,0.9743,-0.4356,1.4799,-3.1808,-5.8445,-0.3233,0.6669,-0.2551,
10.296282,-0.3718,0.9743,-0.4356,-2.3057,-0.1591,-4.6559,-0.3233,0.6669,-0.2551,
10.298355,-0.3718,0.9743,-0.4356,-2.3057,-0.1591,-4.6559,-0.4549,0.6605,-0.4511,
10.312843,-0.3718,0.9743,-0.4356,-2.3057,-0.1591,-4.6559,-0.3228,0.4634,-0.6338,
10.332703,-0.2607,0.9296,-0.3440,-2.3057,-0.1591,-4.6559,-0.3228,0.4634,-0.6338,
10.336525,-0.2607,0.9296,-0.3440,-0.9881,-0.5594,-3.8396,-0.3228,0.4634,-0.6338,
10.338245,-0.2607,0.9296,-0.3440,-0.9881,-0.5594,-3.8396,-0.3356,0.1582,-0.9310,
10.353033,-0.2607,0.9296,-0.3440,-0.9881,-0.5594,-3.8396,-0.4202,-0.1923,-1.1856,
10.372541,-0.4793,1.5391,-0.0508,-0.9881,-0.5594,-3.8396,-0.4202,-0.1923,-1.1856,
10.374993,-0.4793,1.5391,-0.0508,-2.7247,5.4970,-1.1138,-0.4202,-0.1923,-1.1856,
10.376918,-0.4793,1.5391,-0.0508,-2.7247,5.4970,-1.1138,-0.7856,-1.5255,-1.3401,
10.393139,-0.4793,1.5391,-0.0508,-2.7247,5.4970,-1.1138,-0.9971,-2.3841,-0.2988,
10.412389,0.0103,1.2384,0.0772,-2.7247,5.4970,-1.1138,-0.9971,-2.3841,-0.2988,
10.414716,0.0103,1.2384,0.0772,2.3170,2.6496,-0.3669,-0.9971,-2.3841,-0.2988,
10.416533,0.0103,1.2384,0.0772,2.3170,2.6496,-0.3669,-1.1729,-2.7244,0.5571,
10.432158,0.0103,1.2384,0.0772,2.3170,2.6496,-0.3669,-1.4514,-2.4927,0.5278,
10.452427,0.0059,0.9731,0.3667,2.3170,2.6496,-0.3669,-1.4514,-2.4927,0.5278,
10.455604,0.0059,0.9731,0.3667,1.9165,0.0833,1.7612,-1.4514,-2.4927,0.5278,
10.457316,0.0059,0.9731,0.3667,1.9165,0.0833,1.7612,-1.8365,-2.2099,0.1113,
10.471550,0.0059,0.9731,0.3667,1.9165,0.0833,1.7612,-1.7896,-1.9121,0.2051,
10.492176,-0.0701,0.9203,0.7957,1.9165,0.0833,1.7612,-1.7896,-1.9121,0.2051,
10.494772,-0.0701,0.9203,0.7957,0.9288,-0.2822,5.1432,-1.7896,-1.9121,0.2051,
10.496478,-0.0701,0.9203,0.7957,0.9288,-0.2822,5.1432,-1.4189,-1.9404,0.3680,
10.511804,-0.0701,0.9203,0.7957,0.9288,-0.2822,5.1432,-0.7862,-1.5414,0.3260,
10.532616,-0.0645,0.9457,0.7317,0.9288,-0.2822,5.1432,-0.7862,-1.5414,0.3260,
10.534664,-0.0645,0.9457,0.7317,0.6524,0.0746,4.0078,-0.7862,-1.5414,0.3260,
10.536322,-0.0645,0.9457,0.7317,0.6524,0.0746,4.0078,-0.1987,-0.7265,0.1742,
10.552362,-0.0645,0.9457,0.7317,0.6524,0.0746,4.0078,0.1870,0.2242,0.2120,
10.571951,-0.3022,0.9193,0.4473,0.6524,0.0746,4.0078,0.1870,0.2242,0.2120,
10.574297,-0.3022,0.9193,0.4473,-1.7792,-0.1916,1.2036,0.1870,0.2242,0.2120,
10.576317,-0.3022,0.9193,0.4473,-1.7792,-0.1916,1.2036,0.3159,0.9939,0.3824,
10.591767,-0.3022,0.9193,0.4473,-1.7792,-0.1916,1.2036,0.1912,1.5611,0.4938,
10.612482,-0.3491,0.7595,0.2353,-1.7792,-0.1916,1.2036,0.1912,1.5611,0.4938,
10.614926,-0.3491,0.7595,0.2353,-2.1969,-1.7937,-0.7512,0.1912,1.5611,0.4938,
10.616904,-0.3491,0.7595,0.2353,-2.1969,-1.7937,-0.7512,-0.0687,1.8221,0.4906,
10.634210,-0.3491,0.7595,0.2353,-2.1969,-1.7937,-0.7512,-0.3340,1.8014,0.3808,
10.652607,-0.3645,0.6286,0.1371,-2.1969,-1.7937,-0.7512,-0.3340,1.8014,0.3808,
10.656668,-0.3645,0.6286,0.1371,-2.2888,-3.0743,-1.6976,-0.3340,1.8014,0.3808,
10.658620,-0.3645,0.6286,0.1371,-2.2888,-3.0743,-1.6976,-0.5646,1.5606,0.2178,
10.671664,-0.3645,0.6286,0.1371,-2.2888,-3.0743,-1.6976,-0.7659,1.1627,0.0431,
10.691820,-0.3249,0.5778,0.1488,-2.2888,-3.0743,-1.6976,-0.7659,1.1627,0.0431,
10.694729,-0.3249,0.5778,0.1488,-1.7800,-3.4963,-1.7543,-0.7659,1.1627,0.0431,
10.696637,-0.3249,0.5778,0.1488,-1.7800,-3.4963,-1.7543,-0.8943,0.6280,-0.0985,
10.712133,-0.3249,0.5778,0.1488,-1.7800,-3.4963,-1.7543,-0.8309,0.1971,-0.2045,
10.731433,-0.2318,0.6352,0.2770,-1.7800,-3.4963,-1.7543,-0.8309,0.1971,-0.2045,
10.733814,-0.2318,0.6352,0.2770,-0.7582,-2.8092,-0.7868,-0.8309,0.1971,-0.2045,
10.736318,-0.2318,0.6352,0.2770,-0.7582,-2.8092,-0.7868,-0.6061,-0.0740,-0.2844,
10.751630,-0.2318,0.6352,0.2770,-0.7582,-2.8092,-0.7868,-0.3116,-0.2557,-0.3467,
10.771909,-0.2421,0.7556,0.2724,-0.7582,-2.8092,-0.7868,-0.3116,-0.2557,-0.3467,
10.774199,-0.2421,0.7556,0.2724,-0.7694,-1.5435,-1.0073,-0.3116,-0.2557,-0.3467,
10.776242,-0.2421,0.7556,0.2724,-0.7694,-1.5435,-1.0073,-0.0165,-0.3345,-0.3174,
10.791740,-0.2421,0.7556,0.2724,-0.7694,-1.5435,-1.0073,0.1790,-0.3606,-0.2067,
10.811790,-0.2304,0.8905,0.1608,-0.7694,-1.5435,-1.0073,0.1790,-0.3606,-0.2067,
10.814049,-0.2304,0.8905,0.1608,-0.6120,-0.2168,-2.0951,0.1790,-0.3606,-0.2067,
10.816006,-0.2304,0.8905,0.1608,-0.6120,-0.2168,-2.0951,0.2642,-0.2099,-0.0474,
10.832047,-0.2304,0.8905,0.1608,-0.6120,-0.2168,-2.0951,0.2439,0.0469,0.0708,
10.851837,-0.2651,0.9965,0.1297,-0.6120,-0.2168,-2.0951,0.2439,0.0469,0.0708,
10.854236,-0.2651,0.9965,0.1297,-0.9555,0.7796,-2.2951,0.2439,0.0469,0.0708,
10.856154,-0.2651,0.9965,0.1297,-0.9555,0.7796,-2.2951,0.1651,0.2162,0.1507,
10.871649,-0.2651,0.9965,0.1297,-0.9555,0.7796,-2.2951,0.1033,0.2834,0.2360,
10.891182,-0.4744,1.1431,0.2047,-0.9555,0.7796,-2.2951,0.1033,0.2834,0.2360,
10.893663,-0.4744,1.1431,0.2047,-3.0193,2.1800,-1.4733,0.1033,0.2834,0.2360,
10.895442,-0.4744,1.1431,0.2047,-3.0193,2.1800,-1.4733,0.1049,0.3510,0.3537,
10.911745,-0.4744,1.1431,0.2047,-3.0193,2.1800,-1.4733,0.1891,0.3569,0.4453,
10.931032,-0.5167,1.2772,0.3000,-3.0193,2.1800,-1.4733,0.1891,0.3569,0.4453,
10.933513,-0.5167,1.2772,0.3000,-3.5290,3.4490,-0.4640,0.1891,0.3569,0.4453,
10.935369,-0.5167,1.2772,0.3000,-3.5290,3.4490,-0.4640,0.3356,0.3089,0.4256,
10.950940,-0.5167,1.2772,0.3000,-3.5290,3.4490,-0.4640,0.5108,0.2381,0.3483,
10.971534,-0.5123,1.3952,0.4065,-3.5290,3.4490,-0.4640,0.5108,0.2381,0.3483,
10.973937,-0.5123,1.3952,0.4065,-3.5902,4.5264,0.7499,0.5108,0.2381,0.3483,
10.975723,-0.5123,1.3952,0.4065,-3.5902,4.5264,0.7499,0.6583,-0.0027,0.2514,
10.991674,-0.5123,1.3952,0.4065,-3.5902,4.5264,0.7499,0.7952,-0.4586,0.1614,
11.011795,-0.3801,1.2870,0.5143,-3.5902,4.5264,0.7499,0.7952,-0.4586,0.1614,
11.014120,-0.3801,1.2870,0.5143,-2.3987,3.3643,2.0602,0.7952,-0.4586,0.1614,
11.015927,-0.3801,1.2870,0.5143,-2.3987,3.3643,2.0602,0.8932,-1.1350,0.1390,
11.031709,-0.3801,1.2870,0.5143,-2.3987,3.3643,2.0602,0.9199,-1.7103,0.1166,
11.051401,0.0066,0.9330,0.4151,-2.3987,3.3643,2.0602,0.9199,-1.7103,0.1166,
11.054930,0.0066,0.9330,0.4151,1.1830,-0.2142,1.3558,0.9199,-1.7103,0.1166,
11.056778,0.0066,0.9330,0.4151,1.1830,-0.2142,1.3558,0.8501,-1.6911,0.0336,
11.070809,0.0066,0.9330,0.4151,1.1830,-0.2142,1.3558,0.7207,-1.2224,-0.0650,
11.091001,0.2130,0.8690,0.3012,1.1830,-0.2142,1.3558,0.7207,-1.2224,-0.0650,
11.093196,0.2130,0.8690,0.3012,3.0549,-0.9206,0.4656,0.7207,-1.2224,-0.0650,
11.094876,0.2130,0.8690,0.3012,3.0549,-0.9206,0.4656,0.4980,-0.5965,-0.1401,
11.110311,0.2130,0.8690,0.3012,3.0549,-0.9206,0.4656,0.1683,-0.0820,-0.1443,
11.131497,0.0836,0.9137,0.2150,3.0549,-0.9206,0.4656,0.1683,-0.0820,-0.1443,
11.133430,0.0836,0.9137,0.2150,1.7693,-0.5085,-0.2852,0.1683,-0.0820,-0.1443,
11.135311,0.0836,0.9137,0.2150,1.7693,-0.5085,-0.2852,-0.2051,0.2482,-0.0511,
11.150727,0.0836,0.9137,0.2150,1.7693,-0.5085,-0.2852,-0.4804,0.4155,0.1007,
11.170799,-0.0799,0.9276,0.2274,1.7693,-0.5085,-0.2852,-0.4804,0.4155,0.1007,
11.173547,-0.0799,0.9276,0.2274,0.1666,-0.3405,-0.2850,-0.4804,0.4155,0.1007,
11.175517,-0.0799,0.9276,0.2274,0.1666,-0.3405,-0.2850,-0.6370,0.5593,0.1923,
11.190714,-0.0799,0.9276,0.2274,0.1666,-0.3405,-0.2850,-0.5667,0.9950,0.2690,
11.211235,-0.3232,0.9804,0.2790,0.1666,-0.3405,-0.2850,-0.5667,0.9950,0.2690,
11.214436,-0.3232,0.9804,0.2790,-2.2036,0.2321,0.0260,-0.5667,0.9950,0.2690,
11.216736,-0.3232,0.9804,0.2790,-2.2036,0.2321,0.0260,-0.1241,1.8781,0.3249,
11.231682,-0.3232,0.9804,0.2790,-2.2036,0.2321,0.0260,0.7233,2.6323,0.2274,
11.250574,-0.4327,1.0153,0.3775,-2.2036,0.2321,0.0260,0.7233,2.6323,0.2274,
11.252791,-0.4327,1.0153,0.3775,-3.1251,0.5358,1.1903,0.7233,2.6323,0.2274,
11.254437,-0.4327,1.0153,0.3775,-3.1251,0.5358,1.1903,1.5952,2.0416,-0.2791,
11.270438,-0.4327,1.0153,0.3775,-3.1251,0.5358,1.1903,2.1050,0.7579,-0.4570,
11.290330,-0.2604,0.6125,0.0901,-3.1251,0.5358,1.1903,2.1050,0.7579,-0.4570,
11.293373,-0.2604,0.6125,0.0901,-1.1734,-3.5498,-0.8567,2.1050,0.7579,-0.4570,
11.295507,-0.2604,0.6125,0.0901,-1.1734,-3.5498,-0.8567,2.1044,-0.5369,-0.3680,
11.310747,-0.2604,0.6125,0.0901,-1.1734,-3.5498,-0.8567,1.9473,-1.2804,-0.1571,
11.331247,-0.1007,0.4747,-0.0613,-1.1734,-3.5498,-0.8567,1.9473,-1.2804,-0.1571,
11.335062,-0.1007,0.4747,-0.0613,0.4461,-4.9962,-1.6163,1.9473,-1.2804,-0.1571,
11.337076,-0.1007,0.4747,-0.0613,0.4461,-4.9962,-1.6163,1.6437,-1.3492,0.0559,
11.350255,-0.1007,0.4747,-0.0613,0.4461,-4.9962,-1.6163,1.2480,-0.7191,0.2882,
11.370438,0.0603,0.6254,-0.2316,0.4461,-4.9962,-1.6163,1.2480,-0.7191,0.2882,
11.372792,0.0603,0.6254,-0.2316,1.9248,-3.5728,-2.7844,1.2480,-0.7191,0.2882,
11.374613,0.0603,0.6254,-0.2316,1.9248,-3.5728,-2.7844,0.8165,0.3707,0.3388,
11.390559,0.0603,0.6254,-0.2316,1.9248,-3.5728,-2.7844,0.3276,0.8485,0.1822,
11.410431,-0.0261,0.6841,-0.3684,1.9248,-3.5728,-2.7844,0.3276,0.8485,0.1822,
11.412918,-0.0261,0.6841,-0.3684,0.9846,-3.0205,-3.8725,0.3276,0.8485,0.1822,
11.414822,-0.0261,0.6841,-0.3684,0.9846,-3.0205,-3.8725,-0.2253,0.7441,-0.0581,
11.431933,-0.0261,0.6841,-0.3684,0.9846,-3.0205,-3.8725,-0.6599,0.8181,-0.0655,
11.451162,-0.3196,0.9020,-0.2753,0.9846,-3.0205,-3.8725,-0.6599,0.8181,-0.0655,
11.453523,-0.3196,0.9020,-0.2753,-1.8572,-0.8761,-3.0928,-0.6599,0.8181,-0.0655,
11.455507,-0.3196,0.9020,-0.2753,-1.8572,-0.8761,-3.0928,-0.8266,0.9060,0.0341,
11.470377,-0.3196,0.9020,-0.2753,-1.8572,-0.8761,-3.0928,-0.7377,0.8373,0.0847,
11.490183,-0.3181,0.9887,-0.2682,-1.8572,-0.8761,-3.0928,-0.7377,0.8373,0.0847,
11.493240,-0.3181,0.9887,-0.2682,-1.8384,-0.0131,-3.2596,-0.7377,0.8373,0.0847,
11.495079,-0.3181,0.9887,-0.2682,-1.8384,-0.0131,-3.2596,-0.5880,0.5412,0.0186,
11.509805,-0.3181,0.9887,-0.2682,-1.8384,-0.0131,-3.2596,-0.6141,0.2684,-0.2977,
11.529841,-0.5292,1.5015,-0.0682,-1.8384,-0.0131,-3.2596,-0.6141,0.2684,-0.2977,
11.532172,-0.5292,1.5015,-0.0682,-3.8414,5.0373,-1.5104,-0.6141,0.2684,-0.2977,
11.533701,-0.5292,1.5015,-0.0682,-3.8414,5.0373,-1.5104,-0.5848,0.0538,-0.7531,
11.550532,-0.5292,1.5015,-0.0682,-3.8414,5.0373,-1.5104,-0.8416,-1.0418,-0.9822,
11.569525,-0.3767,1.2137,0.0193,-3.8414,5.0373,-1.5104,-0.8416,-1.0418,-0.9822,
11.571229,-0.3767,1.2137,0.0193,-2.0345,2.2972,-0.9589,-0.8416,-1.0418,-0.9822,
11.572701,-0.3767,1.2137,0.0193,-2.0345,2.2972,-0.9589,-1.3428,-1.5340,-0.5854,
11.589106,-0.3767,1.2137,0.0193,-2.0345,2.2972,-0.9589,-0.9422,-1.1297,0.5428,
11.609150,0.3960,1.0713,0.0687,-2.0345,2.2972,-0.9589,-0.9422,-1.1297,0.5428,
11.611517,0.3960,1.0713,0.0687,5.4717,0.9675,-1.0003,-0.9422,-1.1297,0.5428,
11.614139,0.3960,1.0713,0.0687,5.4717,0.9675,-1.0003,-0.7340,-1.3428,0.9385,
11.629085,0.3960,1.0713,0.0687,5.4717,0.9675,-1.0003,-1.0839,-1.7097,-0.3089,
11.649212,-0.0335,1.0674,0.1173,5.4717,0.9675,-1.0003,-1.0839,-1.7097,-0.3089,
11.651389,-0.0335,1.0674,0.1173,1.0280,0.9785,-0.9552,-1.0839,-1.7097,-0.3089,
11.652724,-0.0335,1.0674,0.1173,1.0280,0.9785,-0.9552,-1.6767,-1.9649,-1.1521,
11.669332,-0.0335,1.0674,0.1173,1.0280,0.9785,-0.9552,-2.1609,-2.4213,-1.0067,
11.689949,-0.3371,0.7217,0.6594,1.0280,0.9785,-0.9552,-2.1609,-2.4213,-1.0067,
11.692104,-0.3371,0.7217,0.6594,-1.7642,-2.1523,3.5119,-2.1609,-2.4213,-1.0067,
11.693910,-0.3371,0.7217,0.6594,-1.7642,-2.1523,3.5119,-2.0027,-1.7731,-0.3691,
11.710196,-0.3371,0.7217,0.6594,-1.7642,-2.1523,3.5119,-1.6639,-1.4488,0.1768,
11.729494,-0.0332,0.8111,0.8700,-1.7642,-2.1523,3.5119,-1.6639,-1.4488,0.1768,
11.731946,-0.0332,0.8111,0.8700,1.0284,-1.0135,4.7821,-1.6639,-1.4488,0.1768,
11.733336,-0.0332,0.8111,0.8700,1.0284,-1.0135,4.7821,-1.1516,-1.1878,0.2706,
11.750072,-0.0332,0.8111,0.8700,1.0284,-1.0135,4.7821,-0.5731,-0.5459,0.2471,
11.770043,-0.2431,0.9545,0.7473,1.0284,-1.0135,4.7821,-0.5731,-0.5459,0.2471,
11.773391,-0.2431,0.9545,0.7473,-1.2556,0.5141,3.2306,-0.5731,-0.5459,0.2471,
11.775241,-0.2431,0.9545,0.7473,-1.2556,0.5141,3.2306,-0.1028,0.4346,0.3148,
11.789450,-0.2431,0.9545,0.7473,-1.2556,0.5141,3.2306,0.1433,1.4115,0.4565,
11.809881,-0.3735,0.9042,0.3853,-1.2556,0.5141,3.2306,0.1433,1.4115,0.4565,
11.812240,-0.3735,0.9042,0.3853,-2.5111,0.0043,-0.2750,0.1433,1.4115,0.4565,
11.814082,-0.3735,0.9042,0.3853,-2.5111,0.0043,-0.2750,0.1411,2.1241,0.5140,
11.831974,-0.3735,0.9042,0.3853,-2.5111,0.0043,-0.2750,-0.0373,2.4672,0.5859,
11.850168,-0.3782,0.6555,0.1595,-2.5111,0.0043,-0.2750,-0.0373,2.4672,0.5859,
11.852541,-0.3782,0.6555,0.1595,-2.3610,-2.4644,-2.3562,-0.0373,2.4672,0.5859,
11.854491,-0.3782,0.6555,0.1595,-2.3610,-2.4644,-2.3562,-0.3558,2.4368,0.5854,
11.869581,-0.3782,0.6555,0.1595,-2.3610,-2.4644,-2.3562,-0.6956,2.1060,0.4714,
11.888717,-0.3335,0.5988,0.1527,-2.3610,-2.4644,-2.3562,-0.6956,2.1060,0.4714,
11.890085,-0.3335,0.5988,0.1527,-1.7536,-2.9673,-2.4798,-0.6956,2.1060,0.4714,
11.891088,-0.3335,0.5988,0.1527,-1.7536,-2.9673,-2.4798,-0.9433,1.6597,0.2615,
11.908724,-0.3335,0.5988,0.1527,-1.7536,-2.9673,-2.4798,-1.0216,1.1223,0.0687,
11.928699,-0.2714,0.6220,0.2873,-1.7536,-2.9673,-2.4798,-1.0216,1.1223,0.0687,
11.931313,-0.2714,0.6220,0.2873,-0.9766,-2.5895,-1.4158,-1.0216,1.1223,0.0687,
11.933291,-0.2714,0.6220,0.2873,-0.9766,-2.5895,-1.4158,-0.8895,0.5321,-0.0437,
11.949141,-0.2714,0.6220,0.2873,-0.9766,-2.5895,-1.4158,-0.5555,0.1577,-0.1092,
11.969459,-0.1671,0.6494,0.3921,-0.9766,-2.5895,-1.4158,-0.5555,0.1577,-0.1092,
11.974061,-0.1671,0.6494,0.3921,0.1315,-2.1908,-0.6137,-0.5555,0.1577,-0.1092,
11.975978,-0.1671,0.6494,0.3921,0.1315,-2.1908,-0.6137,-0.0842,-0.1928,-0.1198,
11.988870,-0.1671,0.6494,0.3921,0.1315,-2.1908,-0.6137,0.3622,-0.5246,-0.0778,
12.009365,-0.1266,0.6990,0.2741,0.1315,-2.1908,-0.6137,0.3622,-0.5246,-0.0778,
12.012850,-0.1266,0.6990,0.2741,0.4989,-1.7225,-1.7478,0.3622,-0.5246,-0.0778,
12.014842,-0.1266,0.6990,0.2741,0.4989,-1.7225,-1.7478,0.6269,-0.7372,0.0075,
12.029404,-0.1266,0.6990,0.2741,0.4989,-1.7225,-1.7478,0.6578,-0.6253,0.1230,
12.049484,-0.1957,0.8512,0.1246,0.4989,-1.7225,-1.7478,0.6578,-0.6253,0.1230,
12.051889,-0.1957,0.8512,0.1246,-0.3196,-0.3467,-3.0373,0.6578,-0.6253,0.1230,
12.053732,-0.1957,0.8512,0.1246,-0.3196,-0.3467,-3.0373,0.4650,-0.1406,0.2551,
12.069654,-0.1957,0.8512,0.1246,-0.3196,-0.3467,-3.0373,0.1103,0.4085,0.3579,
12.088866,-0.4002,1.1138,0.2685,-0.3196,-0.3467,-3.0373,0.1103,0.4085,0.3579,
12.091351,-0.4002,1.1138,0.2685,-2.3644,2.1429,-1.4666,0.1103,0.4085,0.3579,
12.093200,-0.4002,1.1138,0.2685,-2.3644,2.1429,-1.4666,-0.1939,0.6408,0.4740,
12.109546,-0.4002,1.1138,0.2685,-2.3644,2.1429,-1.4666,-0.2807,0.6104,0.5726,
12.128503,-0.4955,1.3207,0.4542,-2.3644,2.1429,-1.4666,-0.2807,0.6104,0.5726,
12.129786,-0.4955,1.3207,0.4542,-3.3785,4.1780,0.3080,-0.2807,0.6104,0.5726,
12.130460,-0.4955,1.3207,0.4542,-3.3785,4.1780,0.3080,-0.1507,0.5593,0.5987,
12.148900,-0.4955,1.3207,0.4542,-3.3785,4.1780,0.3080,0.1587,0.5481,0.5758,
12.168185,-0.5113,1.4370,0.4446,-3.3785,4.1780,0.3080,0.1587,0.5481,0.5758,
12.170214,-0.5113,1.4370,0.4446,-3.6484,5.2838,0.2474,0.1587,0.5481,0.5758,
12.172009,-0.5113,1.4370,0.4446,-3.6484,5.2838,0.2474,0.4559,0.4495,0.5262,
12.188455,-0.5113,1.4370,0.4446,-3.6484,5.2838,0.2474,0.6983,-0.0607,0.3643,
12.208040,-0.4439,1.4658,0.4266,-3.6484,5.2838,0.2474,0.6983,-0.0607,0.3643,
12.210079,-0.4439,1.4658,0.4266,-3.1132,5.4509,0.2848,0.6983,-0.0607,0.3643,
12.211560,-0.4439,1.4658,0.4266,-3.1132,5.4509,0.2848,0.8442,-0.6450,0.2530,
12.227854,-0.4439,1.4658,0.4266,-3.1132,5.4509,0.2848,0.7947,-1.0227,0.1971,
12.248928,-0.1317,1.0429,0.4610,-3.1132,5.4509,0.2848,0.7947,-1.0227,0.1971,
12.250976,-0.1317,1.0429,0.4610,-0.2588,1.1731,0.8787,0.7947,-1.0227,0.1971,
12.252746,-0.1317,1.0429,0.4610,-0.2588,1.1731,0.8787,0.7622,-1.3039,0.1475,
12.268587,-0.1317,1.0429,0.4610,-0.2588,1.1731,0.8787,0.7420,-1.5777,0.0277,
12.289184,0.1590,0.8903,0.5323,-0.2588,1.1731,0.8787,0.7420,-1.5777,0.0277,
12.292064,0.1590,0.8903,0.5323,2.3561,-0.4325,1.7987,0.7420,-1.5777,0.0277,
12.293846,0.1590,0.8903,0.5323,2.3561,-0.4325,1.7987,0.6999,-1.8285,-0.0687,
12.308640,0.1590,0.8903,0.5323,2.3561,-0.4325,1.7987,0.5065,-1.6506,-0.1001,
12.328525,0.3249,0.8856,0.4288,2.3561,-0.4325,1.7987,0.5065,-1.6506,-0.1001,
12.330963,0.3249,0.8856,0.4288,3.7782,-0.5553,0.9543,0.5065,-1.6506,-0.1001,
12.332994,0.3249,0.8856,0.4288,3.7782,-0.5553,0.9543,0.1619,-0.9252,-0.0597,
12.348012,0.3379,0.8607,0.4214,3.7782,-0.5553,0.9543,0.1619,-0.9252,-0.0597,
12.349649,0.3379,0.8607,0.4214,3.8563,-0.8093,0.9018,0.1619,-0.9252,-0.0597,
12.350987,0.3379,0.8607,0.4214,3.8563,-0.8093,0.9018,-0.1555,-0.1523,-0.0730,
12.368483,0.2062,0.8387,0.4217,3.8563,-0.8093,0.9018,-0.1555,-0.1523,-0.0730,
12.370603,0.2062,0.8387,0.4217,2.5697,-1.0130,0.8714,-0.1555,-0.1523,-0.0730,
12.372356,0.2062,0.8387,0.4217,2.5697,-1.0130,0.8714,-0.3185,0.1491,-0.1465,
12.389157,0.0621,0.8563,0.4043,2.5697,-1.0130,0.8714,-0.3185,0.1491,-0.1465,
12.391570,0.0621,0.8563,0.4043,1.1939,-0.8180,0.6445,-0.3185,0.1491,-0.1465,
12.393211,0.0621,0.8563,0.4043,1.1939,-0.8180,0.6445,-0.3238,0.1731,-0.1124,
12.408819,-0.0511,0.8705,0.3611,1.1939,-0.8180,0.6445,-0.3238,0.1731,-0.1124,
12.410918,-0.0511,0.8705,0.3611,0.1175,-0.6562,0.1633,-0.3238,0.1731,-0.1124,
12.412664,-0.0511,0.8705,0.3611,0.1175,-0.6562,0.1633,-0.1939,0.2125,-0.0192,
12.428777,-0.1500,0.8670,0.3017,0.1175,-0.6562,0.1633,-0.1939,0.2125,-0.0192,
12.431006,-0.1500,0.8670,0.3017,-0.8342,-0.6763,-0.4514,-0.1939,0.2125,-0.0192,
12.433161,-0.1500,0.8670,0.3017,-0.8342,-0.6763,-0.4514,0.0138,0.3968,0.0826,
12.448422,-0.2704,0.9347,0.2849,-0.8342,-0.6763,-0.4514,0.0138,0.3968,0.0826,
12.450675,-0.2704,0.9347,0.2849,-2.0027,-0.0151,-0.6090,0.0138,0.3968,0.0826,
12.452771,-0.2704,0.9347,0.2849,-2.0027,-0.0151,-0.6090,0.3430,0.9342,0.2056,
12.469137,-0.3398,1.0222,0.3816,-2.0027,-0.0151,-0.6090,0.3430,0.9342,0.2056,
12.471554,-0.3398,1.0222,0.3816,-2.6576,0.8163,0.4143,0.3430,0.9342,0.2056,
12.473347,-0.3398,1.0222,0.3816,-2.6576,0.8163,0.4143,1.0914,2.0533,0.0708,
12.488332,-0.4986,1.0327,0.4019,-2.6576,0.8163,0.4143,1.0914,2.0533,0.0708,
12.490030,-0.4986,1.0327,0.4019,-4.0954,0.8483,0.8442,1.0914,2.0533,0.0708,
12.491366,-0.4986,1.0327,0.4019,-4.0954,0.8483,0.8442,1.8413,1.9068,-0.6748,
12.508212,-0.4114,0.7613,0.2028,-4.0954,0.8483,0.8442,1.8413,1.9068,-0.6748,
12.510044,-0.4114,0.7613,0.2028,-3.0045,-1.9062,-0.7300,1.8413,1.9068,-0.6748,
12.511626,-0.4114,0.7613,0.2028,-3.0045,-1.9062,-0.7300,2.1950,0.2983,-0.8799,
12.528429,-0.3005,0.5497,0.0625,-3.0045,-1.9062,-0.7300,2.1950,0.2983,-0.8799,
12.530023,-0.3005,0.5497,0.0625,-1.7376,-4.0697,-1.6859,2.1950,0.2983,-0.8799,
12.532906,-0.3005,0.5497,0.0625,-1.7376,-4.0697,-1.6859,2.0602,-0.9950,-0.7436,
12.549493,-0.2235,0.4808,-0.0156,-1.7376,-4.0697,-1.6859,2.0602,-0.9950,-0.7436,
12.552693,-0.2235,0.4808,-0.0156,-0.8846,-4.8132,-2.0868,2.0602,-0.9950,-0.7436,
12.555343,-0.2235,0.4808,-0.0156,-0.8846,-4.8132,-2.0868,1.7566,-1.4434,-0.3925,
12.567842,-0.1319,0.5006,-0.0784,-0.8846,-4.8132,-2.0868,1.7566,-1.4434,-0.3925,
12.569957,-0.1319,0.5006,-0.0784,0.0366,-4.6716,-2.4052,1.7566,-1.4434,-0.3925,
12.571844,-0.1319,0.5006,-0.0784,0.0366,-4.6716,-2.4052,1.3252,-1.2101,-0.0192,
12.587610,-0.0581,0.5306,-0.0994,0.0366,-4.6716,-2.4052,1.3252,-1.2101,-0.0192,
12.589640,-0.0581,0.5306,-0.0994,0.7265,-4.4169,-2.3890,1.3252,-1.2101,-0.0192,
12.591525,-0.0581,0.5306,-0.0994,0.7265,-4.4169,-2.3890,0.8314,-0.3531,0.2690,
12.607772,0.0442,0.5490,-0.0772,0.7265,-4.4169,-2.3890,0.8314,-0.3531,0.2690,
12.610179,0.0442,0.5490,-0.0772,1.6684,-4.2664,-2.0199,0.8314,-0.3531,0.2690,
12.612084,0.0442,0.5490,-0.0772,1.6684,-4.2664,-2.0199,0.4293,0.4368,0.4416,
12.627764,0.0928,0.5663,-0.0574,1.6684,-4.2664,-2.0199,0.4293,0.4368,0.4416,
12.630157,0.0928,0.5663,-0.0574,2.0703,-4.1174,-1.7328,0.4293,0.4368,0.4416,
12.632664,0.0928,0.5663,-0.0574,2.0703,-4.1174,-1.7328,0.1278,0.7441,0.4458,
12.647965,0.0860,0.6533,-0.0621,2.0703,-4.1174,-1.7328,0.1278,0.7441,0.4458,
12.650163,0.0860,0.6533,-0.0621,1.9343,-3.2780,-1.7369,0.1278,0.7441,0.4458,
12.652057,0.0860,0.6533,-0.0621,1.9343,-3.2780,-1.7369,0.0186,0.8240,0.3467,
12.667667,-0.0110,0.7923,-0.1160,1.9343,-3.2780,-1.7369,0.0186,0.8240,0.3467,
12.669820,-0.0110,0.7923,-0.1160,0.9352,-1.9235,-2.2449,0.0186,0.8240,0.3467,
12.671687,-0.0110,0.7923,-0.1160,0.9352,-1.9235,-2.2449,0.0133,0.7446,0.1470,
12.686654,-0.1551,0.9330,-0.1683,0.9352,-1.9235,-2.2449,0.0133,0.7446,0.1470,
12.687548,-0.1551,0.9330,-0.1683,-0.4895,-0.5478,-2.7393,0.0133,0.7446,0.1470,
12.688141,-0.1551,0.9330,-0.1683,-0.4895,-0.5478,-2.7393,0.0059,0.6093,-0.1113,
12.706845,-0.3147,1.0503,-0.1996,-0.4895,-0.5478,-2.7393,0.0059,0.6093,-0.1113,
12.707634,-0.3147,1.0503,-0.1996,-2.0182,0.6036,-3.0318,0.0059,0.6093,-0.1113,
12.708119,-0.3147,1.0503,-0.1996,-2.0182,0.6036,-3.0318,0.1103,0.5955,-0.3840,
12.726999,-0.4119,1.1179,-0.2709,-2.0182,0.6036,-3.0318,0.1103,0.5955,-0.3840,
12.728372,-0.4119,1.1179,-0.2709,-2.8843,1.2730,-3.6964,0.1103,0.5955,-0.3840,
12.729528,-0.4119,1.1179,-0.2709,-2.8843,1.2730,-3.6964,0.2173,0.5566,-0.4437,
12.748000,-0.5165,1.4050,-0.2575,-2.8843,1.2730,-3.6964,0.2173,0.5566,-0.4437,
12.750224,-0.5165,1.4050,-0.2575,-3.8120,4.0924,-3.5094,0.2173,0.5566,-0.4437,
12.752110,-0.5165,1.4050,-0.2575,-3.8120,4.0924,-3.5094,0.2567,0.3510,-0.5768,
12.767751,-0.6227,1.8382,-0.2265,-3.8120,4.0924,-3.5094,0.2567,0.3510,-0.5768,
12.770074,-0.6227,1.8382,-0.2265,-4.7353,8.3475,-3.1466,0.2567,0.3510,-0.5768,
12.771996,-0.6227,1.8382,-0.2265,-4.7353,8.3475,-3.1466,0.1481,-0.5428,-0.7601,
12.787955,-0.6051,1.5548,-0.2443,-4.7353,8.3475,-3.1466,0.1481,-0.5428,-0.7601,
12.790343,-0.6051,1.5548,-0.2443,-4.4264,5.5893,-3.3084,0.1481,-0.5428,-0.7601,
12.792266,-0.6051,1.5548,-0.2443,-4.4264,5.5893,-3.3084,-0.5198,-1.0392,-0.6269,
12.807304,-0.2470,1.1929,-0.0843,-4.4264,5.5893,-3.3084,-0.5198,-1.0392,-0.6269,
12.809586,-0.2470,1.1929,-0.0843,-0.8163,2.0731,-1.8723,-0.5198,-1.0392,-0.6269,
12.811376,-0.2470,1.1929,-0.0843,-0.8163,2.0731,-1.8723,-0.7574,-0.7728,0.1300,
12.827196,0.1700,0.9692,-0.0684,-0.8163,2.0731,-1.8723,-0.7574,-0.7728,0.1300,
12.828775,0.1700,0.9692,-0.0684,3.2282,-0.1070,-1.8867,-0.7574,-0.7728,0.1300,
12.830006,0.1700,0.9692,-0.0684,3.2282,-0.1070,-1.8867,-0.8277,-1.2900,0.6402,
12.847683,0.2788,1.0403,-0.0735,3.2282,-0.1070,-1.8867,-0.8277,-1.2900,0.6402,
12.849727,0.2788,1.0403,-0.0735,4.1370,0.5925,-2.1338,-0.8277,-1.2900,0.6402,
12.851548,0.2788,1.0403,-0.0735,4.1370,0.5925,-2.1338,-0.9390,-1.8434,0.4922,
12.867423,0.2424,1.1179,-0.0220,4.1370,0.5925,-2.1338,-0.9390,-1.8434,0.4922,
12.868315,0.2424,1.1179,-0.0220,3.6298,1.3694,-1.8574,-0.9390,-1.8434,0.4922,
12.868936,0.2424,1.1179,-0.0220,3.6298,1.3694,-1.8574,-1.2405,-2.0464,-0.1108,
12.887809,0.1691,1.0271,0.0743,3.6298,1.3694,-1.8574,-1.2405,-2.0464,-0.1108,
12.889657,0.1691,1.0271,0.0743,2.8598,0.5257,-1.2010,-1.2405,-2.0464,-0.1108,
12.890976,0.1691,1.0271,0.0743,2.8598,0.5257,-1.2010,-1.5920,-2.4517,-0.5412,
12.907604,0.0330,0.9364,0.2155,2.8598,0.5257,-1.2010,-1.5920,-2.4517,-0.5412,
12.909378,0.0330,0.9364,0.2155,1.5256,-0.2824,-0.1784,-1.5920,-2.4517,-0.5412,
12.910831,0.0330,0.9364,0.2155,1.5256,-0.2824,-0.1784,-1.8935,-2.8347,-0.6349,
12.926936,-0.1534,0.8893,0.5849,1.5256,-0.2824,-0.1784,-1.8935,-2.8347,-0.6349,
12.929449,-0.1534,0.8893,0.5849,-0.3235,-0.6349,3.0188,-1.8935,-2.8347,-0.6349,
12.931250,-0.1534,0.8893,0.5849,-0.3235,-0.6349,3.0188,-1.8482,-2.3825,-0.4250,
12.948009,-0.1693,0.9389,0.7119,-0.3235,-0.6349,3.0188,-1.8482,-2.3825,-0.4250,
12.950149,-0.1693,0.9389,0.7119,-0.5388,-0.0317,3.8664,-1.8482,-2.3825,-0.4250,
12.952227,-0.1693,0.9389,0.7119,-0.5388,-0.0317,3.8664,-1.5809,-1.9063,-0.1305,
12.967026,-0.2011,1.0122,0.9032,-0.5388,-0.0317,3.8664,-1.5809,-1.9063,-0.1305,
12.969863,-0.2011,1.0122,0.9032,-0.9509,0.7929,5.4102,-1.5809,-1.9063,-0.1305,
12.971623,-0.2011,1.0122,0.9032,-0.9509,0.7929,5.4102,-0.9955,-1.1691,0.0799,
12.986991,-0.2433,1.0967,0.8978,-0.9509,0.7929,5.4102,-0.9955,-1.1691,0.0799,
12.989051,-0.2433,1.0967,0.8978,-1.4622,1.6901,5.1542,-0.9955,-1.1691,0.0799,
12.990734,-0.2433,1.0967,0.8978,-1.4622,1.6901,5.1542,-0.2205,0.1742,0.3052,
13.007709,-0.3349,1.0354,0.6674,-1.4622,1.6901,5.1542,-0.2205,0.1742,0.3052,
13.009993,-0.3349,1.0354,0.6674,-2.4025,1.0998,2.8598,-0.2205,0.1742,0.3052,
13.011723,-0.3349,1.0354,0.6674,-2.4025,1.0998,2.8598,0.3281,1.7603,0.4740,
13.028783,-0.4085,0.8644,0.4378,-2.4025,1.0998,2.8598,0.3281,1.7603,0.4740,
13.030463,-0.4085,0.8644,0.4378,-3.0811,-0.6085,0.7003,0.3281,1.7603,0.4740,
13.031932,-0.4085,0.8644,0.4378,-3.0811,-0.6085,0.7003,0.3686,2.6861,0.6413,
13.047571,-0.3965,0.7016,0.2878,-3.0811,-0.6085,0.7003,0.3686,2.6861,0.6413,
13.049823,-0.3965,0.7016,0.2878,-2.8910,-2.2413,-0.6515,0.3686,2.6861,0.6413,
13.051960,-0.3965,0.7016,0.2878,-2.8910,-2.2413,-0.6515,0.0644,2.7122,0.7697,
13.067021,-0.3530,0.5854,0.1766,-2.8910,-2.2413,-0.6515,0.0644,2.7122,0.7697,
13.069273,-0.3530,0.5854,0.1766,-2.4189,-3.4010,-1.6740,0.0644,2.7122,0.7697,
13.071190,-0.3530,0.5854,0.1766,-2.4189,-3.4010,-1.6740,-0.3734,2.2291,0.7159,
13.087615,-0.3122,0.5118,0.1251,-2.4189,-3.4010,-1.6740,-0.3734,2.2291,0.7159,
13.090134,-0.3122,0.5118,0.1251,-1.9976,-4.1112,-2.2005,-0.3734,2.2291,0.7159,
13.092235,-0.3122,0.5118,0.1251,-1.9976,-4.1112,-2.2005,-0.8208,1.7438,0.4847,
13.107617,-0.2585,0.4732,0.1774,-1.9976,-4.1112,-2.2005,-0.8208,1.7438,0.4847,
13.110108,-0.2585,0.4732,0.1774,-1.4377,-4.4429,-1.7997,-0.8208,1.7438,0.4847,
13.112098,-0.2585,0.4732,0.1774,-1.4377,-4.4429,-1.7997,-1.1068,1.2879,0.1513,
13.127016,-0.2157,0.4678,0.2612,-1.4377,-4.4429,-1.7997,-1.1068,1.2879,0.1513,
13.129422,-0.2157,0.4678,0.2612,-0.9529,-4.4189,-1.1492,-1.1068,1.2879,0.1513,
13.131415,-0.2157,0.4678,0.2612,-0.9529,-4.4189,-1.1492,-1.0876,0.8325,-0.1795,
13.146929,-0.1735,0.4837,0.3249,-0.9529,-4.4189,-1.1492,-1.0876,0.8325,-0.1795,
13.149369,-0.1735,0.4837,0.3249,-0.4435,-4.1765,-0.6987,-1.0876,0.8325,-0.1795,
13.151332,-0.1735,0.4837,0.3249,-0.4435,-4.1765,-0.6987,-0.8485,0.2663,-0.4256,
13.166664,-0.1522,0.5196,0.3577,-0.4435,-4.1765,-0.6987,-0.8485,0.2663,-0.4256,
13.169211,-0.1522,0.5196,0.3577,-0.1388,-3.7465,-0.5213,-0.8485,0.2663,-0.4256,
13.171090,-0.1522,0.5196,0.3577,-0.1388,-3.7465,-0.5213,-0.4943,-0.3665,-0.5614,
13.187161,-0.1402,0.5719,0.3674,-0.1388,-3.7465,-0.5213,-0.4943,-0.3665,-0.5614,
13.189738,-0.1402,0.5719,0.3674,0.0474,-3.1784,-0.5226,-0.4943,-0.3665,-0.5614,
13.191533,-0.1402,0.5719,0.3674,0.0474,-3.1784,-0.5226,-0.0964,-0.8922,-0.5880,
13.206529,-0.1559,0.6362,0.3305,0.0474,-3.1784,-0.5226,-0.0964,-0.8922,-0.5880,
13.208718,-0.1559,0.6362,0.3305,-0.0767,-2.5239,-0.9266,-0.0964,-0.8922,-0.5880,
13.210720,-0.1559,0.6362,0.3305,-0.0767,-2.5239,-0.9266,0.2684,-1.1894,-0.5017,
13.226827,-0.1874,0.7356,0.2553,-0.0767,-2.5239,-0.9266,0.2684,-1.1894,-0.5017,
13.229103,-0.1874,0.7356,0.2553,-0.3965,-1.5573,-1.6514,0.2684,-1.1894,-0.5017,
13.230978,-0.1874,0.7356,0.2553,-0.3965,-1.5573,-1.6514,0.5055,-1.1329,-0.2631,
13.246158,-0.2111,0.8656,0.1730,-0.3965,-1.5573,-1.6514,0.5055,-1.1329,-0.2631,
13.248600,-0.2111,0.8656,0.1730,-0.6759,-0.3178,-2.4016,0.5055,-1.1329,-0.2631,
13.250469,-0.2111,0.8656,0.1730,-0.6759,-0.3178,-2.4016,0.5444,-0.6253,0.0479,
13.267332,-0.2365,1.0207,0.1434,-0.6759,-0.3178,-2.4016,0.5444,-0.6253,0.0479,
13.269648,-0.2365,1.0207,0.1434,-0.9840,1.1572,-2.6125,0.5444,-0.6253,0.0479,
13.271526,-0.2365,1.0207,0.1434,-0.9840,1.1572,-2.6125,0.4021,0.1832,0.2945,
