
time,gFx,gFy,gFz,ax,ay,az,wx,wy,wz,
0.018608,0.3647,0.0340,1.0307,0.0000,0.0000,0.0000,0.0000,0.0000,0.0000,
0.020033,0.3647,0.0340,1.0307,0.0000,0.0000,0.0000,-0.3116,-0.0368,-0.9055,
0.038246,0.3647,0.0340,1.0307,0.0000,0.0000,0.0000,-0.3116,-0.0368,-0.9055,
0.058037,0.3511,0.0032,1.2086,0.0000,0.0000,0.0000,-0.3116,-0.0368,-0.9055,
0.059473,0.3511,0.0032,1.2086,0.7049,0.0064,2.4268,-0.3116,-0.0368,-0.9055,
0.060682,0.3511,0.0032,1.2086,0.7049,0.0064,2.4268,-0.3116,-0.0368,-0.9055,
0.077692,0.3511,0.0032,1.2086,0.7049,0.0064,2.4268,-0.3116,-0.0368,-0.9055,
0.098378,0.4302,0.0279,1.0007,0.7049,0.0064,2.4268,-0.3116,-0.0368,-0.9055,
0.102053,0.4302,0.0279,1.0007,1.0264,0.1589,0.5340,-0.3116,-0.0368,-0.9055,
0.103664,0.4302,0.0279,1.0007,1.0264,0.1589,0.5340,2.0187,1.1840,-0.5838,
0.117338,0.4302,0.0279,1.0007,1.0264,0.1589,0.5340,1.8834,1.2879,-0.9545,
0.137798,0.3134,0.1815,0.8988,1.0264,0.1589,0.5340,1.8834,1.2879,-0.9545,
0.140235,0.3134,0.1815,0.8988,-0.1231,1.0050,-0.4310,1.8834,1.2879,-0.9545,
0.142396,0.3134,0.1815,0.8988,-0.1231,1.0050,-0.4310,1.6464,1.4892,-1.2282,
0.157661,0.3134,0.1815,0.8988,-0.1231,1.0050,-0.4310,1.5334,1.4131,-1.3305,
0.177873,0.1314,0.2761,0.9447,-0.1231,1.0050,-0.4310,1.5334,1.4131,-1.3305,
0.179848,0.1314,0.2761,0.9447,-1.1573,1.1216,-0.1055,1.5334,1.4131,-1.3305,
0.181416,0.1314,0.2761,0.9447,-1.1573,1.1216,-0.1055,1.4978,1.0823,-1.4195,
0.197293,0.1314,0.2761,0.9447,-1.1573,1.1216,-0.1055,1.4504,0.9497,-1.5063,
0.217338,-0.0467,0.3977,0.9076,-1.1573,1.1216,-0.1055,1.4504,0.9497,-1.5063,
0.219498,-0.0467,0.3977,0.9076,-1.7087,1.2842,-0.4743,1.4504,0.9497,-1.5063,
0.221399,-0.0467,0.3977,0.9076,-1.7087,1.2842,-0.4743,1.4232,0.9864,-1.5191,
0.237769,-0.0467,0.3977,0.9076,-1.7087,1.2842,-0.4743,1.5324,1.1627,-1.4243,
0.257386,-0.2204,0.4363,0.9215,-1.7087,1.2842,-0.4743,1.5324,1.1627,-1.4243,
0.259566,-0.2204,0.4363,0.9215,-1.9448,0.9483,-0.1914,1.5324,1.1627,-1.4243,
0.261516,-0.2204,0.4363,0.9215,-1.9448,0.9483,-0.1914,1.6213,1.1500,-1.2261,
0.277419,-0.2204,0.4363,0.9215,-1.9448,0.9483,-0.1914,1.5484,0.7063,-1.1292,
0.297383,-0.3103,0.4566,0.7380,-1.9448,0.9483,-0.1914,1.5484,0.7063,-1.1292,
0.299641,-0.3103,0.4566,0.7380,-1.5358,0.4501,-1.5823,1.5484,0.7063,-1.1292,
0.301645,-0.3103,0.4566,0.7380,-1.5358,0.4501,-1.5823,1.3316,0.3127,-1.1531,
0.318080,-0.3103,0.4566,0.7380,-1.5358,0.4501,-1.5823,1.0749,0.0650,-1.0823,
0.337314,-0.3459,0.5360,0.6528,-1.5358,0.4501,-1.5823,1.0749,0.0650,-1.0823,
0.339540,-0.3459,0.5360,0.6528,-1.6262,0.8795,-2.2011,1.0749,0.0650,-1.0823,
0.341433,-0.3459,0.5360,0.6528,-1.6262,0.8795,-2.2011,0.8469,-0.0431,-0.8986,
0.357282,-0.3459,0.5360,0.6528,-1.6262,0.8795,-2.2011,0.8059,0.2360,-0.8181,
0.377826,-0.3506,0.5182,0.6863,-1.6262,0.8795,-2.2011,0.8059,0.2360,-0.8181,
0.380285,-0.3506,0.5182,0.6863,-1.4767,0.4820,-1.7132,0.8059,0.2360,-0.8181,
0.382181,-0.3506,0.5182,0.6863,-1.4767,0.4820,-1.7132,0.7175,0.3286,-0.6626,
0.397265,-0.3506,0.5182,0.6863,-1.4767,0.4820,-1.7132,0.5252,0.3404,-0.5997,
0.416904,-0.3379,0.5534,0.6689,-1.4767,0.4820,-1.7132,0.5252,0.3404,-0.5997,
0.419415,-0.3379,0.5534,0.6689,-1.1126,0.6646,-1.7329,0.5252,0.3404,-0.5997,
0.421234,-0.3379,0.5534,0.6689,-1.1126,0.6646,-1.7329,0.3260,0.1976,-0.6195,
0.437039,-0.3379,0.5534,0.6689,-1.1126,0.6646,-1.7329,0.1896,0.1406,-0.5955,
0.457520,-0.3941,0.6240,0.7444,-1.1126,0.6646,-1.7329,0.1896,0.1406,-0.5955,
0.460376,-0.3941,0.6240,0.7444,-1.4575,1.2995,-0.9026,0.1896,0.1406,-0.5955,
0.462512,-0.3941,0.6240,0.7444,-1.4575,1.2995,-0.9026,0.2487,0.3228,-0.4378,
0.477571,-0.3941,0.6240,0.7444,-1.4575,1.2995,-0.9026,0.6440,0.6812,-0.1731,
0.496935,-0.4256,0.6853,0.8328,-1.4575,1.2995,-0.9026,0.6440,0.6812,-0.1731,
0.498863,-0.4256,0.6853,0.8328,-1.5274,1.7706,0.1164,0.6440,0.6812,-0.1731,
0.500662,-0.4256,0.6853,0.8328,-1.5274,1.7706,0.1164,1.0274,0.9215,0.1230,
0.517272,-0.4256,0.6853,0.8328,-1.5274,1.7706,0.1164,1.1974,0.5236,0.1417,
0.536919,-0.2660,0.5834,0.5795,-1.5274,1.7706,0.1164,1.1974,0.5236,0.1417,
0.539765,-0.2660,0.5834,0.5795,0.2517,0.3849,-2.0386,1.1974,0.5236,0.1417,
0.541379,-0.2660,0.5834,0.5795,0.2517,0.3849,-2.0386,1.0860,0.4069,-0.0389,
0.556621,-0.2660,0.5834,0.5795,0.2517,0.3849,-2.0386,0.7878,0.4400,-0.2700,
0.577369,-0.4107,0.7051,0.5712,0.2517,0.3849,-2.0386,0.7878,0.4400,-0.2700,
0.579352,-0.4107,0.7051,0.5712,-0.9824,1.2821,-1.8351,0.7878,0.4400,-0.2700,
0.581216,-0.4107,0.7051,0.5712,-0.9824,1.2821,-1.8351,0.3931,0.1816,-0.3409,
0.596121,-0.4107,0.7051,0.5712,-0.9824,1.2821,-1.8351,0.3057,0.2599,-0.3111,
0.616156,-0.4740,0.6775,0.8143,-0.9824,1.2821,-1.8351,0.3057,0.2599,-0.3111,
0.618276,-0.4740,0.6775,0.8143,-1.4518,0.9405,0.6654,0.3057,0.2599,-0.3111,
0.619994,-0.4740,0.6775,0.8143,-1.4518,0.9405,0.6654,0.9859,0.7340,-0.1614,
0.636135,-0.4740,0.6775,0.8143,-1.4518,0.9405,0.6654,1.3231,1.1223,0.1502,
0.656704,-0.4769,0.6853,0.5609,-1.4518,0.9405,0.6654,1.3231,1.1223,0.1502,
0.658707,-0.4769,0.6853,0.5609,-1.1955,0.6788,-1.4043,1.3231,1.1223,0.1502,
0.660496,-0.4769,0.6853,0.5609,-1.1955,0.6788,-1.4043,1.3406,1.0642,0.2919,
0.676809,-0.4769,0.6853,0.5609,-1.1955,0.6788,-1.4043,1.0408,0.8719,0.1774,
0.696177,-0.4361,0.6555,0.4766,-1.1955,0.6788,-1.4043,1.0408,0.8719,0.1774,
0.698122,-0.4361,0.6555,0.4766,-0.5723,0.0263,-1.7744,1.0408,0.8719,0.1774,
0.699451,-0.4361,0.6555,0.4766,-0.5723,0.0263,-1.7744,0.6461,0.9635,0.0538,
0.716191,-0.4361,0.6555,0.4766,-0.5723,0.0263,-1.7744,0.5188,0.9444,-0.1406,
0.736494,-0.4891,0.6992,0.6809,-0.5723,0.0263,-1.7744,0.5188,0.9444,-0.1406,
0.739251,-0.4891,0.6992,0.6809,-0.8279,0.3166,0.5299,0.5188,0.9444,-0.1406,
0.740919,-0.4891,0.6992,0.6809,-0.8279,0.3166,0.5299,0.6786,0.9215,-0.1779,
0.756341,-0.4891,0.6992,0.6809,-0.8279,0.3166,0.5299,0.8709,0.5843,-0.0858,
0.777386,-0.4324,0.6755,0.5414,-0.8279,0.3166,0.5299,0.8709,0.5843,-0.0858,
0.779447,-0.4324,0.6755,0.5414,-0.0518,-0.0772,-0.5079,0.8709,0.5843,-0.0858,
0.781481,-0.4324,0.6755,0.5414,-0.0518,-0.0772,-0.5079,0.8064,0.6056,-0.1427,
0.796482,-0.4324,0.6755,0.5414,-0.0518,-0.0772,-0.5079,0.6796,0.6631,-0.1465,
0.816237,-0.4217,0.6281,0.4146,-0.0518,-0.0772,-0.5079,0.6796,0.6631,-0.1465,
0.818591,-0.4217,0.6281,0.4146,0.2381,-0.6851,-1.4394,0.6796,0.6631,-0.1465,
0.820343,-0.4217,0.6281,0.4146,0.2381,-0.6851,-1.4394,0.5768,0.4682,-0.2434,
0.836170,-0.4217,0.6281,0.4146,0.2381,-0.6851,-1.4394,0.6157,0.6477,-0.4250,
0.856301,-0.6350,0.7380,0.4950,0.2381,-0.6851,-1.4394,0.6157,0.6477,-0.4250,
0.858545,-0.6350,0.7380,0.4950,-1.6197,0.3293,-0.3768,0.6157,0.6477,-0.4250,
0.860377,-0.6350,0.7380,0.4950,-1.6197,0.3293,-0.3768,0.8815,0.6583,-0.3883,
0.876463,-0.6350,0.7380,0.4950,-1.6197,0.3293,-0.3768,1.3060,0.3665,-0.3270,
0.896773,-0.3486,0.7850,0.3215,-1.6197,0.3293,-0.3768,1.3060,0.3665,-0.3270,
0.898973,-0.3486,0.7850,0.3215,1.3844,0.6270,-1.6657,1.3060,0.3665,-0.3270,
0.900687,-0.3486,0.7850,0.3215,1.3844,0.6270,-1.6657,1.8759,0.0969,-0.2961,
0.916184,-0.3486,0.7850,0.3215,1.3844,0.6270,-1.6657,2.1412,0.4698,-0.1523,
0.936171,-0.4346,0.7874,0.2763,1.3844,0.6270,-1.6657,2.1412,0.4698,-0.1523,
0.938212,-0.4346,0.7874,0.2763,0.6500,0.3240,-1.4660,2.1412,0.4698,-0.1523,
0.939928,-0.4346,0.7874,0.2763,0.6500,0.3240,-1.4660,2.1854,0.1779,0.1790,
0.955874,-0.4346,0.7874,0.2763,0.6500,0.3240,-1.4660,2.1854,-0.7776,0.5577,
0.977063,-0.4603,0.8839,0.1720,0.6500,0.3240,-1.4660,2.1854,-0.7776,0.5577,
0.978921,-0.4603,0.8839,0.1720,0.2381,0.8505,-1.8636,2.1854,-0.7776,0.5577,
0.980582,-0.4603,0.8839,0.1720,0.2381,0.8505,-1.8636,1.5920,-1.0072,0.7361,
0.996032,-0.4603,0.8839,0.1720,0.2381,0.8505,-1.8636,1.0322,-1.0045,0.7159,
1.015920,-0.4503,0.9560,0.2599,0.2381,0.8505,-1.8636,1.0322,-1.0045,0.7159,
1.018226,-0.4503,0.9560,0.2599,-0.0334,1.2350,-0.7451,1.0322,-1.0045,0.7159,
1.020031,-0.4503,0.9560,0.2599,-0.0334,1.2350,-0.7451,0.6647,-0.9177,0.6104,
1.035612,-0.4503,0.9560,0.2599,-0.0334,1.2350,-0.7451,0.2743,-0.6221,0.4868,
1.056121,-0.4867,0.8311,0.2658,-0.0334,1.2350,-0.7451,0.2743,-0.6221,0.4868,
1.058331,-0.4867,0.8311,0.2658,-0.6551,-0.1440,-0.6408,0.2743,-0.6221,0.4868,
1.059982,-0.4867,0.8311,0.2658,-0.6551,-0.1440,-0.6408,0.1475,-0.3957,0.3057,
1.076773,-0.4867,0.8311,0.2658,-0.6551,-0.1440,-0.6408,0.2679,-0.4075,0.2913,
1.095790,-0.5177,0.9491,0.3369,-0.6551,-0.1440,-0.6408,0.2679,-0.4075,0.2913,
1.098053,-0.5177,0.9491,0.3369,-1.1020,0.9385,0.0675,0.2679,-0.4075,0.2913,
1.099772,-0.5177,0.9491,0.3369,-1.1020,0.9385,0.0675,0.5790,-0.2546,0.2786,
1.116270,-0.5177,0.9491,0.3369,-1.1020,0.9385,0.0675,0.8682,0.0117,0.2557,
1.136043,-0.5609,1.0493,0.3411,-1.1020,0.9385,0.0675,0.8682,0.0117,0.2557,
1.139742,-0.5609,1.0493,0.3411,-1.6312,1.7879,0.3328,0.8682,0.0117,0.2557,
1.141822,-0.5609,1.0493,0.3411,-1.6312,1.7879,0.3328,1.0882,0.3159,0.1545,
1.155821,-0.5609,1.0493,0.3411,-1.6312,1.7879,0.3328,1.3550,0.3526,-0.0389,
1.176804,-0.5216,1.1375,0.3638,-1.6312,1.7879,0.3328,1.3550,0.3526,-0.0389,
1.178982,-0.5216,1.1375,0.3638,-1.2282,2.5079,1.0255,1.3550,0.3526,-0.0389,
1.180735,-0.5216,1.1375,0.3638,-1.2282,2.5079,1.0255,1.5180,0.4852,-0.2003,
1.196359,-0.5216,1.1375,0.3638,-1.2282,2.5079,1.0255,1.4552,0.5907,-0.3105,
1.216939,-0.5490,1.0537,0.4009,-1.2282,2.5079,1.0255,1.4552,0.5907,-0.3105,
1.218960,-0.5490,1.0537,0.4009,-1.3598,1.5939,1.9903,1.4552,0.5907,-0.3105,
1.220741,-0.5490,1.0537,0.4009,-1.3598,1.5939,1.9903,1.2970,0.5289,-0.3228,
1.235563,-0.5490,1.0537,0.4009,-1.3598,1.5939,1.9903,1.1649,0.4011,-0.2812,
1.255696,-0.4376,0.9354,0.4048,-1.3598,1.5939,1.9903,1.1649,0.4011,-0.2812,
1.257818,-0.4376,0.9354,0.4048,-0.1310,0.4017,2.5348,1.1649,0.4011,-0.2812,
1.259464,-0.4376,0.9354,0.4048,-0.1310,0.4017,2.5348,0.9428,0.4922,-0.2104,
1.275401,-0.4376,0.9354,0.4048,-0.1310,0.4017,2.5348,0.5507,0.7308,-0.0804,
1.296474,-0.5631,0.7720,0.3408,-0.1310,0.4017,2.5348,0.5507,0.7308,-0.0804,
1.298675,-0.5631,0.7720,0.3408,-1.2809,-1.2133,2.2717,0.5507,0.7308,-0.0804,
1.300624,-0.5631,0.7720,0.3408,-1.2809,-1.2133,2.2717,0.1182,0.4495,0.1049,
1.316225,-0.5631,0.7720,0.3408,-1.2809,-1.2133,2.2717,-0.1699,0.1763,0.2083,
1.335875,-0.4522,0.6687,0.2792,-1.2809,-1.2133,2.2717,-0.1699,0.1763,0.2083,
1.338103,-0.4522,0.6687,0.2792,-0.2071,-2.2276,1.6293,-0.1699,0.1763,0.2083,
1.339951,-0.4522,0.6687,0.2792,-0.2071,-2.2276,1.6293,-0.3537,0.1523,0.2056,
1.355795,-0.4522,0.6687,0.2792,-0.2071,-2.2276,1.6293,-0.5209,0.2876,0.1800,
1.376773,-0.4906,0.6648,0.2536,-0.2071,-2.2276,1.6293,-0.5209,0.2876,0.1800,
1.379060,-0.4906,0.6648,0.2536,-0.6239,-2.2659,1.2323,-0.5209,0.2876,0.1800,
1.380934,-0.4906,0.6648,0.2536,-0.6239,-2.2659,1.2323,-0.5971,0.4421,0.0858,
1.395978,-0.4906,0.6648,0.2536,-0.6239,-2.2659,1.2323,-0.6258,0.3574,0.0463,
1.415338,-0.5702,0.7534,0.1615,-0.6239,-2.2659,1.2323,-0.6258,0.3574,0.0463,
1.417883,-0.5702,0.7534,0.1615,-1.3829,-1.3611,0.1630,-0.6258,0.3574,0.0463,
1.419551,-0.5702,0.7534,0.1615,-1.3829,-1.3611,0.1630,-0.7734,0.0160,0.0666,
1.435734,-0.5702,0.7534,0.1615,-1.3829,-1.3611,0.1630,-0.9742,-0.3254,0.0101,
1.457327,-0.4586,0.8727,0.0525,-1.3829,-1.3611,0.1630,-0.9742,-0.3254,0.0101,
1.459952,-0.4586,0.8727,0.0525,-0.2917,-0.1346,-1.2323,-0.9742,-0.3254,0.0101,
1.461810,-0.4586,0.8727,0.0525,-0.2917,-0.1346,-1.2323,-1.2320,-0.3606,-0.1752,
1.475582,-0.4586,0.8727,0.0525,-0.2917,-0.1346,-1.2323,-1.3971,-0.1859,-0.2157,
1.495619,-0.5397,0.7994,0.1063,-0.2917,-0.1346,-1.2323,-1.3971,-0.1859,-0.2157,
1.499018,-0.5397,0.7994,0.1063,-1.0151,-0.7075,-1.1839,-1.3971,-0.1859,-0.2157,
1.501145,-0.5397,0.7994,0.1063,-1.0151,-0.7075,-1.1839,-1.3886,-0.3073,-0.1747,
1.515367,-0.5397,0.7994,0.1063,-1.0151,-0.7075,-1.1839,-1.3097,-0.3856,-0.2972,
1.536492,-0.5231,0.8116,0.0809,-1.0151,-0.7075,-1.1839,-1.3097,-0.3856,-0.2972,
1.539974,-0.5231,0.8116,0.0809,-0.7809,-0.4128,-1.9086,-1.3097,-0.3856,-0.2972,
1.542030,-0.5231,0.8116,0.0809,-0.7809,-0.4128,-1.9086,-1.2016,-0.1641,-0.4005,
1.555892,-0.5231,0.8116,0.0809,-0.7809,-0.4128,-1.9086,-0.9699,-0.1603,-0.5241,
1.575273,-0.6968,0.8072,-0.1515,-0.7809,-0.4128,-1.9086,-0.9699,-0.1603,-0.5241,
1.576525,-0.6968,0.8072,-0.1515,-2.3041,-0.2546,-4.4901,-0.9699,-0.1603,-0.5241,
1.577443,-0.6968,0.8072,-0.1515,-2.3041,-0.2546,-4.4901,-0.3521,-0.1960,-0.5209,
1.595266,-0.6968,0.8072,-0.1515,-2.3041,-0.2546,-4.4901,-0.3862,-0.1156,-0.4964,
1.615769,-0.6831,0.6640,-0.1825,-2.3041,-0.2546,-4.4901,-0.3862,-0.1156,-0.4964,
1.617549,-0.6831,0.6640,-0.1825,-1.9864,-1.5223,-4.8756,-0.3862,-0.1156,-0.4964,
1.619074,-0.6831,0.6640,-0.1825,-1.9864,-1.5223,-4.8756,-0.4927,0.1150,-0.6338,
1.635643,-0.6831,0.6640,-0.1825,-1.9864,-1.5223,-4.8756,-0.1140,0.2344,-0.9486,
1.654636,-0.7046,0.7009,0.0046,-1.9864,-1.5223,-4.8756,-0.1140,0.2344,-0.9486,
1.657011,-0.7046,0.7009,0.0046,-1.8830,-0.9705,-3.0358,-0.1140,0.2344,-0.9486,
1.658553,-0.7046,0.7009,0.0046,-1.8830,-0.9705,-3.0358,0.3201,0.0788,-1.3113,
1.676501,-0.7046,0.7009,0.0046,-1.8830,-0.9705,-3.0358,0.8352,0.2200,-1.9074,
1.695297,-0.7207,0.5990,0.1300,-1.8830,-0.9705,-3.0358,0.8352,0.2200,-1.9074,
1.698245,-0.7207,0.5990,0.1300,-1.4939,-1.6910,-1.5511,0.8352,0.2200,-1.9074,
1.700377,-0.7207,0.5990,0.1300,-1.4939,-1.6910,-1.5511,1.2027,0.1949,-2.4080,
1.714968,-0.7207,0.5990,0.1300,-1.4939,-1.6910,-1.5511,1.4967,-0.1518,-2.6674,
1.735043,-0.6682,0.4732,0.2123,-1.4939,-1.6910,-1.5511,1.4967,-0.1518,-2.6674,
1.737876,-0.6682,0.4732,0.2123,-0.2316,-2.4613,-0.3439,1.4967,-0.1518,-2.6674,
1.739710,-0.6682,0.4732,0.2123,-0.2316,-2.4613,-0.3439,1.8386,-0.3063,-2.7857,
1.755144,-0.6682,0.4732,0.2123,-0.2316,-2.4613,-0.3439,1.5180,-0.2594,-2.4458,
1.777104,-0.5179,0.4398,0.1827,-0.2316,-2.4613,-0.3439,1.5180,-0.2594,-2.4458,
1.781073,-0.5179,0.4398,0.1827,1.9296,-2.2424,-0.2505,1.5180,-0.2594,-2.4458,
1.783478,-0.5179,0.4398,0.1827,1.9296,-2.2424,-0.2505,1.0061,-0.2983,-1.8717,
1.798098,-0.5179,0.4398,0.1827,1.9296,-2.2424,-0.2505,0.9550,-0.2035,-1.2549,
1.814755,-0.3007,0.5526,0.2670,1.9296,-2.2424,-0.2505,0.9550,-0.2035,-1.2549,
1.816763,-0.3007,0.5526,0.2670,4.4356,-0.7638,0.7519,0.9550,-0.2035,-1.2549,
1.818464,-0.3007,0.5526,0.2670,4.4356,-0.7638,0.7519,1.1787,-0.3217,-0.3521,
1.834777,-0.3007,0.5526,0.2670,4.4356,-0.7638,0.7519,1.2954,-0.5039,0.4884,
1.856238,-0.3506,0.4300,0.0239,4.4356,-0.7638,0.7519,1.2954,-0.5039,0.4884,
1.858241,-0.3506,0.4300,0.0239,3.9009,-2.0729,-1.4455,1.2954,-0.5039,0.4884,
1.860084,-0.3506,0.4300,0.0239,3.9009,-2.0729,-1.4455,1.2677,-0.4831,1.0466,
1.874807,-0.3506,0.4300,0.0239,3.9009,-2.0729,-1.4455,1.2037,0.0208,1.4530,
1.895552,-0.1307,0.5700,-0.0425,3.9009,-2.0729,-1.4455,1.2037,0.0208,1.4530,
1.897778,-0.1307,0.5700,-0.0425,5.7155,-1.1362,-1.8436,1.2037,0.0208,1.4530,
1.899575,-0.1307,0.5700,-0.0425,5.7155,-1.1362,-1.8436,1.2453,0.4085,1.7385,
1.914442,-0.1307,0.5700,-0.0425,5.7155,-1.1362,-1.8436,1.3305,0.7574,2.2578,
1.936241,-0.2929,0.6687,-0.0195,5.7155,-1.1362,-1.8436,1.3305,0.7574,2.2578,
1.938460,-0.2929,0.6687,-0.0195,3.5920,-0.7666,-1.1019,1.3305,0.7574,2.2578,
1.940259,-0.2929,0.6687,-0.0195,3.5920,-0.7666,-1.1019,1.2474,0.6184,2.9678,
1.954904,-0.2929,0.6687,-0.0195,3.5920,-0.7666,-1.1019,1.3220,1.0946,3.7732,
1.975297,-0.1969,0.8592,-0.1195,3.5920,-0.7666,-1.1019,1.3220,1.0946,3.7732,
1.977502,-0.1969,0.8592,-0.1195,3.5098,0.2666,-1.4820,1.3220,1.0946,3.7732,
1.979222,-0.1969,0.8592,-0.1195,3.5098,0.2666,-1.4820,1.2133,1.4381,4.2951,
1.994225,-0.1969,0.8592,-0.1195,3.5098,0.2666,-1.4820,0.9518,0.7382,4.5604,
2.014258,-0.4363,1.1008,-0.0564,3.5098,0.2666,-1.4820,0.9518,0.7382,4.5604,
2.017743,-0.4363,1.1008,-0.0564,-0.3588,1.8021,-0.2818,0.9518,0.7382,4.5604,
2.019700,-0.4363,1.1008,-0.0564,-0.3588,1.8021,-0.2818,0.9412,0.0666,4.0885,
2.034114,-0.4363,1.1008,-0.0564,-0.3588,1.8021,-0.2818,0.8133,-1.0109,3.3098,
2.054534,-0.1390,0.9196,0.2697,-0.3588,1.8021,-0.2818,0.8133,-1.0109,3.3098,
2.057485,-0.1390,0.9196,0.2697,1.2013,-0.4394,3.1664,0.8133,-1.0109,3.3098,
2.059456,-0.1390,0.9196,0.2697,1.2013,-0.4394,3.1664,0.8751,-1.7758,2.5795,
2.074863,-0.1390,0.9196,0.2697,1.2013,-0.4394,3.1664,1.5995,-3.6645,2.0810,
2.094869,-0.7994,1.2557,-0.0489,1.2013,-0.4394,3.1664,1.5995,-3.6645,2.0810,
2.096800,-0.7994,1.2557,-0.0489,-6.0882,2.6871,0.2938,1.5995,-3.6645,2.0810,
2.098589,-0.7994,1.2557,-0.0489,-6.0882,2.6871,0.2938,1.9862,-5.5889,1.6879,
2.114534,-0.7994,1.2557,-0.0489,-6.0882,2.6871,0.2938,2.0805,-4.7388,2.4064,
2.134385,-0.3039,3.0917,-0.6965,-6.0882,2.6871,0.2938,2.0805,-4.7388,2.4064,
2.137018,-0.3039,3.0917,-0.6965,-1.8188,20.6409,-5.5792,2.0805,-4.7388,2.4064,
2.139119,-0.3039,3.0917,-0.6965,-1.8188,20.6409,-5.5792,1.1361,-3.7151,2.1881,
2.154800,-0.3039,3.0917,-0.6965,-1.8188,20.6409,-5.5792,1.0280,0.4831,0.2977,
2.174796,-0.3349,0.9337,-0.2822,-1.8188,20.6409,-5.5792,1.0280,0.4831,0.2977,
2.177093,-0.3349,0.9337,-0.2822,-2.5191,-0.4948,-1.1673,1.0280,0.4831,0.2977,
2.179041,-0.3349,0.9337,-0.2822,-2.5191,-0.4948,-1.1673,0.8304,0.9774,-0.8511,
2.193900,-0.3349,0.9337,-0.2822,-2.5191,-0.4948,-1.1673,0.1774,-0.0783,-1.1334,
2.215284,-0.2810,0.8407,-0.4029,-2.5191,-0.4948,-1.1673,0.1774,-0.0783,-1.1334,
2.218427,-0.2810,0.8407,-0.4029,-1.6393,-1.3359,-2.1419,0.1774,-0.0783,-1.1334,
2.220301,-0.2810,0.8407,-0.4029,-1.6393,-1.3359,-2.1419,-0.7068,0.2386,-0.9460,
2.234018,-0.2810,0.8407,-0.4029,-1.6393,-1.3359,-2.1419,-1.0626,0.2967,-0.6285,
2.256157,-0.1476,0.9513,-0.1827,-1.6393,-1.3359,-2.1419,-1.0626,0.2967,-0.6285,
2.258384,-0.1476,0.9513,-0.1827,-0.0487,-0.2698,-0.3094,-1.0626,0.2967,-0.6285,
2.260357,-0.1476,0.9513,-0.1827,-0.0487,-0.2698,-0.3094,-1.0844,0.5667,-0.3079,
2.274160,-0.1476,0.9513,-0.1827,-0.0487,-0.2698,-0.3094,-0.9843,1.0780,-0.0836,
2.294714,-0.2704,0.5932,-0.1903,-0.0487,-0.2698,-0.3094,-0.9843,1.0780,-0.0836,
2.297062,-0.2704,0.5932,-0.1903,-1.1933,-3.8153,-0.7071,-0.9843,1.0780,-0.0836,
2.299035,-0.2704,0.5932,-0.1903,-1.1933,-3.8153,-0.7071,-1.2171,1.0211,-0.3686,
2.314403,-0.2704,0.5932,-0.1903,-1.1933,-3.8153,-0.7071,-0.6019,1.5292,0.6029,
2.334489,-0.1813,0.9323,0.1204,-1.1933,-3.8153,-0.7071,-0.6019,1.5292,0.6029,
2.338506,-0.1813,0.9323,0.1204,-0.3995,-0.5331,2.0617,-0.6019,1.5292,0.6029,
2.340062,-0.1813,0.9323,0.1204,-0.3995,-0.5331,2.0617,0.2578,0.9683,1.1510,
2.354041,-0.1813,0.9323,0.1204,-0.3995,-0.5331,2.0617,1.2171,0.4357,1.4461,
2.374272,-0.3144,0.9760,-0.2946,-0.3995,-0.5331,2.0617,1.2171,0.4357,1.4461,
2.376746,-0.3144,0.9760,-0.2946,-2.1715,-0.1231,-1.6684,1.2171,0.4357,1.4461,
2.379023,-0.3144,0.9760,-0.2946,-2.1715,-0.1231,-1.6684,1.8184,0.7191,1.7699,
2.393689,-0.3144,0.9760,-0.2946,-2.1715,-0.1231,-1.6684,1.1127,0.5119,2.0570,
2.414101,-0.0281,1.1116,-0.4911,-2.1715,-0.1231,-1.6684,1.1127,0.5119,2.0570,
2.416286,-0.0281,1.1116,-0.4911,-0.1240,1.2569,-3.0007,1.1127,0.5119,2.0570,
2.418136,-0.0281,1.1116,-0.4911,-0.1240,1.2569,-3.0007,0.2956,-0.5891,2.1428,
2.434186,-0.0281,1.1116,-0.4911,-0.1240,1.2569,-3.0007,0.3505,-1.8562,1.6517,
2.453840,0.1969,0.9606,-0.0132,-0.1240,1.2569,-3.0007,0.3505,-1.8562,1.6517,
2.455903,0.1969,0.9606,-0.0132,1.4655,-0.1870,1.8141,0.3505,-1.8562,1.6517,
2.457654,0.1969,0.9606,-0.0132,1.4655,-0.1870,1.8141,0.8112,-2.1412,0.4075,
2.473877,0.1969,0.9606,-0.0132,1.4655,-0.1870,1.8141,0.6977,-1.1531,-0.6525,
2.493326,0.2177,1.0864,-0.3130,1.4655,-0.1870,1.8141,0.6977,-1.1531,-0.6525,
2.495499,0.2177,1.0864,-0.3130,1.8443,1.1084,-0.8082,0.6977,-1.1531,-0.6525,
2.497251,0.2177,1.0864,-0.3130,1.8443,1.1084,-0.8082,-0.1316,-0.6482,-1.2069,
2.513121,0.2177,1.0864,-0.3130,1.8443,1.1084,-0.8082,-1.0216,-0.9545,-1.7247,
2.533623,0.0125,0.8113,-0.2968,1.8443,1.1084,-0.8082,-1.0216,-0.9545,-1.7247,
2.535683,0.0125,0.8113,-0.2968,0.4359,-1.6324,-0.8527,-1.0216,-0.9545,-1.7247,
2.537305,0.0125,0.8113,-0.2968,0.4359,-1.6324,-0.8527,-1.5734,-0.6471,-1.8019,
2.553618,0.0125,0.8113,-0.2968,0.4359,-1.6324,-0.8527,-1.7726,0.7622,-1.0882,
2.574155,-0.0513,0.9562,-0.4048,0.4359,-1.6324,-0.8527,-1.7726,0.7622,-1.0882,
2.576207,-0.0513,0.9562,-0.4048,0.3290,-0.2862,-2.4777,-1.7726,0.7622,-1.0882,
2.578162,-0.0513,0.9562,-0.4048,0.3290,-0.2862,-2.4777,-1.7572,1.8578,-0.6237,
2.593287,-0.0513,0.9562,-0.4048,0.3290,-0.2862,-2.4777,-1.2485,2.5731,-0.9065,
2.613531,-0.1412,0.8641,-0.2932,0.3290,-0.2862,-2.4777,-1.2485,2.5731,-0.9065,
2.615648,-0.1412,0.8641,-0.2932,-0.3725,-1.2298,-1.8272,-1.2485,2.5731,-0.9065,
2.617781,-0.1412,0.8641,-0.2932,-0.3725,-1.2298,-1.8272,-0.4730,2.9497,-1.2085,
2.633645,-0.1412,0.8641,-0.2932,-0.3725,-1.2298,-1.8272,-0.0740,2.1140,-0.8762,
2.654197,-0.2406,0.8739,-0.2819,-0.3725,-1.2298,-1.8272,-0.0740,2.1140,-0.8762,
2.656389,-0.2406,0.8739,-0.2819,-1.0462,-1.0920,-1.6630,-0.0740,2.1140,-0.8762,
2.658474,-0.2406,0.8739,-0.2819,-1.0462,-1.0920,-1.6630,0.0698,0.9097,-0.3968,
2.673903,-0.2406,0.8739,-0.2819,-1.0462,-1.0920,-1.6630,0.2274,0.1864,-0.0975,
2.693289,-0.1324,0.8705,-0.3486,-1.0462,-1.0920,-1.6630,0.2274,0.1864,-0.0975,
2.695423,-0.1324,0.8705,-0.3486,0.0857,-1.0999,-2.1874,0.2274,0.1864,-0.0975,
2.697361,-0.1324,0.8705,-0.3486,0.0857,-1.0999,-2.1874,0.3153,0.1470,-0.0469,
2.713976,-0.1324,0.8705,-0.3486,0.0857,-1.0999,-2.1874,0.2876,0.2695,-0.0714,
2.733490,-0.1466,0.8162,-0.3411,0.0857,-1.0999,-2.1874,0.2876,0.2695,-0.0714,
2.736106,-0.1466,0.8162,-0.3411,-0.0401,-1.6092,-1.9629,0.2876,0.2695,-0.0714,
2.738568,-0.1466,0.8162,-0.3411,-0.0401,-1.6092,-1.9629,0.4293,0.7862,-0.1667,
2.753630,-0.1466,0.8162,-0.3411,-0.0401,-1.6092,-1.9629,0.4176,0.9097,-0.1726,
2.773512,-0.2011,0.8644,-0.2651,-0.0401,-1.6092,-1.9629,0.4176,0.9097,-0.1726,
2.775930,-0.2011,0.8644,-0.2651,-0.5557,-1.0994,-0.9909,0.4176,0.9097,-0.1726,
2.777636,-0.2011,0.8644,-0.2651,-0.5557,-1.0994,-0.9909,0.3409,0.4346,0.0399,
2.793272,-0.2011,0.8644,-0.2651,-0.5557,-1.0994,-0.9909,0.5198,-0.2668,0.2541,
2.813596,-0.2453,0.8656,-0.1864,-0.5557,-1.0994,-0.9909,0.5198,-0.2668,0.2541,
2.816274,-0.2453,0.8656,-0.1864,-1.0441,-1.0642,-0.0436,0.5198,-0.2668,0.2541,
2.818379,-0.2453,0.8656,-0.1864,-1.0441,-1.0642,-0.0436,0.8416,-1.0402,0.3510,
2.833662,-0.2453,0.8656,-0.1864,-1.0441,-1.0642,-0.0436,1.0067,-1.3454,0.4527,
2.853607,-0.2101,0.7442,-0.3721,-1.0441,-1.0642,-0.0436,1.0067,-1.3454,0.4527,
2.856578,-0.2101,0.7442,-0.3721,-0.7602,-2.2043,-1.5750,1.0067,-1.3454,0.4527,
2.858614,-0.2101,0.7442,-0.3721,-0.7602,-2.2043,-1.5750,0.8794,-1.2123,0.3372,
2.873718,-0.2101,0.7442,-0.3721,-0.7602,-2.2043,-1.5750,0.7009,-0.3004,0.3803,
2.893284,-0.1270,0.8233,-0.5196,-0.7602,-2.2043,-1.5750,0.7009,-0.3004,0.3803,
2.895906,-0.1270,0.8233,-0.5196,-0.0107,-1.3723,-2.7431,0.7009,-0.3004,0.3803,
2.898143,-0.1270,0.8233,-0.5196,-0.0107,-1.3723,-2.7431,0.3350,0.3910,0.3260,
2.913698,-0.1270,0.8233,-0.5196,-0.0107,-1.3723,-2.7431,0.1742,0.9129,0.0719,
2.933609,-0.1717,0.9609,-0.4713,-0.0107,-1.3723,-2.7431,0.1742,0.9129,0.0719,
2.935853,-0.1717,0.9609,-0.4713,-0.5643,0.0112,-2.0765,0.1742,0.9129,0.0719,
2.937745,-0.1717,0.9609,-0.4713,-0.5643,0.0112,-2.0765,0.2360,1.1846,-0.2301,
2.953678,-0.1717,0.9609,-0.4713,-0.5643,0.0112,-2.0765,0.3846,1.2059,-0.3776,
2.975983,-0.2223,1.0148,-0.5411,-0.5643,0.0112,-2.0765,0.3846,1.2059,-0.3776,
2.978167,-0.2223,1.0148,-0.5411,-1.0624,0.5938,-2.5703,0.3846,1.2059,-0.3776,
2.980001,-0.2223,1.0148,-0.5411,-1.0624,0.5938,-2.5703,0.6599,1.2602,-0.3989,
2.993096,-0.2223,1.0148,-0.5411,-1.0624,0.5938,-2.5703,0.9135,1.2336,-0.3542,
3.013443,-0.3078,0.9093,-0.8807,-1.0624,0.5938,-2.5703,0.9135,1.2336,-0.3542,
3.015839,-0.3078,0.9093,-0.8807,-1.9046,-0.3323,-5.5504,0.9135,1.2336,-0.3542,
3.017931,-0.3078,0.9093,-0.8807,-1.9046,-0.3323,-5.5504,0.9726,0.9273,-0.3494,
3.033172,-0.3078,0.9093,-0.8807,-1.9046,-0.3323,-5.5504,0.8756,0.7025,-0.3185,
3.053632,-0.3369,0.9726,-0.9491,-1.9046,-0.3323,-5.5504,0.8756,0.7025,-0.3185,
3.055837,-0.3369,0.9726,-0.9491,-2.1732,0.4234,-5.8455,0.8756,0.7025,-0.3185,
3.057792,-0.3369,0.9726,-0.9491,-2.1732,0.4234,-5.8455,0.5848,0.2871,-0.2216,
3.073796,-0.3369,0.9726,-0.9491,-2.1732,0.4234,-5.8455,0.1417,-0.5204,0.1598,
3.093744,-0.0533,1.1035,-0.6425,-2.1732,0.4234,-5.8455,0.1417,-0.5204,0.1598,
3.095955,-0.0533,1.1035,-0.6425,0.6348,1.7592,-2.7144,0.1417,-0.5204,0.1598,
3.097771,-0.0533,1.1035,-0.6425,0.6348,1.7592,-2.7144,-0.7015,-1.5414,0.5577,
3.113025,-0.0533,1.1035,-0.6425,0.6348,1.7592,-2.7144,-1.5132,-2.8341,0.6551,
3.133020,0.0337,1.1981,-0.2013,0.6348,1.7592,-2.7144,-1.5132,-2.8341,0.6551,
3.135419,0.0337,1.1981,-0.2013,1.5574,2.5101,1.1017,-1.5132,-2.8341,0.6551,
3.136952,0.0337,1.1981,-0.2013,1.5574,2.5101,1.1017,-1.7135,-3.4057,0.8341,
3.153524,0.0337,1.1981,-0.2013,1.5574,2.5101,1.1017,-0.8155,-2.5359,1.3236,
3.173647,0.4288,1.1001,-0.1256,1.5574,2.5101,1.1017,-0.8155,-2.5359,1.3236,
3.175456,0.4288,1.1001,-0.1256,5.3511,1.3572,1.2271,-0.8155,-2.5359,1.3236,
3.177114,0.4288,1.1001,-0.1256,5.3511,1.3572,1.2271,-0.2344,-3.0786,0.8831,
3.192810,0.4288,1.1001,-0.1256,5.3511,1.3572,1.2271,-0.2194,-4.5141,0.3622,
3.213386,-0.0090,1.1719,0.0029,5.3511,1.3572,1.2271,-0.2194,-4.5141,0.3622,
3.215787,-0.0090,1.1719,0.0029,1.1780,2.0112,2.2226,-0.2194,-4.5141,0.3622,
3.217562,-0.0090,1.1719,0.0029,1.1780,2.0112,2.2226,0.0447,-4.9673,0.1806,
3.232730,-0.0090,1.1719,0.0029,1.1780,2.0112,2.2226,0.4453,-4.5785,0.2205,
3.253313,-0.2301,1.2108,-0.0191,1.1780,2.0112,2.2226,0.4453,-4.5785,0.2205,
3.256205,-0.2301,1.2108,-0.0191,-0.6666,2.4004,1.8268,0.4453,-4.5785,0.2205,
3.258238,-0.2301,1.2108,-0.0191,-0.6666,2.4004,1.8268,0.8607,-3.9042,0.3350,
3.273398,-0.2301,1.2108,-0.0191,-0.6666,2.4004,1.8268,1.1697,-3.2288,0.3659,
3.293395,-0.2978,1.0938,-0.0332,-0.6666,2.4004,1.8268,1.1697,-3.2288,0.3659,
3.295366,-0.2978,1.0938,-0.0332,-1.1679,1.3141,1.8323,1.1697,-3.2288,0.3659,
3.297204,-0.2978,1.0938,-0.0332,-1.1679,1.3141,1.8323,1.2916,-2.5700,0.3553,
3.313659,-0.2978,1.0938,-0.0332,-1.1679,1.3141,1.8323,1.3348,-1.8461,0.3009,
3.333499,-0.2758,0.8316,-0.0325,-1.1679,1.3141,1.8323,1.3348,-1.8461,0.3009,
3.335405,-0.2758,0.8316,-0.0325,-0.8658,-1.1701,2.1174,1.3348,-1.8461,0.3009,
3.337373,-0.2758,0.8316,-0.0325,-0.8658,-1.1701,2.1174,1.3145,-0.8203,0.1774,
3.353343,-0.2758,0.8316,-0.0325,-0.8658,-1.1701,2.1174,0.9854,0.3814,0.1401,
3.373458,-0.1730,0.7036,-0.1632,-0.8658,-1.1701,2.1174,0.9854,0.3814,0.1401,
3.375340,-0.1730,0.7036,-0.1632,0.1044,-2.3159,1.2444,0.9854,0.3814,0.1401,
3.376603,-0.1730,0.7036,-0.1632,0.1044,-2.3159,1.2444,0.3830,1.2570,0.1683,
3.393463,-0.1730,0.7036,-0.1632,0.1044,-2.3159,1.2444,-0.1598,1.5473,0.0655,
3.413408,-0.2001,0.6381,-0.1715,0.1044,-2.3159,1.2444,-0.1598,1.5473,0.0655,
3.415644,-0.2001,0.6381,-0.1715,-0.3689,-2.9528,1.2988,-0.1598,1.5473,0.0655,
3.417551,-0.2001,0.6381,-0.1715,-0.3689,-2.9528,1.2988,-0.5619,1.4828,-0.0613,
3.432701,-0.2001,0.6381,-0.1715,-0.3689,-2.9528,1.2988,-0.8442,1.4610,-0.1411,
3.453415,-0.2250,0.7109,-0.1559,-0.3689,-2.9528,1.2988,-0.8442,1.4610,-0.1411,
3.455876,-0.2250,0.7109,-0.1559,-0.7468,-2.3147,1.2818,-0.8442,1.4610,-0.1411,
3.457787,-0.2250,0.7109,-0.1559,-0.7468,-2.3147,1.2818,-0.9944,1.5350,-0.1822,
3.473374,-0.2250,0.7109,-0.1559,-0.7468,-2.3147,1.2818,-1.0104,1.8168,-0.2242,
3.493367,-0.2270,0.8001,-0.1351,-0.7468,-2.3147,1.2818,-1.0104,1.8168,-0.2242,
3.496999,-0.2270,0.8001,-0.1351,-0.8685,-1.5362,1.2058,-1.0104,1.8168,-0.2242,
3.499385,-0.2270,0.8001,-0.1351,-0.8685,-1.5362,1.2058,-0.9438,2.2413,-0.2407,
3.513316,-0.2270,0.8001,-0.1351,-0.8685,-1.5362,1.2058,-0.8325,2.4709,-0.2668,
3.533229,-0.2152,0.8903,-0.0892,-0.8685,-1.5362,1.2058,-0.8325,2.4709,-0.2668,
3.535684,-0.2152,0.8903,-0.0892,-0.8854,-0.7256,1.4432,-0.8325,2.4709,-0.2668,
3.537669,-0.2152,0.8903,-0.0892,-0.8854,-0.7256,1.4432,-0.6999,2.3835,-0.2637,
3.553755,-0.2152,0.8903,-0.0892,-0.8854,-0.7256,1.4432,-0.5950,2.0741,-0.2168,
3.572722,-0.2191,0.9767,-0.1092,-0.8854,-0.7256,1.4432,-0.5950,2.0741,-0.2168,
3.576059,-0.2191,0.9767,-0.1092,-1.0226,0.0745,1.0983,-0.5950,2.0741,-0.2168,
3.578054,-0.2191,0.9767,-0.1092,-1.0226,0.0745,1.0983,-0.5369,1.6442,-0.1800,
3.596290,-0.2191,0.9767,-0.1092,-1.0226,0.0745,1.0983,-0.4932,1.1798,-0.1854,
3.612800,-0.2736,1.2032,-0.1461,-1.0226,0.0745,1.0983,-0.4932,1.1798,-0.1854,
3.615188,-0.2736,1.2032,-0.1461,-1.5865,2.2579,0.5891,-0.4932,1.1798,-0.1854,
3.616999,-0.2736,1.2032,-0.1461,-1.5865,2.2579,0.5891,-0.4682,0.7329,-0.1870,
3.632225,-0.2736,1.2032,-0.1461,-1.5865,2.2579,0.5891,-0.4884,0.3547,-0.1459,
3.652672,-0.3391,1.3591,-0.2174,-1.5865,2.2579,0.5891,-0.4884,0.3547,-0.1459,
3.655370,-0.3391,1.3591,-0.2174,-2.2072,3.7557,-0.2684,-0.4884,0.3547,-0.1459,
3.657237,-0.3391,1.3591,-0.2174,-2.2072,3.7557,-0.2684,-0.5689,0.0586,-0.0644,
3.672161,-0.3391,1.3591,-0.2174,-2.2072,3.7557,-0.2684,-0.6706,-0.2402,0.0064,
3.692643,-0.3323,1.3840,-0.2042,-2.2072,3.7557,-0.2684,-0.6706,-0.2402,0.0064,
3.694904,-0.3323,1.3840,-0.2042,-2.1231,3.9580,-0.3803,-0.6706,-0.2402,0.0064,
3.696171,-0.3323,1.3840,-0.2042,-2.1231,3.9580,-0.3803,-0.6919,-0.4527,-0.0011,
3.712207,-0.3323,1.3840,-0.2042,-2.1231,3.9580,-0.3803,-0.6866,-0.5316,-0.1156,
3.732715,-0.3691,1.2958,-0.2426,-2.1231,3.9580,-0.3803,-0.6866,-0.5316,-0.1156,
3.735235,-0.3691,1.2958,-0.2426,-2.4333,3.0557,-1.0439,-0.6866,-0.5316,-0.1156,
3.737167,-0.3691,1.2958,-0.2426,-2.4333,3.0557,-1.0439,-0.6823,-0.4298,-0.1843,
3.752348,-0.3691,1.2958,-0.2426,-2.4333,3.0557,-1.0439,-0.6839,0.0905,-0.2786,
3.772715,-0.2042,0.7886,-0.3183,-2.4333,3.0557,-1.0439,-0.6839,0.0905,-0.2786,
3.775668,-0.2042,0.7886,-0.3183,-0.7191,-1.9358,-2.0577,-0.6839,0.0905,-0.2786,
3.777933,-0.2042,0.7886,-0.3183,-0.7191,-1.9358,-2.0577,-0.6205,1.2384,-0.5198,
3.794438,-0.2042,0.7886,-0.3183,-0.7191,-1.9358,-2.0577,-0.4810,2.3420,-0.7766,
3.813338,-0.0809,0.8683,-0.1705,-0.7191,-1.9358,-2.0577,-0.4810,2.3420,-0.7766,
3.816080,-0.0809,0.8683,-0.1705,0.6821,-1.1361,-0.6875,-0.4810,2.3420,-0.7766,
3.817917,-0.0809,0.8683,-0.1705,0.6821,-1.1361,-0.6875,-0.3499,2.2999,-0.8485,
3.832492,-0.0809,0.8683,-0.1705,0.6821,-1.1361,-0.6875,-0.1614,1.2022,-0.8352,
3.851982,-0.0442,1.0530,0.0462,0.6821,-1.1361,-0.6875,-0.1614,1.2022,-0.8352,
3.853883,-0.0442,1.0530,0.0462,1.2810,0.7149,1.4485,-0.1614,1.2022,-0.8352,
3.854986,-0.0442,1.0530,0.0462,1.2810,0.7149,1.4485,0.1726,0.0176,-0.7542,
3.872246,-0.0442,1.0530,0.0462,1.2810,0.7149,1.4485,0.5119,-0.7105,-0.6226,
3.892599,0.0210,1.0359,0.0086,1.2810,0.7149,1.4485,0.5119,-0.7105,-0.6226,
3.894494,0.0210,1.0359,0.0086,2.1577,0.6022,1.1674,0.5119,-0.7105,-0.6226,
3.895757,0.0210,1.0359,0.0086,2.1577,0.6022,1.1674,0.7846,-0.9848,-0.4666,
3.912136,0.0210,1.0359,0.0086,2.1577,0.6022,1.1674,0.9454,-0.8266,-0.2530,
3.932246,0.1073,0.7723,-0.1217,2.1577,0.6022,1.1674,0.9454,-0.8266,-0.2530,
3.935971,0.1073,0.7723,-0.1217,3.1670,-1.9140,0.1429,0.9454,-0.8266,-0.2530,
3.937849,0.1073,0.7723,-0.1217,3.1670,-1.9140,0.1429,0.9609,-0.3057,-0.0165,
3.952189,0.1073,0.7723,-0.1217,3.1670,-1.9140,0.1429,0.8565,0.3840,0.0559,
3.972564,0.0493,0.5993,-0.1898,3.1670,-1.9140,0.1429,0.8565,0.3840,0.0559,
3.974863,0.0493,0.5993,-0.1898,2.5886,-3.5563,-0.1786,0.8565,0.3840,0.0559,
3.976791,0.0493,0.5993,-0.1898,2.5886,-3.5563,-0.1786,0.6450,0.8538,0.0724,
3.994969,0.0493,0.5993,-0.1898,2.5886,-3.5563,-0.1786,0.3206,0.8021,0.1518,
4.012270,-0.0205,0.6953,-0.2250,2.5886,-3.5563,-0.1786,0.3206,0.8021,0.1518,
4.015044,-0.0205,0.6953,-0.2250,1.8015,-2.5898,-0.2737,0.3206,0.8021,0.1518,
4.016957,-0.0205,0.6953,-0.2250,1.8015,-2.5898,-0.2737,-0.0250,0.4602,0.1710,
4.032140,-0.0205,0.6953,-0.2250,1.8015,-2.5898,-0.2737,-0.0208,0.6296,0.0336,
4.052655,-0.1644,0.7842,-0.2573,1.8015,-2.5898,-0.2737,-0.0208,0.6296,0.0336,
4.054986,-0.1644,0.7842,-0.2573,0.3105,-1.7282,-0.5559,-0.0208,0.6296,0.0336,
4.056888,-0.1644,0.7842,-0.2573,0.3105,-1.7282,-0.5559,0.0836,0.7302,-0.0378,
4.071753,-0.1644,0.7842,-0.2573,0.3105,-1.7282,-0.5559,0.0389,0.4357,0.0304,
4.093052,-0.1962,0.8311,-0.2675,0.3105,-1.7282,-0.5559,0.0389,0.4357,0.0304,
4.095825,-0.1962,0.8311,-0.2675,-0.0459,-1.2633,-0.5891,0.0389,0.4357,0.0304,
4.097743,-0.1962,0.8311,-0.2675,-0.0459,-1.2633,-0.5891,-0.2003,-0.1406,0.1385,
4.112074,-0.1962,0.8311,-0.2675,-0.0459,-1.2633,-0.5891,-0.3814,-0.4724,0.0900,
4.131658,-0.2345,0.8074,-0.3188,-0.0459,-1.2633,-0.5891,-0.3814,-0.4724,0.0900,
4.134744,-0.2345,0.8074,-0.3188,-0.4408,-1.5269,-1.2241,-0.3814,-0.4724,0.0900,
4.136609,-0.2345,0.8074,-0.3188,-0.4408,-1.5269,-1.2241,-0.6312,-0.4202,0.0447,
4.151608,-0.2345,0.8074,-0.3188,-0.4408,-1.5269,-1.2241,-0.9193,0.0676,-0.0676,
4.171804,-0.3589,0.9230,-0.3401,-0.4408,-1.5269,-1.2241,-0.9193,0.0676,-0.0676,
4.175308,-0.3589,0.9230,-0.3401,-1.6303,-0.4413,-1.7155,-0.9193,0.0676,-0.0676,
4.177598,-0.3589,0.9230,-0.3401,-1.6303,-0.4413,-1.7155,-0.9944,0.9342,-0.2716,
4.191585,-0.3589,0.9230,-0.3401,-1.6303,-0.4413,-1.7155,-0.7856,1.9553,-0.5428,
4.211839,-0.5055,1.0620,-0.3288,-1.6303,-0.4413,-1.7155,-0.7856,1.9553,-0.5428,
4.214914,-0.5055,1.0620,-0.3288,-2.9709,0.9088,-1.8042,-0.7856,1.9553,-0.5428,
4.216705,-0.5055,1.0620,-0.3288,-2.9709,0.9088,-1.8042,-0.6322,2.3867,-0.6844,
4.231920,-0.5055,1.0620,-0.3288,-2.9709,0.9088,-1.8042,0.4304,3.1777,-0.6855,
4.251162,-0.4510,1.0410,-0.5543,-2.9709,0.9088,-1.8042,0.4304,3.1777,-0.6855,
4.253716,-0.4510,1.0410,-0.5543,-2.3398,0.7538,-3.8258,0.4304,3.1777,-0.6855,
4.255123,-0.4510,1.0410,-0.5543,-2.3398,0.7538,-3.8258,1.1942,2.2653,-0.5380,
4.271208,-0.4510,1.0410,-0.5543,-2.3398,0.7538,-3.8258,0.7776,-0.3222,-0.5374,
4.291207,-0.4698,1.3019,-0.5328,-2.3398,0.7538,-3.8258,0.7776,-0.3222,-0.5374,
4.294069,-0.4698,1.3019,-0.5328,-2.3897,3.4294,-3.1649,0.7776,-0.3222,-0.5374,
4.296154,-0.4698,1.3019,-0.5328,-2.3897,3.4294,-3.1649,0.1055,-1.7918,-0.3036,
4.311109,-0.4698,1.3019,-0.5328,-2.3897,3.4294,-3.1649,-0.5822,-1.9867,-0.2509,
4.332054,-0.2067,1.2394,-0.0330,-2.3897,3.4294,-3.1649,-0.5822,-1.9867,-0.2509,
4.336110,-0.2067,1.2394,-0.0330,0.4396,2.8246,1.4681,-0.5822,-1.9867,-0.2509,
4.338347,-0.2067,1.2394,-0.0330,0.4396,2.8246,1.4681,-0.5198,-1.7864,-0.2775,
4.351966,-0.2067,1.2394,-0.0330,0.4396,2.8246,1.4681,-0.0900,-1.9990,-0.3121,
4.371906,-0.0376,1.1756,0.1945,0.4396,2.8246,1.4681,-0.0900,-1.9990,-0.3121,
4.375840,-0.0376,1.1756,0.1945,2.3282,2.2097,3.3885,-0.0900,-1.9990,-0.3121,
4.378400,-0.0376,1.1756,0.1945,2.3282,2.2097,3.3885,0.4650,-2.5502,-0.1172,
4.391072,-0.0376,1.1756,0.1945,2.3282,2.2097,3.3885,0.7302,-3.7710,0.0613,
4.411105,0.1779,1.3713,0.0401,2.3282,2.2097,3.3885,0.7302,-3.7710,0.0613,
4.413230,0.1779,1.3713,0.0401,4.6291,4.1642,1.7436,0.7302,-3.7710,0.0613,
4.414826,0.1779,1.3713,0.0401,4.6291,4.1642,1.7436,0.8474,-4.6179,0.2109,
4.431265,0.1779,1.3713,0.0401,4.6291,4.1642,1.7436,0.9135,-4.1215,0.2647,
4.451042,0.0525,1.1854,-0.1923,4.6291,4.1642,1.7436,0.9135,-4.1215,0.2647,
4.453191,0.0525,1.1854,-0.1923,3.5309,2.3578,-0.7235,0.9135,-4.1215,0.2647,
4.454980,0.0525,1.1854,-0.1923,3.5309,2.3578,-0.7235,0.8778,-2.2935,-0.0144,
4.471590,0.0525,1.1854,-0.1923,3.5309,2.3578,-0.7235,0.7388,-0.4240,-0.0884,
4.491723,-0.3906,0.8988,-0.2038,3.5309,2.3578,-0.7235,0.7388,-0.4240,-0.0884,
4.494030,-0.3906,0.8988,-0.2038,-0.7291,-0.4054,-0.7035,0.7388,-0.4240,-0.0884,
4.496117,-0.3906,0.8988,-0.2038,-0.7291,-0.4054,-0.7035,0.4980,0.8874,0.1055,
4.511000,-0.3906,0.8988,-0.2038,-0.7291,-0.4054,-0.7035,0.1305,1.6900,0.3180,
4.531348,-0.2700,0.5646,-0.1737,-0.7291,-0.4054,-0.7035,0.1305,1.6900,0.3180,
4.535217,-0.2700,0.5646,-0.1737,0.3006,-3.6888,-0.1375,0.1305,1.6900,0.3180,
4.537085,-0.2700,0.5646,-0.1737,0.3006,-3.6888,-0.1375,-0.2354,2.0400,0.3579,
4.550823,-0.2700,0.5646,-0.1737,0.3006,-3.6888,-0.1375,-0.5204,2.2323,0.2482,
4.570604,-0.1874,0.4642,-0.1627,0.3006,-3.6888,-0.1375,-0.5204,2.2323,0.2482,
4.573116,-0.1874,0.4642,-0.1627,0.8592,-4.7317,0.0707,-0.5204,2.2323,0.2482,
4.574861,-0.1874,0.4642,-0.1627,0.8592,-4.7317,0.0707,-0.7771,2.3388,0.0644,
4.593164,-0.1874,0.4642,-0.1627,0.8592,-4.7317,0.0707,-0.9737,2.3542,-0.0767,
4.610809,-0.1918,0.6293,-0.0555,0.8592,-4.7317,0.0707,-0.9737,2.3542,-0.0767,
4.613683,-0.1918,0.6293,-0.0555,0.6653,-3.1698,1.0412,-0.9737,2.3542,-0.0767,
4.615686,-0.1918,0.6293,-0.0555,0.6653,-3.1698,1.0412,-1.0205,2.2626,-0.1539,
4.630852,-0.1918,0.6293,-0.0555,0.6653,-3.1698,1.0412,-0.9358,2.0906,-0.1369,
4.650791,-0.2485,0.8275,0.0486,0.6653,-3.1698,1.0412,-0.9358,2.0906,-0.1369,
4.653171,-0.2485,0.8275,0.0486,0.0328,-1.2725,1.9132,-0.9358,2.0906,-0.1369,
4.654855,-0.2485,0.8275,0.0486,0.0328,-1.2725,1.9132,-0.7515,1.7630,-0.0272,
4.671077,-0.2485,0.8275,0.0486,0.0328,-1.2725,1.9132,-0.5055,1.2730,0.1166,
4.691113,-0.2748,0.9093,0.0589,0.0328,-1.2725,1.9132,-0.5055,1.2730,0.1166,
4.693546,-0.2748,0.9093,0.0589,-0.3268,-0.5096,1.9249,-0.5055,1.2730,0.1166,
4.696079,-0.2748,0.9093,0.0589,-0.3268,-0.5096,1.9249,-0.2525,0.7132,0.2711,
4.711135,-0.2748,0.9093,0.0589,-0.3268,-0.5096,1.9249,-0.0660,0.3041,0.3595,
4.731221,-0.3078,0.9547,-0.0645,-0.3268,-0.5096,1.9249,-0.0660,0.3041,0.3595,
4.733646,-0.3078,0.9547,-0.0645,-0.7925,-0.1016,0.6974,-0.0660,0.3041,0.3595,
4.735516,-0.3078,0.9547,-0.0645,-0.7925,-0.1016,0.6974,0.0234,0.0980,0.3686,
4.750838,-0.3078,0.9547,-0.0645,-0.7925,-0.1016,0.6974,-0.0282,0.0735,0.3547,
4.770248,-0.4141,1.1575,-0.2172,-0.7925,-0.1016,0.6974,-0.0282,0.0735,0.3547,
4.772670,-0.4141,1.1575,-0.2172,-1.9564,1.8578,-0.7983,-0.0282,0.0735,0.3547,
4.774704,-0.4141,1.1575,-0.2172,-1.9564,1.8578,-0.7983,-0.2221,0.1747,0.3547,
4.790629,-0.4141,1.1575,-0.2172,-1.9564,1.8578,-0.7983,-0.4655,0.3446,0.3547,
4.810137,-0.4466,1.2467,-0.1984,-1.9564,1.8578,-0.7983,-0.4655,0.3446,0.3547,
4.813854,-0.4466,1.2467,-0.1984,-2.4228,2.6854,-0.7237,-0.4655,0.3446,0.3547,
4.816120,-0.4466,1.2467,-0.1984,-2.4228,2.6854,-0.7237,-0.6376,0.5039,0.3483,
4.830828,-0.4466,1.2467,-0.1984,-2.4228,2.6854,-0.7237,-0.7286,0.6605,0.3361,
4.850721,-0.4244,1.2179,-0.2057,-2.4228,2.6854,-0.7237,-0.7286,0.6605,0.3361,
4.853299,-0.4244,1.2179,-0.2057,-2.3612,2.3469,-1.0128,-0.7286,0.6605,0.3361,
4.855124,-0.4244,1.2179,-0.2057,-2.3612,2.3469,-1.0128,-0.8229,0.8309,0.2610,
4.869751,-0.4244,1.2179,-0.2057,-2.3612,2.3469,-1.0128,-0.8133,0.8986,0.0735,
4.890701,-0.4852,1.3798,-0.0960,-2.3612,2.3469,-1.0128,-0.8133,0.8986,0.0735,
4.891725,-0.4852,1.3798,-0.0960,-3.0517,3.8939,-0.1918,-0.8133,0.8986,0.0735,
4.892380,-0.4852,1.3798,-0.0960,-3.0517,3.8939,-0.1918,-0.6067,0.6914,-0.1140,
4.910734,-0.4852,1.3798,-0.0960,-3.0517,3.8939,-0.1918,-0.4277,0.4250,-0.1774,
4.929542,-0.2406,0.8236,-0.1307,-3.0517,3.8939,-0.1918,-0.4277,0.4250,-0.1774,
4.932819,-0.2406,0.8236,-0.1307,-0.6141,-1.5615,-0.6923,-0.4277,0.4250,-0.1774,
4.935856,-0.2406,0.8236,-0.1307,-0.6141,-1.5615,-0.6923,-0.3659,0.1822,-0.3377,
4.949467,-0.2406,0.8236,-0.1307,-0.6141,-1.5615,-0.6923,-0.1880,-0.0352,-0.6216,
4.970250,-0.0875,0.8722,-0.0953,-0.6141,-1.5615,-0.6923,-0.1880,-0.0352,-0.6216,
4.972649,-0.0875,0.8722,-0.0953,1.0819,-1.0523,-0.4250,-0.1880,-0.0352,-0.6216,
4.974528,-0.0875,0.8722,-0.0953,1.0819,-1.0523,-0.4250,0.0069,-0.0064,-0.8938,
4.992305,-0.0875,0.8722,-0.0953,1.0819,-1.0523,-0.4250,0.1933,0.0474,-1.0322,
5.010205,-0.1334,1.2399,0.0007,1.0819,-1.0523,-0.4250,0.1933,0.0474,-1.0322,
5.012911,-0.1334,1.2399,0.0007,0.9988,2.6347,0.5559,0.1933,0.0474,-1.0322,
5.014643,-0.1334,1.2399,0.0007,0.9988,2.6347,0.5559,0.3862,-0.1736,-0.9731,
5.030338,-0.1334,1.2399,0.0007,0.9988,2.6347,0.5559,0.6216,-0.6674,-0.6882,
5.049846,-0.0547,1.1499,0.0046,0.9988,2.6347,0.5559,0.6216,-0.6674,-0.6882,
5.052002,-0.0547,1.1499,0.0046,2.0947,1.8481,0.7422,0.6216,-0.6674,-0.6882,
5.053757,-0.0547,1.1499,0.0046,2.0947,1.8481,0.7422,0.8139,-1.1047,-0.2871,
5.069858,-0.0547,1.1499,0.0046,2.0947,1.8481,0.7422,0.9486,-1.0658,-0.0016,
5.090456,0.0647,0.7559,-0.0486,2.0947,1.8481,0.7422,0.9486,-1.0658,-0.0016,
5.093744,0.0647,0.7559,-0.0486,3.2988,-1.9872,0.4226,0.9486,-1.0658,-0.0016,
5.095989,0.0647,0.7559,-0.0486,3.2988,-1.9872,0.4226,1.0898,-0.5523,0.0549,
5.109832,0.0647,0.7559,-0.0486,3.2988,-1.9872,0.4226,1.2767,-0.0176,0.0336,
5.130805,-0.0107,0.6027,-0.1051,3.2988,-1.9872,0.4226,1.2767,-0.0176,0.0336,
5.135094,-0.0107,0.6027,-0.1051,2.5538,-3.4412,0.2823,1.2767,-0.0176,0.0336,
5.136967,-0.0107,0.6027,-0.1051,2.5538,-3.4412,0.2823,1.2911,0.0751,0.1774,
5.150215,-0.0107,0.6027,-0.1051,2.5538,-3.4412,0.2823,1.2538,0.0431,0.2866,
5.170103,-0.0154,0.5907,-0.1627,2.5538,-3.4412,0.2823,1.2538,0.0431,0.2866,
5.172148,-0.0154,0.5907,-0.1627,2.4183,-3.5038,0.1972,1.2538,0.0431,0.2866,
5.174015,-0.0154,0.5907,-0.1627,2.4183,-3.5038,0.1972,1.1968,-0.1411,0.3446,
5.189649,-0.0154,0.5907,-0.1627,2.4183,-3.5038,0.1972,0.8703,-0.7057,0.4218,
5.210271,-0.0186,0.7407,-0.2707,2.4183,-3.5038,0.1972,0.8703,-0.7057,0.4218,
5.212492,-0.0186,0.7407,-0.2707,2.2799,-1.9908,-0.5205,0.8703,-0.7057,0.4218,
5.214456,-0.0186,0.7407,-0.2707,2.2799,-1.9908,-0.5205,0.4197,-1.1212,0.4272,
5.230996,-0.0186,0.7407,-0.2707,2.2799,-1.9908,-0.5205,0.0613,-1.0557,0.3388,
5.250259,-0.1598,0.8121,-0.3240,2.2799,-1.9908,-0.5205,0.0613,-1.0557,0.3388,
5.253052,-0.1598,0.8121,-0.3240,0.8475,-1.3084,-1.0595,0.0613,-1.0557,0.3388,
5.254866,-0.1598,0.8121,-0.3240,0.8475,-1.3084,-1.0595,-0.3574,-0.9422,0.3451,
5.270422,-0.1598,0.8121,-0.3240,0.8475,-1.3084,-1.0595,-0.8123,-0.8570,0.3313,
5.291542,-0.2223,0.9110,-0.2770,0.8475,-1.3084,-1.0595,-0.8123,-0.8570,0.3313,
5.293589,-0.2223,0.9110,-0.2770,0.1803,-0.4167,-0.9032,-0.8123,-0.8570,0.3313,
5.295559,-0.2223,0.9110,-0.2770,0.1803,-0.4167,-0.9032,-1.1196,-0.6541,0.2120,
5.309526,-0.2223,0.9110,-0.2770,0.1803,-0.4167,-0.9032,-1.1745,-0.1241,0.0149,
5.329575,-0.3735,0.9902,-0.2751,0.1803,-0.4167,-0.9032,-1.1745,-0.1241,0.0149,
5.332114,-0.3735,0.9902,-0.2751,-1.3150,0.2823,-1.3155,-1.1745,-0.1241,0.0149,
5.333605,-0.3735,0.9902,-0.2751,-1.3150,0.2823,-1.3155,-0.9891,0.7547,-0.1790,
5.350256,-0.3735,0.9902,-0.2751,-1.3150,0.2823,-1.3155,-0.5049,1.4898,-0.3665,
5.369981,-0.6467,1.2215,-0.2526,-1.3150,0.2823,-1.3155,-0.5049,1.4898,-0.3665,
5.372296,-0.6467,1.2215,-0.2526,-3.9449,2.5374,-1.2704,-0.5049,1.4898,-0.3665,
5.374291,-0.6467,1.2215,-0.2526,-3.9449,2.5374,-1.2704,0.8847,2.9428,-0.4810,
5.389768,-0.6467,1.2215,-0.2526,-3.9449,2.5374,-1.2704,1.7066,2.4842,-0.3563,
5.408978,-0.6396,0.9376,-0.6743,-3.9449,2.5374,-1.2704,1.7066,2.4842,-0.3563,
5.411361,-0.6396,0.9376,-0.6743,-3.8843,-0.1216,-4.6582,1.7066,2.4842,-0.3563,
5.412566,-0.6396,0.9376,-0.6743,-3.8843,-0.1216,-4.6582,1.3060,-0.3654,-0.1800,
5.429163,-0.6396,0.9376,-0.6743,-3.8843,-0.1216,-4.6582,0.1955,-2.4933,0.1001,
5.448910,-0.4561,1.2574,-0.4999,-3.8843,-0.1216,-4.6582,0.1955,-2.4933,0.1001,
5.451303,-0.4561,1.2574,-0.4999,-1.9502,3.0783,-2.8113,0.1955,-2.4933,0.1001,
5.452814,-0.4561,1.2574,-0.4999,-1.9502,3.0783,-2.8113,-0.6290,-2.5726,0.0852,
5.469057,-0.4561,1.2574,-0.4999,-1.9502,3.0783,-2.8113,-1.0168,-1.6501,-0.0778,
5.488481,-0.2404,1.1565,-0.0107,-1.9502,3.0783,-2.8113,-1.0168,-1.6501,-0.0778,
5.489871,-0.2404,1.1565,-0.0107,0.3195,2.0300,1.4583,-1.0168,-1.6501,-0.0778,
5.490796,-0.2404,1.1565,-0.0107,0.3195,2.0300,1.4583,-0.8863,-0.9715,-0.3766,
5.508512,-0.2404,1.1565,-0.0107,0.3195,2.0300,1.4583,-0.4197,-0.8714,-0.4293,
5.529142,-0.2055,1.0967,0.2446,0.3195,2.0300,1.4583,-0.4197,-0.8714,-0.4293,
5.531771,-0.2055,1.0967,0.2446,0.8622,1.4516,3.6155,-0.4197,-0.8714,-0.4293,
5.533285,-0.2055,1.0967,0.2446,0.8622,1.4516,3.6155,0.1459,-1.3790,-0.3744,
5.549252,-0.2055,1.0967,0.2446,0.8622,1.4516,3.6155,0.7244,-2.2221,-0.2796,
5.569606,-0.1688,1.2990,0.1786,0.8622,1.4516,3.6155,0.7244,-2.2221,-0.2796,
5.572458,-0.1688,1.2990,0.1786,1.4270,3.4931,2.9150,0.7244,-2.2221,-0.2796,
5.574493,-0.1688,1.2990,0.1786,1.4270,3.4931,2.9150,1.2171,-2.8751,-0.1603,
5.588899,-0.1688,1.2990,0.1786,1.4270,3.4931,2.9150,1.4701,-2.7590,-0.0639,
5.610574,-0.1854,1.1448,-0.1849,1.4270,3.4931,2.9150,1.4701,-2.7590,-0.0639,
5.612733,-0.1854,1.1448,-0.1849,1.4427,2.0622,-0.5112,1.4701,-2.7590,-0.0639,
5.614601,-0.1854,1.1448,-0.1849,1.4427,2.0622,-0.5112,1.3854,-1.7188,0.0000,
5.629506,-0.1854,1.1448,-0.1849,1.4427,2.0622,-0.5112,0.9752,-0.2919,0.1465,
5.650455,-0.2057,0.8204,-0.3516,1.4427,2.0622,-0.5112,0.9752,-0.2919,0.1465,
5.652760,-0.2057,0.8204,-0.3516,1.2520,-1.0668,-1.8442,0.9752,-0.2919,0.1465,
5.654716,-0.2057,0.8204,-0.3516,1.2520,-1.0668,-1.8442,0.3718,1.0189,0.1870,
5.668878,-0.2057,0.8204,-0.3516,1.2520,-1.0668,-1.8442,-0.2562,1.8482,0.1017,
5.689526,-0.1673,0.5827,-0.2626,1.2520,-1.0668,-1.8442,-0.2562,1.8482,0.1017,
5.691678,-0.1673,0.5827,-0.2626,1.4761,-3.4115,-0.7694,-0.2562,1.8482,0.1017,
5.693721,-0.1673,0.5827,-0.2626,1.4761,-3.4115,-0.7694,-0.7798,2.2946,-0.0426,
5.708665,-0.1673,0.5827,-0.2626,1.4761,-3.4115,-0.7694,-1.1473,2.6259,-0.1917,
5.729093,-0.1986,0.4991,-0.1388,1.4761,-3.4115,-0.7694,-1.1473,2.6259,-0.1917,
5.732095,-0.1986,0.4991,-0.1388,1.0366,-4.2850,0.3913,-1.1473,2.6259,-0.1917,
5.733959,-0.1986,0.4991,-0.1388,1.0366,-4.2850,0.3913,-1.3406,2.9188,-0.2621,
5.749358,-0.1986,0.4991,-0.1388,1.0366,-4.2850,0.3913,-1.3891,3.0887,-0.2407,
5.769012,-0.2172,0.6281,-0.0010,1.0366,-4.2850,0.3913,-1.3891,3.0887,-0.2407,
5.771478,-0.2172,0.6281,-0.0010,0.7460,-3.0828,1.5911,-1.3891,3.0887,-0.2407,
5.772895,-0.2172,0.6281,-0.0010,0.7460,-3.0828,1.5911,-1.2948,3.0120,-0.1747,
5.788778,-0.2172,0.6281,-0.0010,0.7460,-3.0828,1.5911,-1.0807,2.6403,-0.0900,
5.809072,-0.2533,0.8194,0.1158,0.7460,-3.0828,1.5911,-1.0807,2.6403,-0.0900,
5.811628,-0.2533,0.8194,0.1158,0.2671,-1.2662,2.6137,-1.0807,2.6403,-0.0900,
5.813599,-0.2533,0.8194,0.1158,0.2671,-1.2662,2.6137,-0.7760,1.9777,0.0394,
5.829272,-0.2533,0.8194,0.1158,0.2671,-1.2662,2.6137,-0.4458,1.1846,0.1997,
5.849048,-0.2875,0.9020,0.0730,0.2671,-1.2662,2.6137,-0.4458,1.1846,0.1997,
5.853348,-0.2875,0.9020,0.0730,-0.2042,-0.5050,2.1373,-0.4458,1.1846,0.1997,
5.855117,-0.2875,0.9020,0.0730,-0.2042,-0.5050,2.1373,-0.1816,0.4991,0.3569,
5.868757,-0.2875,0.9020,0.0730,-0.2042,-0.5050,2.1373,-0.0575,0.1475,0.4192,
5.888769,-0.3059,0.9601,-0.1207,-0.2042,-0.5050,2.1373,-0.0575,0.1475,0.4192,
5.891999,-0.3059,0.9601,-0.1207,-0.5443,0.0188,0.2215,-0.0575,0.1475,0.4192,
5.894036,-0.3059,0.9601,-0.1207,-0.5443,0.0188,0.2215,-0.1033,0.1667,0.3904,
5.909445,-0.3059,0.9601,-0.1207,-0.5443,0.0188,0.2215,-0.3047,0.4320,0.3579,
5.928970,-0.4207,1.1922,-0.2575,-0.5443,0.0188,0.2215,-0.3047,0.4320,0.3579,
5.931354,-0.4207,1.1922,-0.2575,-1.8176,2.2485,-1.1695,-0.3047,0.4320,0.3579,
5.933275,-0.4207,1.1922,-0.2575,-1.8176,2.2485,-1.1695,-0.6152,0.7835,0.3601,
5.948404,-0.4207,1.1922,-0.2575,-1.8176,2.2485,-1.1695,-0.8927,1.0360,0.3451,
5.968387,-0.4383,1.2308,-0.2072,-1.8176,2.2485,-1.1695,-0.8927,1.0360,0.3451,
5.970885,-0.4383,1.2308,-0.2072,-2.1690,2.5578,-0.8813,-0.8927,1.0360,0.3451,
5.972693,-0.4383,1.2308,-0.2072,-2.1690,2.5578,-0.8813,-1.0519,1.1425,0.3063,
5.988086,-0.4383,1.2308,-0.2072,-2.1690,2.5578,-0.8813,-1.1484,1.1894,0.2796,
6.008295,-0.4336,1.2049,-0.2223,-2.1690,2.5578,-0.8813,-1.1484,1.1894,0.2796,
6.011345,-0.4336,1.2049,-0.2223,-2.2812,2.2366,-1.3537,-1.1484,1.1894,0.2796,
6.013175,-0.4336,1.2049,-0.2223,-2.2812,2.2366,-1.3537,-1.2272,1.1404,0.2173,
6.028727,-0.4336,1.2049,-0.2223,-2.2812,2.2366,-1.3537,-1.1782,0.8080,0.0623,
6.048789,-0.5238,1.3679,-0.1908,-2.2812,2.2366,-1.3537,-1.1782,0.8080,0.0623,
6.053928,-0.5238,1.3679,-0.1908,-3.2435,3.7923,-1.4310,-1.1782,0.8080,0.0623,
6.055932,-0.5238,1.3679,-0.1908,-3.2435,3.7923,-1.4310,-0.7792,-0.5140,-0.1603,
6.067791,-0.5238,1.3679,-0.1908,-3.2435,3.7923,-1.4310,-0.0085,-2.3303,-0.3137,
6.088699,-0.2961,0.8602,-0.2040,-3.2435,3.7923,-1.4310,-0.0085,-2.3303,-0.3137,
6.090096,-0.2961,0.8602,-0.2040,-0.9071,-1.1700,-1.8223,-0.0085,-2.3303,-0.3137,
6.091138,-0.2961,0.8602,-0.2040,-0.9071,-1.1700,-1.8223,0.3814,-1.9372,-0.3542,
6.109379,-0.2961,0.8602,-0.2040,-0.9071,-1.1700,-1.8223,0.5763,-0.6525,-0.4554,
6.128955,-0.1483,0.8008,-0.0193,-0.9071,-1.1700,-1.8223,0.5763,-0.6525,-0.4554,
6.131389,-0.1483,0.8008,-0.0193,0.7291,-1.7082,0.0991,0.5763,-0.6525,-0.4554,
6.133328,-0.1483,0.8008,-0.0193,0.7291,-1.7082,0.0991,0.7191,0.0373,-0.4804,
6.149018,-0.1483,0.8008,-0.0193,0.7291,-1.7082,0.0991,0.8133,-0.0634,-0.5822,
6.168419,-0.0787,1.1524,0.0880,0.7291,-1.7082,0.0991,0.8133,-0.0634,-0.5822,
6.170821,-0.0787,1.1524,0.0880,1.6048,1.7962,1.4356,0.8133,-0.0634,-0.5822,
6.172451,-0.0787,1.1524,0.0880,1.6048,1.7962,1.4356,0.8970,-0.8671,-0.7334,
6.187977,-0.0787,1.1524,0.0880,1.6048,1.7962,1.4356,1.0136,-2.0597,-0.7185,
6.208081,-0.1366,1.1250,0.0525,1.6048,1.7962,1.4356,1.0136,-2.0597,-0.7185,
6.210340,-0.1366,1.1250,0.0525,1.3486,1.6264,1.2960,1.0136,-2.0597,-0.7185,
6.211921,-0.1366,1.1250,0.0525,1.3486,1.6264,1.2960,1.1255,-2.8981,-0.4746,
6.229013,-0.1366,1.1250,0.0525,1.3486,1.6264,1.2960,1.2197,-2.6253,-0.2477,
6.248914,-0.0989,0.8302,-0.1329,1.3486,1.6264,1.2960,1.2197,-2.6253,-0.2477,
6.251377,-0.0989,0.8302,-0.1329,1.8960,-1.2001,-0.4046,1.2197,-2.6253,-0.2477,
6.253055,-0.0989,0.8302,-0.1329,1.8960,-1.2001,-0.4046,1.5595,-0.9406,-0.1129,
6.268681,-0.0989,0.8302,-0.1329,1.8960,-1.2001,-0.4046,1.6362,0.2855,0.1246,
6.288787,-0.0213,0.6472,-0.1930,1.8960,-1.2001,-0.4046,1.6362,0.2855,0.1246,
6.291192,-0.0213,0.6472,-0.1930,2.6669,-2.9201,-0.4378,1.6362,0.2855,0.1246,
6.293046,-0.0213,0.6472,-0.1930,2.6669,-2.9201,-0.4378,1.4392,0.6083,0.2780,
6.307849,-0.0213,0.6472,-0.1930,2.6669,-2.9201,-0.4378,1.1366,0.3047,0.3430,
6.328702,0.0530,0.5844,-0.1801,2.6669,-2.9201,-0.4378,1.1366,0.3047,0.3430,
6.331137,0.0530,0.5844,-0.1801,3.2494,-3.4816,0.2155,1.1366,0.3047,0.3430,
6.332971,0.0530,0.5844,-0.1801,3.2494,-3.4816,0.2155,0.7824,-0.2434,0.3617,
6.348688,0.0530,0.5844,-0.1801,3.2494,-3.4816,0.2155,0.5172,-0.4826,0.3489,
6.368058,-0.0242,0.7168,-0.2199,3.2494,-3.4816,0.2155,0.5172,-0.4826,0.3489,
6.370790,-0.0242,0.7168,-0.2199,2.3929,-2.1679,0.0253,0.5172,-0.4826,0.3489,
6.372350,-0.0242,0.7168,-0.2199,2.3929,-2.1679,0.0253,0.2615,-0.4447,0.3776,
6.387946,-0.0242,0.7168,-0.2199,2.3929,-2.1679,0.0253,-0.1294,-0.3659,0.4378,
6.408241,-0.1051,0.8407,-0.2453,2.3929,-2.1679,0.0253,-0.1294,-0.3659,0.4378,
6.411062,-0.1051,0.8407,-0.2453,1.4859,-0.9901,-0.2413,-0.1294,-0.3659,0.4378,
6.413263,-0.1051,0.8407,-0.2453,1.4859,-0.9901,-0.2413,-0.5428,-0.3941,0.4895,
6.428412,-0.1051,0.8407,-0.2453,1.4859,-0.9901,-0.2413,-0.8932,-0.5566,0.5156,
6.448208,-0.2116,0.8959,-0.2277,1.4859,-0.9901,-0.2413,-0.8932,-0.5566,0.5156,
6.452367,-0.2116,0.8959,-0.2277,0.2940,-0.5555,-0.3812,-0.8932,-0.5566,0.5156,
6.454099,-0.2116,0.8959,-0.2277,0.2940,-0.5555,-0.3812,-1.1377,-0.7025,0.4655,
6.467999,-0.2116,0.8959,-0.2277,0.2940,-0.5555,-0.3812,-1.2645,-0.5449,0.3931,
6.488015,-0.3572,0.9550,-0.3247,0.2940,-0.5555,-0.3812,-1.2645,-0.5449,0.3931,
6.491444,-0.3572,0.9550,-0.3247,-1.2518,-0.0880,-1.8145,-1.2645,-0.5449,0.3931,
6.493780,-0.3572,0.9550,-0.3247,-1.2518,-0.0880,-1.8145,-1.2267,-0.4202,0.2402,
6.511151,-0.3572,0.9550,-0.3247,-1.2518,-0.0880,-1.8145,-0.4160,-0.8703,-0.0692,
6.527858,-0.7117,1.1561,-0.1830,-1.2518,-0.0880,-1.8145,-0.4160,-0.8703,-0.0692,
6.530473,-0.7117,1.1561,-0.1830,-4.7292,1.8356,-0.7941,-0.4160,-0.8703,-0.0692,
6.532356,-0.7117,1.1561,-0.1830,-4.7292,1.8356,-0.7941,1.3220,-1.6165,-0.3308,
6.547762,-0.7117,1.1561,-0.1830,-4.7292,1.8356,-0.7941,1.3891,-1.3870,0.1470,
6.567513,-0.5868,1.1971,-0.4165,-4.7292,1.8356,-0.7941,1.3891,-1.3870,0.1470,
6.569990,-0.5868,1.1971,-0.4165,-3.4006,2.3101,-2.7101,1.3891,-1.3870,0.1470,
6.571779,-0.5868,1.1971,-0.4165,-3.4006,2.3101,-2.7101,0.5284,-0.2200,0.4953,
6.587428,-0.5868,1.1971,-0.4165,-3.4006,2.3101,-2.7101,-0.1316,0.6136,0.3292,
6.607638,-0.4473,1.4478,-0.3042,-3.4006,2.3101,-2.7101,-0.1316,0.6136,0.3292,
6.610767,-0.4473,1.4478,-0.3042,-2.2004,4.7403,-1.5171,-0.1316,0.6136,0.3292,
6.612711,-0.4473,1.4478,-0.3042,-2.2004,4.7403,-1.5171,-0.6397,0.9204,-0.1987,
6.627488,-0.4473,1.4478,-0.3042,-2.2004,4.7403,-1.5171,-0.9225,0.9710,-0.4969,
6.648114,-0.4920,0.9711,-0.0469,-2.2004,4.7403,-1.5171,-0.9225,0.9710,-0.4969,
6.650435,-0.4920,0.9711,-0.0469,-2.5589,0.0575,0.7926,-0.9225,0.9710,-0.4969,
6.652126,-0.4920,0.9711,-0.0469,-2.5589,0.0575,0.7926,-0.8884,1.0301,-0.3451,
6.668180,-0.4920,0.9711,-0.0469,-2.5589,0.0575,0.7926,-0.5571,1.1920,-0.1880,
6.687788,-0.4999,1.0569,0.0188,-2.5589,0.0575,0.7926,-0.5571,1.1920,-0.1880,
6.690021,-0.4999,1.0569,0.0188,-2.5856,0.8888,1.2653,-0.5571,1.1920,-0.1880,
6.691799,-0.4999,1.0569,0.0188,-2.5856,0.8888,1.2653,-0.1092,1.6762,-0.2157,
6.709251,-0.4999,1.0569,0.0188,-2.5856,0.8888,1.2653,0.3894,1.9675,-0.4272,
6.727686,-0.5238,1.2284,0.0696,-2.5856,0.8888,1.2653,0.3894,1.9675,-0.4272,
6.730038,-0.5238,1.2284,0.0696,-2.7839,2.6065,1.9851,0.3894,1.9675,-0.4272,
6.731773,-0.5238,1.2284,0.0696,-2.7839,2.6065,1.9851,0.7915,1.3662,-0.5934,
6.747937,-0.5238,1.2284,0.0696,-2.7839,2.6065,1.9851,1.0818,-0.0453,-0.5710,
6.768186,-0.3560,1.0212,0.1297,-2.7839,2.6065,1.9851,1.0818,-0.0453,-0.5710,
6.770646,-0.3560,1.0212,0.1297,-0.9581,0.6899,2.9877,1.0818,-0.0453,-0.5710,
6.772371,-0.3560,1.0212,0.1297,-0.9581,0.6899,2.9877,1.3018,-1.6357,-0.6322,
6.787228,-0.3560,1.0212,0.1297,-0.9581,0.6899,2.9877,1.3614,-3.2480,-0.7681,
6.808398,-0.0413,0.7810,0.1007,-0.9581,0.6899,2.9877,1.3614,-3.2480,-0.7681,
6.810725,-0.0413,0.7810,0.1007,2.5573,-1.5104,2.8319,1.3614,-3.2480,-0.7681,
6.812498,-0.0413,0.7810,0.1007,2.5573,-1.5104,2.8319,1.2064,-4.6962,-0.8320,
6.827691,-0.0413,0.7810,0.1007,2.5573,-1.5104,2.8319,0.8709,-5.3519,-0.8005,
6.847637,0.1126,0.7124,-0.1930,2.5573,-1.5104,2.8319,0.8709,-5.3519,-0.8005,
6.849950,0.1126,0.7124,-0.1930,4.7094,-2.0037,-0.3304,0.8709,-5.3519,-0.8005,
6.851835,0.1126,0.7124,-0.1930,4.7094,-2.0037,-0.3304,0.4922,-4.7788,-0.5784,
6.867140,0.1126,0.7124,-0.1930,4.7094,-2.0037,-0.3304,-0.1268,-3.0323,-0.2711,
6.887793,0.1549,0.5929,-0.3926,4.7094,-2.0037,-0.3304,-0.1268,-3.0323,-0.2711,
6.890341,0.1549,0.5929,-0.3926,5.4818,-3.0992,-2.8126,-0.1268,-3.0323,-0.2711,
6.892239,0.1549,0.5929,-0.3926,5.4818,-3.0992,-2.8126,-0.8772,-0.5699,0.0016,
6.907418,0.1549,0.5929,-0.3926,5.4818,-3.0992,-2.8126,-1.3944,1.6432,0.1252,
6.928000,0.0506,0.7178,-0.1004,5.4818,-3.0992,-2.8126,-1.3944,1.6432,0.1252,
6.930502,0.0506,0.7178,-0.1004,4.4222,-1.9237,-0.2701,-1.3944,1.6432,0.1252,
6.932394,0.0506,0.7178,-0.1004,4.4222,-1.9237,-0.2701,-1.5510,2.8805,0.2621,
6.947462,0.0506,0.7178,-0.1004,4.4222,-1.9237,-0.2701,-1.5654,3.3614,0.4048,
6.967527,-0.0667,0.8890,0.0205,4.4222,-1.9237,-0.2701,-1.5654,3.3614,0.4048,
6.971124,-0.0667,0.8890,0.0205,3.0703,-0.3376,0.8322,-1.5654,3.3614,0.4048,
6.973216,-0.0667,0.8890,0.0205,3.0703,-0.3376,0.8322,-1.4679,3.4003,0.4602,
6.987337,-0.0667,0.8890,0.0205,3.0703,-0.3376,0.8322,-1.2895,3.3002,0.4943,
7.007937,-0.2785,0.9731,0.0203,3.0703,-0.3376,0.8322,-1.2895,3.3002,0.4943,
7.011478,-0.2785,0.9731,0.0203,0.7384,0.3834,0.8101,-1.2895,3.3002,0.4943,
7.013274,-0.2785,0.9731,0.0203,0.7384,0.3834,0.8101,-1.0722,3.2586,0.5907,
7.027451,-0.2785,0.9731,0.0203,0.7384,0.3834,0.8101,-0.9246,3.3684,0.7009,
7.047629,-0.3621,1.0224,-0.1344,0.7384,0.3834,0.8101,-0.9246,3.3684,0.7009,
7.049807,-0.3621,1.0224,-0.1344,-0.4252,0.7490,-0.6311,-0.9246,3.3684,0.7009,
7.051631,-0.3621,1.0224,-0.1344,-0.4252,0.7490,-0.6311,-0.9374,3.5851,0.7675,
7.066885,-0.3621,1.0224,-0.1344,-0.4252,0.7490,-0.6311,-1.1196,3.7513,0.7718,
7.088083,-0.4542,1.2504,-0.2744,-0.4252,0.7490,-0.6311,-1.1196,3.7513,0.7718,
7.090606,-0.4542,1.2504,-0.2744,-1.7199,2.8632,-1.9577,-1.1196,3.7513,0.7718,
7.092471,-0.4542,1.2504,-0.2744,-1.7199,2.8632,-1.9577,-1.4669,3.6017,0.7068,
7.106785,-0.4542,1.2504,-0.2744,-1.7199,2.8632,-1.9577,-1.8205,3.1340,0.5795,
7.126922,-0.6091,1.1991,-0.3061,-1.7199,2.8632,-1.9577,-1.8205,3.1340,0.5795,
7.129393,-0.6091,1.1991,-0.3061,-3.5644,2.2543,-2.5445,-1.8205,3.1340,0.5795,
7.131193,-0.6091,1.1991,-0.3061,-3.5644,2.2543,-2.5445,-1.9393,2.2813,0.4197,
7.146877,-0.6091,1.1991,-0.3061,-3.5644,2.2543,-2.5445,-1.1318,-2.6818,0.3595,
7.167331,-0.8602,1.3537,-0.2961,-3.5644,2.2543,-2.5445,-1.1318,-2.6818,0.3595,
7.169672,-0.8602,1.3537,-0.2961,-6.1873,3.7206,-3.0450,-1.1318,-2.6818,0.3595,
7.171538,-0.8602,1.3537,-0.2961,-6.1873,3.7206,-3.0450,0.5747,-8.1035,0.2120,
7.187229,-0.8602,1.3537,-0.2961,-6.1873,3.7206,-3.0450,1.7646,-3.0307,-0.1289,
7.207297,-0.4398,1.1138,-0.0816,-6.1873,3.7206,-3.0450,1.7646,-3.0307,-0.1289,
7.209834,-0.4398,1.1138,-0.0816,-2.1431,1.3526,-0.9831,1.7646,-3.0307,-0.1289,
7.211749,-0.4398,1.1138,-0.0816,-2.1431,1.3526,-0.9831,2.1710,0.4202,-0.2429,
7.226738,-0.4398,1.1138,-0.0816,-2.1431,1.3526,-0.9831,1.7007,1.0099,-0.0309,
7.246793,-0.1976,0.8111,-0.0748,-2.1431,1.3526,-0.9831,1.7007,1.0099,-0.0309,
7.250463,-0.1976,0.8111,-0.0748,0.2728,-1.5857,-0.1146,1.7007,1.0099,-0.0309,
7.252478,-0.1976,0.8111,-0.0748,0.2728,-1.5857,-0.1146,1.2064,0.4671,-0.0186,
7.268012,-0.1976,0.8111,-0.0748,0.2728,-1.5857,-0.1146,0.8416,-0.4911,-0.2242,
7.287241,-0.0650,1.0510,0.0034,0.2728,-1.5857,-0.1146,0.8416,-0.4911,-0.2242,
7.290873,-0.0650,1.0510,0.0034,1.6222,0.8097,1.0355,0.8416,-0.4911,-0.2242,
7.292652,-0.0650,1.0510,0.0034,1.6222,0.8097,1.0355,0.5257,-1.8173,-0.5939,
7.310627,-0.0650,1.0510,0.0034,1.6222,0.8097,1.0355,0.3553,-3.1670,-0.8975,
7.327582,-0.1534,1.2411,0.1876,1.6222,0.8097,1.0355,0.3553,-3.1670,-0.8975,
7.329863,-0.1534,1.2411,0.1876,1.1349,2.7628,2.7626,0.3553,-3.1670,-0.8975,
7.331513,-0.1534,1.2411,0.1876,1.1349,2.7628,2.7626,0.4362,-4.0203,-0.9183,
7.347400,-0.1534,1.2411,0.1876,1.1349,2.7628,2.7626,0.7686,-3.9868,-0.6397,
7.367196,-0.0603,0.8793,-0.0765,1.1349,2.7628,2.7626,0.7686,-3.9868,-0.6397,
7.370673,-0.0603,0.8793,-0.0765,2.4185,-0.6922,-0.0752,0.7686,-3.9868,-0.6397,
7.372635,-0.0603,0.8793,-0.0765,2.4185,-0.6922,-0.0752,1.0056,-3.0232,-0.3888,
7.386596,-0.0603,0.8793,-0.0765,2.4185,-0.6922,-0.0752,0.9768,-1.1670,-0.1886,
7.407095,-0.0545,0.6347,-0.2919,2.4185,-0.6922,-0.0752,0.9768,-1.1670,-0.1886,
7.409329,-0.0545,0.6347,-0.2919,2.6406,-3.0254,-2.0782,0.9768,-1.1670,-0.1886,
7.411211,-0.0545,0.6347,-0.2919,2.6406,-3.0254,-2.0782,0.7494,1.0035,-0.0218,
7.426520,-0.0545,0.6347,-0.2919,2.6406,-3.0254,-2.0782,0.5028,2.4879,0.1603,
7.447368,0.0151,0.5668,-0.1116,2.6406,-3.0254,-2.0782,0.5028,2.4879,0.1603,
7.449904,0.0151,0.5668,-0.1116,3.2246,-3.6752,0.1381,0.5028,2.4879,0.1603,
7.451766,0.0151,0.5668,-0.1116,3.2246,-3.6752,0.1381,0.3297,2.8400,0.3068,
7.466743,0.0151,0.5668,-0.1116,3.2246,-3.6752,0.1381,0.1523,2.4469,0.3451,
7.486665,0.0144,0.7244,-0.1222,3.2246,-3.6752,0.1381,0.1523,2.4469,0.3451,
7.488363,0.0144,0.7244,-0.1222,2.9450,-2.1556,0.4353,0.1523,2.4469,0.3451,
7.489861,0.0144,0.7244,-0.1222,2.9450,-2.1556,0.4353,-0.0447,1.6320,0.3329,
7.506749,0.0144,0.7244,-0.1222,2.9450,-2.1556,0.4353,-0.1268,1.0163,0.2418,
7.526870,-0.2079,0.8873,-0.3315,2.9450,-2.1556,0.4353,-0.1268,1.0163,0.2418,
7.529279,-0.2079,0.8873,-0.3315,0.5702,-0.5956,-1.5050,-0.1268,1.0163,0.2418,
7.531156,-0.2079,0.8873,-0.3315,0.5702,-0.5956,-1.5050,-0.2700,0.8565,0.2541,
7.546446,-0.2079,0.8873,-0.3315,0.5702,-0.5956,-1.5050,-0.4959,0.8037,0.2940,
7.567124,-0.2199,0.8165,-0.3970,0.5702,-0.5956,-1.5050,-0.4959,0.8037,0.2940,
7.570182,-0.2199,0.8165,-0.3970,0.2936,-1.3439,-2.2053,-0.4959,0.8037,0.2940,
7.572213,-0.2199,0.8165,-0.3970,0.2936,-1.3439,-2.2053,-0.9412,0.4682,0.2892,
7.587144,-0.2199,0.8165,-0.3970,0.2936,-1.3439,-2.2053,-1.2922,0.2099,0.1523,
7.606657,-0.3821,0.8304,-0.3555,0.2936,-1.3439,-2.2053,-1.2922,0.2099,0.1523,
7.608810,-0.3821,0.8304,-0.3555,-1.3980,-1.2936,-2.1752,-1.2922,0.2099,0.1523,
7.610897,-0.3821,0.8304,-0.3555,-1.3980,-1.2936,-2.1752,-1.2783,0.1598,0.0101,
7.626303,-0.3821,0.8304,-0.3555,-1.3980,-1.2936,-2.1752,-0.7713,-0.1300,-0.1193,
7.646359,-0.4573,1.0654,-0.1349,-1.3980,-1.2936,-2.1752,-0.7713,-0.1300,-0.1193,
7.648958,-0.4573,1.0654,-0.1349,-2.0819,0.9826,-0.3489,-0.7713,-0.1300,-0.1193,
7.650835,-0.4573,1.0654,-0.1349,-2.0819,0.9826,-0.3489,-0.2035,-0.9049,-0.1603,
7.666656,-0.4573,1.0654,-0.1349,-2.0819,0.9826,-0.3489,0.6445,-0.8213,-0.2855,
7.686082,-0.5978,1.0759,-0.3020,-2.0819,0.9826,-0.3489,0.6445,-0.8213,-0.2855,
7.688492,-0.5978,1.0759,-0.3020,-3.3423,1.1156,-1.9881,0.6445,-0.8213,-0.2855,
7.690317,-0.5978,1.0759,-0.3020,-3.3423,1.1156,-1.9881,1.7540,-0.5673,-0.2823,
7.705762,-0.5978,1.0759,-0.3020,-3.3423,1.1156,-1.9881,0.9678,-1.2506,0.0671,
7.726056,-0.4429,1.3285,-0.4251,-3.3423,1.1156,-1.9881,0.9678,-1.2506,0.0671,
7.729233,-0.4429,1.3285,-0.4251,-1.7380,3.6671,-2.7779,0.9678,-1.2506,0.0671,
7.731317,-0.4429,1.3285,-0.4251,-1.7380,3.6671,-2.7779,-0.1374,-1.6581,0.0607,
7.746041,-0.4429,1.3285,-0.4251,-1.7380,3.6671,-2.7779,-0.7766,-1.5239,-0.2386,
7.767148,-0.3721,1.2015,-0.1222,-1.7380,3.6671,-2.7779,-0.7766,-1.5239,-0.2386,
7.770226,-0.3721,1.2015,-0.1222,-0.9309,2.4101,-0.1480,-0.7766,-1.5239,-0.2386,
7.772315,-0.3721,1.2015,-0.1222,-0.9309,2.4101,-0.1480,-0.9630,-0.9838,-0.3856,
7.786132,-0.3721,1.2015,-0.1222,-0.9309,2.4101,-0.1480,-0.6296,-0.3888,-0.3036,
7.806377,-0.2541,0.8600,0.0589,-0.9309,2.4101,-0.1480,-0.6296,-0.3888,-0.3036,
7.808760,-0.2541,0.8600,0.0589,0.3790,-0.9256,1.2525,-0.6296,-0.3888,-0.3036,
7.810587,-0.2541,0.8600,0.0589,0.3790,-0.9256,1.2525,0.0991,0.0234,-0.1225,
7.826149,-0.2541,0.8600,0.0589,0.3790,-0.9256,1.2525,0.5555,0.2354,-0.0921,
7.845816,-0.2839,1.2039,-0.0222,0.3790,-0.9256,1.2525,0.5555,0.2354,-0.0921,
7.847927,-0.2839,1.2039,-0.0222,0.1231,2.4675,0.5948,0.5555,0.2354,-0.0921,
7.849617,-0.2839,1.2039,-0.0222,0.1231,2.4675,0.5948,0.6424,0.0900,-0.2312,
7.866053,-0.2839,1.2039,-0.0222,0.1231,2.4675,0.5948,0.6136,-0.2621,-0.3627,
7.886299,-0.2981,1.1563,0.0347,0.1231,2.4675,0.5948,0.6136,-0.2621,-0.3627,
7.887568,-0.2981,1.1563,0.0347,0.0982,2.0591,1.3757,0.6136,-0.2621,-0.3627,
7.888484,-0.2981,1.1563,0.0347,0.0982,2.0591,1.3757,0.5502,-0.8224,-0.3457,
7.906638,-0.2981,1.1563,0.0347,0.0982,2.0591,1.3757,0.5848,-1.3859,-0.2786,
7.926815,-0.1571,0.9836,0.0173,0.0982,2.0591,1.3757,0.5848,-1.3859,-0.2786,
7.928959,-0.1571,0.9836,0.0173,1.6400,0.4282,1.2750,0.5848,-1.3859,-0.2786,
7.930607,-0.1571,0.9836,0.0173,1.6400,0.4282,1.2750,0.5433,-1.7422,-0.2610,
7.946323,-0.1571,0.9836,0.0173,1.6400,0.4282,1.2750,0.3776,-1.5409,-0.2109,
7.966074,-0.1173,0.7473,-0.1691,1.6400,0.4282,1.2750,0.3776,-1.5409,-0.2109,
7.968188,-0.1173,0.7473,-0.1691,2.1608,-1.8468,-0.6017,0.3776,-1.5409,-0.2109,
7.970174,-0.1173,0.7473,-0.1691,2.1608,-1.8468,-0.6017,0.0421,-0.7792,-0.0932,
7.986963,-0.1173,0.7473,-0.1691,2.1608,-1.8468,-0.6017,-0.3760,0.1742,-0.0330,
8.005949,-0.1073,0.6218,-0.1708,2.1608,-1.8468,-0.6017,-0.3760,0.1742,-0.0330,
8.010328,-0.1073,0.6218,-0.1708,2.2947,-3.0755,-0.7198,-0.3760,0.1742,-0.0330,
8.012023,-0.1073,0.6218,-0.1708,2.2947,-3.0755,-0.7198,-0.7457,1.1361,0.0101,
8.025911,-0.1073,0.6218,-0.1708,2.2947,-3.0755,-0.7198,-1.0088,1.8589,0.0394,
8.046487,-0.1476,0.6594,-0.0682,2.2947,-3.0755,-0.7198,-1.0088,1.8589,0.0394,
8.048760,-0.1476,0.6594,-0.0682,1.8376,-2.7412,0.1622,-1.0088,1.8589,0.0394,
8.050655,-0.1476,0.6594,-0.0682,1.8376,-2.7412,0.1622,-1.1510,2.1817,0.0708,
8.066493,-0.1476,0.6594,-0.0682,1.8376,-2.7412,0.1622,-1.1686,2.1998,0.1273,
8.086422,-0.2008,0.8121,0.0396,1.8376,-2.7412,0.1622,-1.1686,2.1998,0.1273,
8.088610,-0.2008,0.8121,0.0396,1.2127,-1.2928,1.0736,-1.1686,2.1998,0.1273,
8.090437,-0.2008,0.8121,0.0396,1.2127,-1.2928,1.0736,-1.0605,1.9990,0.2093,
8.106512,-0.2008,0.8121,0.0396,1.2127,-1.2928,1.0736,-0.8378,1.6485,0.3185,
8.126640,-0.2424,0.8741,0.0687,1.2127,-1.2928,1.0736,-0.8378,1.6485,0.3185,
8.129088,-0.2424,0.8741,0.0687,0.6625,-0.7410,1.2338,-0.8378,1.6485,0.3185,
8.130898,-0.2424,0.8741,0.0687,0.6625,-0.7410,1.2338,-0.5891,1.2762,0.4053,
8.145616,-0.2424,0.8741,0.0687,0.6625,-0.7410,1.2338,-0.4155,0.9934,0.4826,
8.165798,-0.2834,0.8548,-0.0450,0.6625,-0.7410,1.2338,-0.4155,0.9934,0.4826,
8.168399,-0.2834,0.8548,-0.0450,0.0705,-0.9930,0.0670,-0.4155,0.9934,0.4826,
8.170321,-0.2834,0.8548,-0.0450,0.0705,-0.9930,0.0670,-0.3633,0.8490,0.5454,
8.186424,-0.2834,0.8548,-0.0450,0.0705,-0.9930,0.0670,-0.4240,0.8405,0.5278,
8.206088,-0.3677,1.0058,-0.1358,0.0705,-0.9930,0.0670,-0.4240,0.8405,0.5278,
8.208691,-0.3677,1.0058,-0.1358,-0.9650,0.4229,-0.8740,-0.4240,0.8405,0.5278,
8.210466,-0.3677,1.0058,-0.1358,-0.9650,0.4229,-0.8740,-0.5518,0.9262,0.4911,
8.224717,-0.3677,1.0058,-0.1358,-0.9650,0.4229,-0.8740,-0.6727,1.0557,0.4618,
8.245114,-0.4823,1.2677,-0.1468,-0.9650,0.4229,-0.8740,-0.6727,1.0557,0.4618,
8.247580,-0.4823,1.2677,-0.1468,-2.2836,2.9315,-1.1129,-0.6727,1.0557,0.4618,
8.249331,-0.4823,1.2677,-0.1468,-2.2836,2.9315,-1.1129,-0.7558,1.1846,0.4501,
8.265526,-0.4823,1.2677,-0.1468,-2.2836,2.9315,-1.1129,-0.7776,1.1920,0.4442,
8.285310,-0.5719,1.1541,-0.2682,-2.2836,2.9315,-1.1129,-0.7776,1.1920,0.4442,
8.287742,-0.5719,1.1541,-0.2682,-3.3436,1.7689,-2.4827,-0.7776,1.1920,0.4442,
8.289070,-0.5719,1.1541,-0.2682,-3.3436,1.7689,-2.4827,-0.6147,0.1310,0.4293,
8.304803,-0.5719,1.1541,-0.2682,-3.3436,1.7689,-2.4827,-0.0165,-3.1297,0.2583,
8.325497,-0.6017,1.6266,-0.2062,-3.3436,1.7689,-2.4827,-0.0165,-3.1297,0.2583,
8.327848,-0.6017,1.6266,-0.2062,-3.7693,6.3681,-2.1238,-0.0165,-3.1297,0.2583,
8.329810,-0.6017,1.6266,-0.2062,-3.7693,6.3681,-2.1238,0.8149,-2.7415,0.0144,
8.345882,-0.6017,1.6266,-0.2062,-3.7693,6.3681,-2.1238,1.2916,-0.1752,-0.1507,
8.365968,-0.3489,0.9667,-0.0882,-3.7693,6.3681,-2.1238,1.2916,-0.1752,-0.1507,
8.369718,-0.3489,0.9667,-0.0882,-1.2696,-0.0928,-0.6886,1.2916,-0.1752,-0.1507,
8.371899,-0.3489,0.9667,-0.0882,-1.2696,-0.0928,-0.6886,1.1105,0.3356,-0.0325,
8.385699,-0.3489,0.9667,-0.0882,-1.2696,-0.0928,-0.6886,0.8634,-0.0192,-0.0138,
8.405715,-0.0757,0.6545,0.0391,-1.2696,-0.0928,-0.6886,0.8634,-0.0192,-0.0138,
8.408192,-0.0757,0.6545,0.0391,1.4398,-3.1298,0.9525,0.8634,-0.0192,-0.0138,
8.410211,-0.0757,0.6545,0.0391,1.4398,-3.1298,0.9525,0.7372,-0.7963,-0.1992,
8.424650,-0.0757,0.6545,0.0391,1.4398,-3.1298,0.9525,0.6317,-1.9979,-0.5736,
8.445980,0.0606,1.0283,0.0921,1.4398,-3.1298,0.9525,0.6317,-1.9979,-0.5736,
8.448182,0.0606,1.0283,0.0921,2.9234,0.5753,1.5790,0.6317,-1.9979,-0.5736,
8.449931,0.0606,1.0283,0.0921,2.9234,0.5753,1.5790,0.5502,-3.2176,-1.0253,
8.465587,0.0606,1.0283,0.0921,2.9234,0.5753,1.5790,0.5444,-3.9548,-1.1462,
8.485657,-0.0677,1.3058,0.0840,2.9234,0.5753,1.5790,0.5444,-3.9548,-1.1462,
8.487857,-0.0677,1.3058,0.0840,2.1625,3.4203,1.3363,0.5444,-3.9548,-1.1462,
8.489574,-0.0677,1.3058,0.0840,2.1625,3.4203,1.3363,0.6589,-3.9239,-0.8991,
8.506362,-0.0677,1.3058,0.0840,2.1625,3.4203,1.3363,0.8266,-2.9662,-0.4916,
8.525820,-0.0357,0.9921,-0.3364,2.1625,3.4203,1.3363,0.8266,-2.9662,-0.4916,
8.527894,-0.0357,0.9921,-0.3364,2.7732,0.4346,-2.9130,0.8266,-2.9662,-0.4916,
8.529701,-0.0357,0.9921,-0.3364,2.7732,0.4346,-2.9130,0.8405,-0.6871,-0.0160,
8.545132,-0.0357,0.9921,-0.3364,2.7732,0.4346,-2.9130,0.6440,2.0608,0.1790,
8.565321,-0.0161,0.7168,-0.1769,2.7732,0.4346,-2.9130,0.6440,2.0608,0.1790,
8.567549,-0.0161,0.7168,-0.1769,2.8902,-2.2659,-0.9812,0.6440,2.0608,0.1790,
8.569399,-0.0161,0.7168,-0.1769,2.8902,-2.2659,-0.9812,0.4708,3.2272,0.2205,
8.585199,-0.0161,0.7168,-0.1769,2.8902,-2.2659,-0.9812,0.3068,2.7841,0.2450,
8.605645,-0.0151,0.6540,-0.0960,2.8902,-2.2659,-0.9812,0.3068,2.7841,0.2450,
8.608433,-0.0151,0.6540,-0.0960,2.6924,-2.8932,0.3100,0.3068,2.7841,0.2450,
8.610228,-0.0151,0.6540,-0.0960,2.6924,-2.8932,0.3100,0.2285,1.7348,0.2668,
8.624643,-0.0151,0.6540,-0.0960,2.6924,-2.8932,0.3100,0.4202,1.1175,0.1917,
8.645085,-0.1251,0.7124,-0.1786,2.6924,-2.8932,0.3100,0.4202,1.1175,0.1917,
8.647202,-0.1251,0.7124,-0.1786,1.4513,-2.3280,-0.2213,0.4202,1.1175,0.1917,
8.649223,-0.1251,0.7124,-0.1786,1.4513,-2.3280,-0.2213,0.5859,0.7217,0.2061,
8.665201,-0.1251,0.7124,-0.1786,1.4513,-2.3280,-0.2213,0.5081,0.0629,0.2951,
8.684953,-0.1842,0.7512,-0.3029,1.4513,-2.3280,-0.2213,0.5081,0.0629,0.2951,
8.687304,-0.1842,0.7512,-0.3029,0.7536,-1.9372,-1.1953,0.5081,0.0629,0.2951,
8.689134,-0.1842,0.7512,-0.3029,0.7536,-1.9372,-1.1953,0.2882,-0.5859,0.3169,
8.705315,-0.1842,0.7512,-0.3029,0.7536,-1.9372,-1.1953,-0.0868,-1.0535,0.3654,
8.725378,-0.1664,0.7427,-0.3906,0.7536,-1.9372,-1.1953,-0.0868,-1.0535,0.3654,
8.727683,-0.1664,0.7427,-0.3906,0.8594,-2.0481,-2.0998,-0.0868,-1.0535,0.3654,
8.729573,-0.1664,0.7427,-0.3906,0.8594,-2.0481,-2.0998,-0.6173,-1.2203,0.3766,
8.745103,-0.1664,0.7427,-0.3906,0.8594,-2.0481,-2.0998,-1.1707,-0.9103,0.2780,
8.765125,-0.2602,0.8121,-0.3459,0.8594,-2.0481,-2.0998,-1.1707,-0.9103,0.2780,
8.768668,-0.2602,0.8121,-0.3459,-0.1165,-1.4538,-2.1011,-1.1707,-0.9103,0.2780,
8.771036,-0.2602,0.8121,-0.3459,-0.1165,-1.4538,-2.1011,-1.4243,-0.1859,0.0591,
8.784708,-0.2602,0.8121,-0.3459,-0.1165,-1.4538,-2.1011,-1.2288,0.6924,-0.1358,
8.805080,-0.4620,1.0442,-0.2143,-0.1165,-1.4538,-2.1011,-1.2288,0.6924,-0.1358,
8.808526,-0.4620,1.0442,-0.2143,-2.0654,0.7807,-1.2238,-1.2288,0.6924,-0.1358,
8.810359,-0.4620,1.0442,-0.2143,-2.0654,0.7807,-1.2238,-0.6839,0.7920,-0.2450,
8.825005,-0.4620,1.0442,-0.2143,-2.0654,0.7807,-1.2238,-0.1912,-0.2077,-0.1763,
8.844957,-0.5885,1.1712,-0.1292,-2.0654,0.7807,-1.2238,-0.1912,-0.2077,-0.1763,
8.848559,-0.5885,1.1712,-0.1292,-3.2361,2.0324,-0.5270,-0.1912,-0.2077,-0.1763,
8.850496,-0.5885,1.1712,-0.1292,-3.2361,2.0324,-0.5270,1.2549,0.2818,-0.3169,
8.864984,-0.5885,1.1712,-0.1292,-3.2361,2.0324,-0.5270,1.3848,-0.6999,-0.1374,
8.885026,-0.5262,1.1993,-0.4698,-3.2361,2.0324,-0.5270,1.3848,-0.6999,-0.1374,
8.887381,-0.5262,1.1993,-0.4698,-2.5296,2.3833,-3.3906,1.3848,-0.6999,-0.1374,
8.889280,-0.5262,1.1993,-0.4698,-2.5296,2.3833,-3.3906,0.6951,-2.2296,-0.0842,
8.903826,-0.5262,1.1993,-0.4698,-2.5296,2.3833,-3.3906,0.1752,-2.7734,-0.1971,
8.925000,-0.3789,1.4004,-0.3384,-2.5296,2.3833,-3.3906,0.1752,-2.7734,-0.1971,
8.927388,-0.3789,1.4004,-0.3384,-0.9146,4.3900,-2.2106,0.1752,-2.7734,-0.1971,
8.929284,-0.3789,1.4004,-0.3384,-0.9146,4.3900,-2.2106,-0.2445,-2.1161,-0.1518,
8.944716,-0.3789,1.4004,-0.3384,-0.9146,4.3900,-2.2106,0.0453,-1.1127,-0.0495,
8.964804,-0.0980,0.9982,-0.1378,-0.9146,4.3900,-2.2106,0.0453,-1.1127,-0.0495,
8.967417,-0.0980,0.9982,-0.1378,1.9398,0.4564,-0.4661,0.0453,-1.1127,-0.0495,
8.969058,-0.0980,0.9982,-0.1378,1.9398,0.4564,-0.4661,0.4282,-0.5225,0.1028,
8.984675,-0.0980,0.9982,-0.1378,1.9398,0.4564,-0.4661,0.2237,-0.5619,-0.1587,
9.005292,-0.1935,1.0811,0.0606,1.9398,0.4564,-0.4661,0.2237,-0.5619,-0.1587,
9.008449,-0.1935,1.0811,0.0606,1.0340,1.2833,1.5365,0.2237,-0.5619,-0.1587,
9.010131,-0.1935,1.0811,0.0606,1.0340,1.2833,1.5365,0.2301,-0.8607,-0.3180,
9.024648,-0.1935,1.0811,0.0606,1.0340,1.2833,1.5365,0.5129,-1.4291,-0.3968,
9.045030,-0.1480,1.1678,0.1739,1.0340,1.2833,1.5365,0.5129,-1.4291,-0.3968,
9.047123,-0.1480,1.1678,0.1739,1.6548,2.1902,2.6469,0.5129,-1.4291,-0.3968,
9.048772,-0.1480,1.1678,0.1739,1.6548,2.1902,2.6469,0.8213,-2.3329,-0.3031,
9.064340,-0.1480,1.1678,0.1739,1.6548,2.1902,2.6469,0.9944,-3.3092,-0.1662,
9.085366,-0.0655,1.0085,-0.0501,1.6548,2.1902,2.6469,0.9944,-3.3092,-0.1662,
9.087559,-0.0655,1.0085,-0.0501,2.6474,0.6897,0.4205,0.9944,-3.3092,-0.1662,
9.089281,-0.0655,1.0085,-0.0501,2.6474,0.6897,0.4205,0.9822,-3.4578,-0.0730,
9.104360,-0.0655,1.0085,-0.0501,2.6474,0.6897,0.4205,0.7478,-2.4991,0.0144,
9.124029,-0.1605,0.7959,-0.2565,2.6474,0.6897,0.4205,0.7478,-2.4991,0.0144,
9.126191,-0.1605,0.7959,-0.2565,1.7745,-1.3788,-1.6724,0.7478,-2.4991,0.0144,
9.128095,-0.1605,0.7959,-0.2565,1.7745,-1.3788,-1.6724,0.3547,-0.9998,0.0953,
9.144993,-0.1605,0.7959,-0.2565,1.7745,-1.3788,-1.6724,-0.1795,0.3409,0.2423,
9.164651,-0.1065,0.6760,-0.2033,1.7745,-1.3788,-1.6724,-0.1795,0.3409,0.2423,
9.167141,-0.1065,0.6760,-0.2033,2.2527,-2.5739,-1.1626,-0.1795,0.3409,0.2423,
9.169032,-0.1065,0.6760,-0.2033,2.2527,-2.5739,-1.1626,-0.6802,1.2565,0.2407,
9.184534,-0.1065,0.6760,-0.2033,2.2527,-2.5739,-1.1626,-1.0040,1.7374,0.1747,
9.204943,-0.1586,0.7261,-0.0838,2.2527,-2.5739,-1.1626,-1.0040,1.7374,0.1747,
9.207184,-0.1586,0.7261,-0.0838,1.6200,-2.1359,-0.1092,-1.0040,1.7374,0.1747,
9.209006,-0.1586,0.7261,-0.0838,1.6200,-2.1359,-0.1092,-1.1670,2.0171,0.1097,
9.224575,-0.1586,0.7261,-0.0838,1.6200,-2.1359,-0.1092,-1.1920,2.0938,0.1001,
9.244722,-0.2402,0.8736,0.0467,1.6200,-2.1359,-0.1092,-1.1920,2.0938,0.1001,
9.247056,-0.2402,0.8736,0.0467,0.7304,-0.7323,0.9891,-1.1920,2.0938,0.1001,
9.248774,-0.2402,0.8736,0.0467,0.7304,-0.7323,0.9891,-1.0749,1.9090,0.1577,
9.264309,-0.2402,0.8736,0.0467,0.7304,-0.7323,0.9891,-0.8389,1.5505,0.2716,
9.284067,-0.2988,0.9203,0.0535,0.7304,-0.7323,0.9891,-0.8389,1.5505,0.2716,
9.286498,-0.2988,0.9203,0.0535,0.0443,-0.3184,0.9099,-0.8389,1.5505,0.2716,
9.288123,-0.2988,0.9203,0.0535,0.0443,-0.3184,0.9099,-0.6067,1.2448,0.3952,
9.304135,-0.2988,0.9203,0.0535,0.0443,-0.3184,0.9099,-0.4293,0.9896,0.4746,
9.324674,-0.2902,0.8463,-0.0362,0.0443,-0.3184,0.9099,-0.4293,0.9896,0.4746,
9.327018,-0.2902,0.8463,-0.0362,-0.0504,-1.1012,-0.0335,-0.4293,0.9896,0.4746,
9.329102,-0.2902,0.8463,-0.0362,-0.0504,-1.1012,-0.0335,-0.3601,0.7627,0.4858,
9.344130,-0.2902,0.8463,-0.0362,-0.0504,-1.1012,-0.0335,-0.4218,0.5880,0.4847,
9.364085,-0.3225,0.8289,-0.1478,-0.0504,-1.1012,-0.0335,-0.4218,0.5880,0.4847,
9.366696,-0.3225,0.8289,-0.1478,-0.5569,-1.3280,-1.2019,-0.4218,0.5880,0.4847,
9.368708,-0.3225,0.8289,-0.1478,-0.5569,-1.3280,-1.2019,-0.5768,0.5321,0.4708,
9.383611,-0.3225,0.8289,-0.1478,-0.5569,-1.3280,-1.2019,-0.7569,0.5502,0.4229,
9.404325,-0.3990,1.0031,-0.1419,-0.5569,-1.3280,-1.2019,-0.7569,0.5502,0.4229,
9.407577,-0.3990,1.0031,-0.1419,-1.4495,0.3379,-1.3120,-0.7569,0.5502,0.4229,
9.409460,-0.3990,1.0031,-0.1419,-1.4495,0.3379,-1.3120,-0.8703,0.6184,0.3521,
9.423562,-0.3990,1.0031,-0.1419,-1.4495,0.3379,-1.3120,-0.8639,0.6605,0.3409,
9.443628,-0.4696,1.1639,-0.0547,-1.4495,0.3379,-1.3120,-0.8639,0.6605,0.3409,
9.446404,-0.4696,1.1639,-0.0547,-2.2697,1.8825,-0.7240,-0.8639,0.6605,0.3409,
9.448736,-0.4696,1.1639,-0.0547,-2.2697,1.8825,-0.7240,-0.7132,0.5380,0.3654,
9.463382,-0.4696,1.1639,-0.0547,-2.2697,1.8825,-0.7240,-0.5097,0.3201,0.3569,
9.484255,-0.4270,1.0434,-0.1732,-2.2697,1.8825,-0.7240,-0.5097,0.3201,0.3569,
9.486646,-0.4270,1.0434,-0.1732,-1.9858,0.6764,-2.0790,-0.5097,0.3201,0.3569,
9.488524,-0.4270,1.0434,-0.1732,-1.9858,0.6764,-2.0790,-0.3989,-0.0021,0.3063,
9.504684,-0.4270,1.0434,-0.1732,-1.9858,0.6764,-2.0790,-0.2200,-0.8458,0.2663,
9.524445,-0.3472,1.3246,-0.3921,-1.9858,0.6764,-2.0790,-0.2200,-0.8458,0.2663,
9.526959,-0.3472,1.3246,-0.3921,-1.3206,3.4131,-4.3781,-0.2200,-0.8458,0.2663,
9.528958,-0.3472,1.3246,-0.3921,-1.3206,3.4131,-4.3781,0.5305,-2.4171,0.2035,
9.543771,-0.3472,1.3246,-0.3921,-1.3206,3.4131,-4.3781,1.1595,-2.3585,0.2807,
9.564341,-0.3887,1.2748,-0.1182,-1.3206,3.4131,-4.3781,1.1595,-2.3585,0.2807,
9.566856,-0.3887,1.2748,-0.1182,-1.8681,2.8888,-1.5628,1.1595,-2.3585,0.2807,
9.568692,-0.3887,1.2748,-0.1182,-1.8681,2.8888,-1.5628,1.2155,-1.6794,0.2003,
9.583746,-0.3887,1.2748,-0.1182,-1.8681,2.8888,-1.5628,1.1292,-2.0629,0.0075,
9.604280,-0.2060,0.9428,0.1549,-1.8681,2.8888,-1.5628,1.1292,-2.0629,0.0075,
9.606486,-0.2060,0.9428,0.1549,-0.1347,-0.3844,1.4222,1.1292,-2.0629,0.0075,
9.608480,-0.2060,0.9428,0.1549,-0.1347,-0.3844,1.4222,1.1281,-3.0520,-0.2876,
9.624683,-0.2060,0.9428,0.1549,-0.1347,-0.3844,1.4222,1.2267,-4.2408,-0.5992,
9.644011,-0.0650,0.9416,0.0599,-0.1347,-0.3844,1.4222,1.2267,-4.2408,-0.5992,
9.646376,-0.0650,0.9416,0.0599,1.4156,-0.3620,0.6563,1.2267,-4.2408,-0.5992,
9.648196,-0.0650,0.9416,0.0599,1.4156,-0.3620,0.6563,1.2368,-4.8358,-0.7670,
9.663610,-0.0650,0.9416,0.0599,1.4156,-0.3620,0.6563,1.2538,-4.7628,-0.8495,
9.684247,0.1038,1.3510,-0.0945,1.4156,-0.3620,0.6563,1.2538,-4.7628,-0.8495,
9.686624,0.1038,1.3510,-0.0945,3.3972,3.7272,-0.8055,1.2538,-4.7628,-0.8495,
9.688531,0.1038,1.3510,-0.0945,3.3972,3.7272,-0.8055,1.2964,-3.8690,-0.6738,
9.705442,0.1038,1.3510,-0.0945,3.3972,3.7272,-0.8055,1.2863,-2.0858,-0.2445,
9.724775,0.3186,1.1165,-0.2836,3.3972,3.7272,-0.8055,1.2863,-2.0858,-0.2445,
9.728310,0.3186,1.1165,-0.2836,5.6974,1.4843,-2.4649,1.2863,-2.0858,-0.2445,
9.730270,0.3186,1.1165,-0.2836,5.6974,1.4843,-2.4649,1.1356,-0.0197,-0.0224,
9.743508,0.3186,1.1165,-0.2836,5.6974,1.4843,-2.4649,0.9129,1.0919,-0.1965,
9.763664,0.0618,0.7610,-0.1244,5.6974,1.4843,-2.4649,0.9129,1.0919,-0.1965,
9.767404,0.0618,0.7610,-0.1244,3.1245,-1.9882,-0.4460,0.9129,1.0919,-0.1965,
9.769508,0.0618,0.7610,-0.1244,3.1245,-1.9882,-0.4460,0.6754,1.1255,-0.1539,
9.783337,0.0618,0.7610,-0.1244,3.1245,-1.9882,-0.4460,0.4453,0.5779,-0.0059,
9.803470,-0.0254,0.6462,-0.0748,3.1245,-1.9882,-0.4460,0.4453,0.5779,-0.0059,
9.806835,-0.0254,0.6462,-0.0748,2.2687,-3.0847,0.3370,0.4453,0.5779,-0.0059,
9.809117,-0.0254,0.6462,-0.0748,2.2687,-3.0847,0.3370,0.2722,-0.0341,0.1332,
9.823590,-0.0254,0.6462,-0.0748,2.2687,-3.0847,0.3370,0.1923,-0.3696,0.2450,
9.843791,-0.1099,0.7368,-0.0965,2.2687,-3.0847,0.3370,0.1923,-0.3696,0.2450,
9.846069,-0.1099,0.7368,-0.0965,1.3782,-2.2050,0.1913,0.1923,-0.3696,0.2450,
9.847867,-0.1099,0.7368,-0.0965,1.3782,-2.2050,0.1913,0.2567,-0.1859,0.2290,
9.863905,-0.1099,0.7368,-0.0965,1.3782,-2.2050,0.1913,0.7361,0.9848,0.0197,
9.883353,-0.3012,0.7429,-0.2832,1.3782,-2.2050,0.1913,0.7361,0.9848,0.0197,
9.886174,-0.3012,0.7429,-0.2832,-0.5639,-2.1326,-1.4129,0.7361,0.9848,0.0197,
9.888360,-0.3012,0.7429,-0.2832,-0.5639,-2.1326,-1.4129,0.6802,1.0621,0.2935,
9.906081,-0.3012,0.7429,-0.2832,-0.5639,-2.1326,-1.4129,0.2221,0.0202,0.5662,
9.923851,-0.2055,0.7241,-0.2504,-0.5639,-2.1326,-1.4129,0.2221,0.0202,0.5662,
9.926478,-0.2055,0.7241,-0.2504,0.1816,-2.3295,-0.8717,0.2221,0.0202,0.5662,
9.928294,-0.2055,0.7241,-0.2504,0.1816,-2.3295,-0.8717,-0.1529,-0.9188,0.5742,
9.943906,-0.2055,0.7241,-0.2504,0.1816,-2.3295,-0.8717,-0.4751,-1.2709,0.3925,
9.963653,-0.2949,0.7615,-0.3530,0.1816,-2.3295,-0.8717,-0.4751,-1.2709,0.3925,
9.966257,-0.2949,0.7615,-0.3530,-0.8121,-2.0228,-2.0888,-0.4751,-1.2709,0.3925,
9.968210,-0.2949,0.7615,-0.3530,-0.8121,-2.0228,-2.0888,-0.9023,-1.1494,0.2200,
9.983251,-0.2949,0.7615,-0.3530,-0.8121,-2.0228,-2.0888,-1.1942,-0.0282,0.0309,
10.003710,-0.4332,0.8455,-0.3484,-0.8121,-2.0228,-2.0888,-1.1942,-0.0282,0.0309,
10.006526,-0.4332,0.8455,-0.3484,-2.1824,-1.2559,-2.4852,-1.1942,-0.0282,0.0309,
10.008468,-0.4332,0.8455,-0.3484,-2.1824,-1.2559,-2.4852,-1.0701,1.6240,-0.1742,
10.022917,-0.4332,0.8455,-0.3484,-2.1824,-1.2559,-2.4852,-0.5827,2.0197,-0.3398,
10.043359,-0.5590,1.1482,-0.2169,-2.1824,-1.2559,-2.4852,-0.5827,2.0197,-0.3398,
10.047236,-0.5590,1.1482,-0.2169,-3.3549,1.7109,-1.3408,-0.5827,2.0197,-0.3398,
10.049544,-0.5590,1.1482,-0.2169,-3.3549,1.7109,-1.3408,-0.0698,0.4735,-0.3308,
10.062773,-0.5590,1.1482,-0.2169,-3.3549,1.7109,-1.3408,0.8389,0.0762,-0.3787,
10.082782,-0.5551,1.1221,-0.4503,-3.3549,1.7109,-1.3408,0.8389,0.0762,-0.3787,
10.085885,-0.5551,1.1221,-0.4503,-3.1906,1.4992,-3.4575,0.8389,0.0762,-0.3787,
10.087752,-0.5551,1.1221,-0.4503,-3.1906,1.4992,-3.4575,1.4493,-0.3254,-0.4282,
10.102845,-0.5551,1.1221,-0.4503,-3.1906,1.4992,-3.4575,0.8964,-1.7044,-0.3627,
10.123322,-0.4412,1.3337,-0.4473,-3.1906,1.4992,-3.4575,0.8964,-1.7044,-0.3627,
10.125739,-0.4412,1.3337,-0.4473,-1.8758,3.6634,-3.0825,0.8964,-1.7044,-0.3627,
10.127725,-0.4412,1.3337,-0.4473,-1.8758,3.6634,-3.0825,0.3212,-2.4245,-0.3595,
10.143505,-0.4412,1.3337,-0.4473,-1.8758,3.6634,-3.0825,-0.2237,-1.9787,-0.2003,
10.162839,-0.1717,1.1705,-0.1060,-1.8758,3.6634,-3.0825,-0.2237,-1.9787,-0.2003,
10.165825,-0.1717,1.1705,-0.1060,0.9776,2.0955,0.0554,-0.2237,-1.9787,-0.2003,
10.167746,-0.1717,1.1705,-0.1060,0.9776,2.0955,0.0554,0.0032,-0.8304,-0.0889,
10.183090,-0.1717,1.1705,-0.1060,0.9776,2.0955,0.0554,0.4091,-0.3925,-0.1337,
10.203701,-0.1014,0.9929,-0.0020,0.9776,2.0955,0.0554,0.4091,-0.3925,-0.1337,
10.206046,-0.1014,0.9929,-0.0020,1.7349,0.3757,1.0867,0.4091,-0.3925,-0.1337,
10.207612,-0.1014,0.9929,-0.0020,1.7349,0.3757,1.0867,0.2908,-1.1750,-0.4043,
10.223086,-0.1014,0.9929,-0.0020,1.7349,0.3757,1.0867,0.2999,-2.0283,-0.5481,
10.242819,-0.1231,1.3486,0.1632,1.7349,0.3757,1.0867,0.2999,-2.0283,-0.5481,
10.244988,-0.1231,1.3486,0.1632,1.7680,3.9287,2.6324,0.2999,-2.0283,-0.5481,
10.246602,-0.1231,1.3486,0.1632,1.7680,3.9287,2.6324,0.5635,-2.7867,-0.5545,
10.263300,-0.1231,1.3486,0.1632,1.7680,3.9287,2.6324,0.8298,-3.3604,-0.4346,
10.283161,-0.0625,1.2484,-0.0572,1.7680,3.9287,2.6324,0.8298,-3.3604,-0.4346,
10.285672,-0.0625,1.2484,-0.0572,2.6629,3.0355,0.3449,0.8298,-3.3604,-0.4346,
10.287254,-0.0625,1.2484,-0.0572,2.6629,3.0355,0.3449,0.9396,-3.1883,-0.2807,
10.303525,-0.0625,1.2484,-0.0572,2.6629,3.0355,0.3449,0.8767,-1.9116,-0.1209,
10.323513,-0.1788,0.9081,-0.2101,2.6629,3.0355,0.3449,0.8767,-1.9116,-0.1209,
10.325707,-0.1788,0.9081,-0.2101,1.6868,-0.2407,-1.1636,0.8767,-1.9116,-0.1209,
10.327522,-0.1788,0.9081,-0.2101,1.6868,-0.2407,-1.1636,0.6839,-0.2876,-0.0799,
10.343727,-0.1788,0.9081,-0.2101,1.6868,-0.2407,-1.1636,0.3435,0.7846,0.0256,
10.362802,-0.1605,0.6210,-0.2101,1.6868,-0.2407,-1.1636,0.3435,0.7846,0.0256,
10.365078,-0.1605,0.6210,-0.2101,1.8565,-3.0329,-0.9394,0.3435,0.7846,0.0256,
10.367029,-0.1605,0.6210,-0.2101,1.8565,-3.0329,-0.9394,-0.0964,1.2389,0.0874,
10.382213,-0.1605,0.6210,-0.2101,1.8565,-3.0329,-0.9394,-0.5188,1.3859,0.0421,
10.403171,-0.1419,0.5152,-0.1290,1.8565,-3.0329,-0.9394,-0.5188,1.3859,0.0421,
10.405518,-0.1419,0.5152,-0.1290,1.9535,-4.0929,-0.0794,-0.5188,1.3859,0.0421,
10.407413,-0.1419,0.5152,-0.1290,1.9535,-4.0929,-0.0794,-0.8394,1.4120,-0.0112,
10.422544,-0.1419,0.5152,-0.1290,1.9535,-4.0929,-0.0794,-0.9864,1.4014,-0.0213,
10.442857,-0.2191,0.7231,0.0017,1.9535,-4.0929,-0.0794,-0.9864,1.4014,-0.0213,
10.445400,-0.2191,0.7231,0.0017,1.1401,-2.0939,1.0538,-0.9864,1.4014,-0.0213,
10.447175,-0.2191,0.7231,0.0017,1.1401,-2.0939,1.0538,-0.9699,1.3508,0.0581,
10.462620,-0.2191,0.7231,0.0017,1.1401,-2.0939,1.0538,-0.8187,1.1521,0.1955,
10.483054,-0.2426,0.8609,0.1121,1.1401,-2.0939,1.0538,-0.8187,1.1521,0.1955,
10.486888,-0.2426,0.8609,0.1121,0.8160,-0.7940,1.9697,-0.8187,1.1521,0.1955,
10.488490,-0.2426,0.8609,0.1121,0.8160,-0.7940,1.9697,-0.5497,0.7611,0.3419,
10.502472,-0.2426,0.8609,0.1121,0.8160,-0.7940,1.9697,-0.2407,0.3318,0.4506,
10.522857,-0.2685,0.8429,0.0362,0.8160,-0.7940,1.9697,-0.2407,0.3318,0.4506,
10.525223,-0.2685,0.8429,0.0362,0.3975,-1.0335,1.1473,-0.2407,0.3318,0.4506,
10.526913,-0.2685,0.8429,0.0362,0.3975,-1.0335,1.1473,-0.0048,0.0570,0.5103,
10.542297,-0.2685,0.8429,0.0362,0.3975,-1.0335,1.1473,0.0959,-0.1364,0.5316,
10.562655,-0.3061,0.8272,-0.1107,0.3975,-1.0335,1.1473,0.0959,-0.1364,0.5316,
10.566841,-0.3061,0.8272,-0.1107,-0.1639,-1.2462,-0.2791,0.0959,-0.1364,0.5316,
10.569204,-0.3061,0.8272,-0.1107,-0.1639,-1.2462,-0.2791,0.0309,-0.2695,0.5507,
10.582238,-0.3061,0.8272,-0.1107,-0.1639,-1.2462,-0.2791,-0.1459,-0.3132,0.5353,
10.602253,-0.4107,1.0539,-0.1615,-0.1639,-1.2462,-0.2791,-0.1459,-0.3132,0.5353,
10.605719,-0.4107,1.0539,-0.1615,-1.3627,0.9206,-0.8254,-0.1459,-0.3132,0.5353,
10.607860,-0.4107,1.0539,-0.1615,-1.3627,0.9206,-0.8254,-0.3324,-0.2780,0.5071,
10.622633,-0.4107,1.0539,-0.1615,-1.3627,0.9206,-0.8254,-0.4799,-0.1715,0.5214,
10.640942,-0.5306,1.2973,-0.1625,-1.3627,0.9206,-0.8254,-0.4799,-0.1715,0.5214,
10.641757,-0.5306,1.2973,-0.1625,-2.7260,3.2416,-1.0113,-0.4799,-0.1715,0.5214,
10.642261,-0.5306,1.2973,-0.1625,-2.7260,3.2416,-1.0113,-0.5720,0.0368,0.5619,
10.661879,-0.5306,1.2973,-0.1625,-2.7260,3.2416,-1.0113,-0.6349,0.3883,0.6248,
10.682022,-0.5470,1.1519,-0.1967,-2.7260,3.2416,-1.0113,-0.6349,0.3883,0.6248,
10.684362,-0.5470,1.1519,-0.1967,-3.1152,1.7498,-1.5558,-0.6349,0.3883,0.6248,
10.686302,-0.5470,1.1519,-0.1967,-3.1152,1.7498,-1.5558,-0.7121,0.8128,0.6962,
10.702638,-0.5470,1.1519,-0.1967,-3.1152,1.7498,-1.5558,-0.7569,1.0381,0.7201,
10.722312,-0.5690,1.1939,-0.3950,-3.1152,1.7498,-1.5558,-0.7569,1.0381,0.7201,
10.724722,-0.5690,1.1939,-0.3950,-3.6113,2.0941,-3.7033,-0.7569,1.0381,0.7201,
10.726649,-0.5690,1.1939,-0.3950,-3.6113,2.0941,-3.7033,-0.1806,-1.9958,0.2961,
10.741893,-0.5690,1.1939,-0.3950,-3.6113,2.0941,-3.7033,0.8890,-5.0030,-0.1395,
10.762240,-0.4490,1.2049,0.0103,-3.6113,2.0941,-3.7033,0.8890,-5.0030,-0.1395,
10.765134,-0.4490,1.2049,0.0103,-2.4568,2.1962,0.1349,0.8890,-5.0030,-0.1395,
10.766734,-0.4490,1.2049,0.0103,-2.4568,2.1962,0.1349,1.7108,-2.8000,-0.2679,
10.781940,-0.4490,1.2049,0.0103,-2.4568,2.1962,0.1349,1.8999,-1.8301,-0.3483,
10.802073,-0.1766,0.7718,-0.0007,-2.4568,2.1962,0.1349,1.8999,-1.8301,-0.3483,
10.806747,-0.1766,0.7718,-0.0007,0.3708,-2.0000,0.5367,1.8999,-1.8301,-0.3483,
10.808818,-0.1766,0.7718,-0.0007,0.3708,-2.0000,0.5367,1.6059,-2.4618,-0.5124,
10.822853,-0.1766,0.7718,-0.0007,0.3708,-2.0000,0.5367,1.2362,-3.5298,-0.6956,
10.841701,-0.0967,0.8336,-0.1744,0.3708,-2.0000,0.5367,1.2362,-3.5298,-0.6956,
10.844048,-0.0967,0.8336,-0.1744,1.4711,-1.2987,-0.8844,1.2362,-3.5298,-0.6956,
10.846092,-0.0967,0.8336,-0.1744,1.4711,-1.2987,-0.8844,0.8005,-3.6368,-0.7297,
10.861202,-0.0967,0.8336,-0.1744,1.4711,-1.2987,-0.8844,0.3989,-2.4256,-0.7036,
10.882115,0.0215,1.3019,-0.2326,1.4711,-1.2987,-0.8844,0.3989,-2.4256,-0.7036,
10.884815,0.0215,1.3019,-0.2326,2.9952,3.3846,-1.5419,0.3989,-2.4256,-0.7036,
10.886603,0.0215,1.3019,-0.2326,2.9952,3.3846,-1.5419,0.1252,-1.0461,-0.6317,
10.907043,0.0215,1.3019,-0.2326,2.9952,3.3846,-1.5419,0.0336,-0.0623,-0.4410,
10.924268,0.0655,1.0730,-0.0770,2.9952,3.3846,-1.5419,0.0336,-0.0623,-0.4410,
10.927865,0.0655,1.0730,-0.0770,3.6333,1.2028,-0.0487,0.0336,-0.0623,-0.4410,
10.929827,0.0655,1.0730,-0.0770,3.6333,1.2028,-0.0487,0.0927,0.4133,-0.1901,
10.941807,0.0655,1.0730,-0.0770,3.6333,1.2028,-0.0487,0.1971,0.5768,0.0037,
10.960752,-0.0064,0.7329,-0.0283,3.6333,1.2028,-0.0487,0.1971,0.5768,0.0037,
10.961707,-0.0064,0.7329,-0.0283,2.9162,-2.1247,0.5426,0.1971,0.5768,0.0037,
10.962330,-0.0064,0.7329,-0.0283,2.9162,-2.1247,0.5426,0.3116,0.6056,0.1161,
10.980415,-0.0064,0.7329,-0.0283,2.9162,-2.1247,0.5426,0.4032,0.4815,0.2280,
11.001959,-0.0523,0.6262,-0.0640,2.9162,-2.1247,0.5426,0.4032,0.4815,0.2280,
11.004208,-0.0523,0.6262,-0.0640,2.3824,-3.1780,0.3897,0.4032,0.4815,0.2280,
11.006045,-0.0523,0.6262,-0.0640,2.3824,-3.1780,0.3897,0.4549,0.3702,0.3356,
11.021271,-0.0523,0.6262,-0.0640,2.3824,-3.1780,0.3897,0.5268,0.5939,0.3680,
11.041434,-0.1632,0.7205,-0.1510,2.3824,-3.1780,0.3897,0.5268,0.5939,0.3680,
11.043451,-0.1632,0.7205,-0.1510,1.1425,-2.2712,-0.2258,0.5268,0.5939,0.3680,
11.045320,-0.1632,0.7205,-0.1510,1.1425,-2.2712,-0.2258,0.8442,1.3119,0.2993,
11.061520,-0.1632,0.7205,-0.1510,1.1425,-2.2712,-0.2258,0.8064,1.1553,0.4517,
11.081051,-0.1730,0.7796,-0.2729,1.1425,-2.2712,-0.2258,0.8064,1.1553,0.4517,
11.083492,-0.1730,0.7796,-0.2729,0.8345,-1.6827,-0.9827,0.8064,1.1553,0.4517,
11.085480,-0.1730,0.7796,-0.2729,0.8345,-1.6827,-0.9827,0.5529,0.3425,0.5097,
11.127668,-0.1730,0.7796,-0.2729,0.8345,-1.6827,-0.9827,0.1459,-0.4879,0.5097,
11.130577,-0.2695,0.8057,-0.4163,0.8345,-1.6827,-0.9827,0.1459,-0.4879,0.5097,
11.132620,-0.2695,0.8057,-0.4163,-0.2955,-1.4513,-2.2642,0.1459,-0.4879,0.5097,
11.135184,-0.2695,0.8057,-0.4163,-0.2955,-1.4513,-2.2642,-0.3435,-0.7899,0.5023,
11.142346,-0.2695,0.8057,-0.4163,-0.2955,-1.4513,-2.2642,-0.8906,-0.5380,0.4639,
11.160957,-0.3303,0.8499,-0.3501,-0.2955,-1.4513,-2.2642,-0.8906,-0.5380,0.4639,
11.163347,-0.3303,0.8499,-0.3501,-1.0264,-1.1020,-1.9036,-0.8906,-0.5380,0.4639,
11.165377,-0.3303,0.8499,-0.3501,-1.0264,-1.1020,-1.9036,-1.2762,-0.0543,0.3254,
11.180902,-0.3303,0.8499,-0.3501,-1.0264,-1.1020,-1.9036,-1.4360,0.5364,0.0959,
11.201351,-0.4512,0.9044,-0.2541,-1.0264,-1.1020,-1.9036,-1.4360,0.5364,0.0959,
11.204772,-0.4512,0.9044,-0.2541,-2.2697,-0.6431,-1.4101,-1.4360,0.5364,0.0959,
11.206925,-0.4512,0.9044,-0.2541,-2.2697,-0.6431,-1.4101,-1.1441,1.2773,-0.1917,
11.220810,-0.4512,0.9044,-0.2541,-2.2697,-0.6431,-1.4101,-0.3483,1.4573,-0.4064,
11.240719,-0.6281,1.1649,-0.1639,-2.2697,-0.6431,-1.4101,-0.3483,1.4573,-0.4064,
11.242966,-0.6281,1.1649,-0.1639,-3.9416,1.9060,-0.6916,-0.3483,1.4573,-0.4064,
11.244900,-0.6281,1.1649,-0.1639,-3.9416,1.9060,-0.6916,0.9433,1.2767,-0.5459,
11.260941,-0.6281,1.1649,-0.1639,-3.9416,1.9060,-0.6916,1.6165,0.0730,-0.4847,
11.280319,-0.6330,1.1033,-0.4495,-3.9416,1.9060,-0.6916,1.6165,0.0730,-0.4847,
11.282277,-0.6330,1.1033,-0.4495,-3.8229,1.4114,-2.9462,1.6165,0.0730,-0.4847,
11.283485,-0.6330,1.1033,-0.4495,-3.8229,1.4114,-2.9462,1.0615,-2.2690,-0.2796,
11.300403,-0.6330,1.1033,-0.4495,-3.8229,1.4114,-2.9462,0.2194,-3.3359,-0.0389,
11.320897,-0.3911,1.3916,-0.3232,-3.8229,1.4114,-2.9462,0.2194,-3.3359,-0.0389,
11.323374,-0.3911,1.3916,-0.3232,-1.2263,4.2905,-1.7494,0.2194,-3.3359,-0.0389,
11.325305,-0.3911,1.3916,-0.3232,-1.2263,4.2905,-1.7494,-0.5678,-3.2070,-0.1092,
11.340805,-0.3911,1.3916,-0.3232,-1.2263,4.2905,-1.7494,-0.8511,-2.4948,-0.3771,
11.361537,-0.1649,1.1060,0.0523,-1.2263,4.2905,-1.7494,-0.8511,-2.4948,-0.3771,
11.363840,-0.1649,1.1060,0.0523,1.2131,1.4869,1.3572,-0.8511,-2.4948,-0.3771,
11.365581,-0.1649,1.1060,0.0523,1.2131,1.4869,1.3572,-0.3915,-1.4727,-0.4288,
11.380978,-0.1649,1.1060,0.0523,1.2131,1.4869,1.3572,0.3467,-0.6104,-0.4485,
11.401079,-0.1366,1.1429,0.1219,1.2131,1.4869,1.3572,0.3467,-0.6104,-0.4485,
11.403491,-0.1366,1.1429,0.1219,1.6853,1.8987,1.9102,0.3467,-0.6104,-0.4485,
11.405305,-0.1366,1.1429,0.1219,1.6853,1.8987,1.9102,0.6205,-0.8330,-0.5012,
11.420390,-0.1366,1.1429,0.1219,1.6853,1.8987,1.9102,0.8916,-1.5223,-0.3957,
11.440760,-0.0386,1.2667,0.0792,1.6853,1.8987,1.9102,0.8916,-1.5223,-0.3957,
11.443818,-0.0386,1.2667,0.0792,2.8485,3.1922,1.6230,0.8916,-1.5223,-0.3957,
11.445575,-0.0386,1.2667,0.0792,2.8485,3.1922,1.6230,1.0972,-2.1614,-0.1742,
11.461001,-0.0386,1.2667,0.0792,2.8485,3.1922,1.6230,1.0690,-2.3617,0.0101,
11.480472,-0.0432,1.0039,-0.2377,2.8485,3.1922,1.6230,1.0690,-2.3617,0.0101,
11.482851,-0.0432,1.0039,-0.2377,2.9148,0.6658,-1.3818,1.0690,-2.3617,0.0101,
11.484715,-0.0432,1.0039,-0.2377,2.9148,0.6658,-1.3818,0.7776,-1.3870,0.1103,
11.500308,-0.0432,1.0039,-0.2377,2.9148,0.6658,-1.3818,0.3798,-0.1513,0.1566,
11.520699,-0.2736,0.8008,-0.2194,2.9148,0.6658,-1.3818,0.3798,-0.1513,0.1566,
11.522741,-0.2736,0.8008,-0.2194,0.5818,-1.3372,-1.0779,0.3798,-0.1513,0.1566,
11.524599,-0.2736,0.8008,-0.2194,0.5818,-1.3372,-1.0779,-0.0607,0.6951,0.1758,
11.540530,-0.2736,0.8008,-0.2194,0.5818,-1.3372,-1.0779,-0.5167,1.3007,0.1726,
11.561229,-0.2487,0.6244,-0.1405,0.5818,-1.3372,-1.0779,-0.5167,1.3007,0.1726,
11.565553,-0.2487,0.6244,-0.1405,0.7183,-3.1008,-0.2830,-0.5167,1.3007,0.1726,
11.567278,-0.2487,0.6244,-0.1405,0.7183,-3.1008,-0.2830,-0.8389,1.7279,0.1380,
11.580250,-0.2487,0.6244,-0.1405,0.7183,-3.1008,-0.2830,-1.0434,2.1343,0.1252,
11.600242,-0.2480,0.6252,-0.1119,0.7183,-3.1008,-0.2830,-1.0434,2.1343,0.1252,
11.603049,-0.2480,0.6252,-0.1119,0.5967,-3.1490,-0.1123,-1.0434,2.1343,0.1252,
11.605029,-0.2480,0.6252,-0.1119,0.5967,-3.1490,-0.1123,-1.1808,2.5870,0.0698,
11.620583,-0.2480,0.6252,-0.1119,0.5967,-3.1490,-0.1123,-1.2091,2.8810,0.0660,
11.640332,-0.2560,0.7459,0.0213,0.5967,-3.1490,-0.1123,-1.2091,2.8810,0.0660,
11.642764,-0.2560,0.7459,0.0213,0.3920,-2.0183,1.0721,-1.2091,2.8810,0.0660,
11.644518,-0.2560,0.7459,0.0213,0.3920,-2.0183,1.0721,-1.1212,2.7910,0.1065,
11.661002,-0.2560,0.7459,0.0213,0.3920,-2.0183,1.0721,-0.9481,2.3223,0.1662,
11.680279,-0.2768,0.7964,0.1016,0.3920,-2.0183,1.0721,-0.9481,2.3223,0.1662,
11.682854,-0.2768,0.7964,0.1016,0.0541,-1.5718,1.7631,-0.9481,2.3223,0.1662,
11.684406,-0.2768,0.7964,0.1016,0.0541,-1.5718,1.7631,-0.7212,1.6378,0.2653,
11.699874,-0.2768,0.7964,0.1016,0.0541,-1.5718,1.7631,-0.4623,0.9273,0.3553,
11.719955,-0.2922,0.8272,0.0530,0.0541,-1.5718,1.7631,-0.4623,0.9273,0.3553,
11.722629,-0.2922,0.8272,0.0530,-0.2506,-1.3207,1.2029,-0.4623,0.9273,0.3553,
11.725014,-0.2922,0.8272,0.0530,-0.2506,-1.3207,1.2029,-0.2285,0.4378,0.4027,
11.740311,-0.2922,0.8272,0.0530,-0.2506,-1.3207,1.2029,-0.1135,0.2557,0.4256,
11.760577,-0.3735,0.9902,-0.0850,-0.2506,-1.3207,1.2029,-0.1135,0.2557,0.4256,
11.762849,-0.3735,0.9902,-0.0850,-1.2023,0.2324,-0.1846,-0.1135,0.2557,0.4256,
11.764653,-0.3735,0.9902,-0.0850,-1.2023,0.2324,-0.1846,-0.1161,0.3164,0.4336,
11.779781,-0.3735,0.9902,-0.0850,-1.2023,0.2324,-0.1846,-0.2115,0.5087,0.4352,
11.799683,-0.4576,1.1920,-0.1876,-1.2023,0.2324,-0.1846,-0.2115,0.5087,0.4352,
11.801577,-0.4576,1.1920,-0.1876,-2.1936,2.1666,-1.2119,-0.2115,0.5087,0.4352,
11.803048,-0.4576,1.1920,-0.1876,-2.1936,2.1666,-1.2119,-0.3798,0.7713,0.4080,
11.819374,-0.4576,1.1920,-0.1876,-2.1936,2.1666,-1.2119,-0.5971,1.0072,0.3659,
11.839481,-0.4517,1.1991,-0.1803,-2.1936,2.1666,-1.2119,-0.5971,1.0072,0.3659,
11.841457,-0.4517,1.1991,-0.1803,-2.3039,2.1907,-1.2480,-0.5971,1.0072,0.3659,
11.842822,-0.4517,1.1991,-0.1803,-2.3039,2.1907,-1.2480,-0.7681,1.0658,0.2983,
11.859870,-0.4517,1.1991,-0.1803,-2.3039,2.1907,-1.2480,-0.8378,1.0812,0.1981,
11.879276,-0.4598,1.3202,-0.1305,-2.3039,2.1907,-1.2480,-0.8378,1.0812,0.1981,
11.881275,-0.4598,1.3202,-0.1305,-2.4956,3.3446,-0.9784,-0.8378,1.0812,0.1981,
11.882692,-0.4598,1.3202,-0.1305,-2.4956,3.3446,-0.9784,-0.8043,1.1286,0.0511,
11.899529,-0.4598,1.3202,-0.1305,-2.4956,3.3446,-0.9784,-0.6051,0.9497,-0.0517,
11.920228,-0.4429,1.2770,-0.0562,-2.4956,3.3446,-0.9784,-0.6051,0.9497,-0.0517,
11.922475,-0.4429,1.2770,-0.0562,-2.3387,2.9150,-0.4377,-0.6051,0.9497,-0.0517,
11.924220,-0.4429,1.2770,-0.0562,-2.3387,2.9150,-0.4377,-0.2168,0.3542,-0.0794,
11.940037,-0.4429,1.2770,-0.0562,-2.3387,2.9150,-0.4377,0.1907,-0.1949,-0.2317,
11.959544,-0.2064,0.7525,-0.0513,-2.3387,2.9150,-0.4377,0.1907,-0.1949,-0.2317,
11.961857,-0.2064,0.7525,-0.0513,0.0464,-2.2109,-0.3837,0.1907,-0.1949,-0.2317,
11.963406,-0.2064,0.7525,-0.0513,0.0464,-2.2109,-0.3837,0.3840,-0.1742,-0.4586,
11.980429,-0.2064,0.7525,-0.0513,0.0464,-2.2109,-0.3837,0.5529,-0.5081,-0.7095,
12.000014,-0.1275,0.8473,0.0877,0.0464,-2.2109,-0.3837,0.5529,-0.5081,-0.7095,
12.002769,-0.1275,0.8473,0.0877,1.0499,-1.2265,1.1225,0.5529,-0.5081,-0.7095,
12.004509,-0.1275,0.8473,0.0877,1.0499,-1.2265,1.1225,0.7020,-1.3332,-0.8597,
12.020751,-0.1275,0.8473,0.0877,1.0499,-1.2265,1.1225,0.8400,-2.3713,-0.9651,
12.040519,-0.1820,1.2399,0.1532,1.0499,-1.2265,1.1225,0.8400,-2.3713,-0.9651,
12.043901,-0.1820,1.2399,0.1532,0.8851,2.7212,1.8695,0.8400,-2.3713,-0.9651,
12.046540,-0.1820,1.2399,0.1532,0.8851,2.7212,1.8695,1.0173,-3.2789,-0.8527,
12.060109,-0.1820,1.2399,0.1532,0.8851,2.7212,1.8695,1.2954,-3.7700,-0.6120,
12.079106,-0.1092,1.1118,-0.0418,0.8851,2.7212,1.8695,1.2954,-3.7700,-0.6120,
12.080483,-0.1092,1.1118,-0.0418,1.9268,1.5671,-0.0092,1.2954,-3.7700,-0.6120,
12.081700,-0.1092,1.1118,-0.0418,1.9268,1.5671,-0.0092,1.6384,-2.9678,-0.2514,
12.098892,-0.1092,1.1118,-0.0418,1.9268,1.5671,-0.0092,1.8717,-0.6951,0.0602,
12.118857,-0.0086,0.7217,-0.2248,1.9268,1.5671,-0.0092,1.8717,-0.6951,0.0602,
12.121028,-0.0086,0.7217,-0.2248,2.9538,-2.2147,-1.3713,1.8717,-0.6951,0.0602,
12.122585,-0.0086,0.7217,-0.2248,2.9538,-2.2147,-1.3713,1.7891,1.0530,0.1140,
12.139666,-0.0086,0.7217,-0.2248,2.9538,-2.2147,-1.3713,1.4280,1.2932,0.1955,
12.159186,0.0542,0.6047,-0.1537,2.9538,-2.2147,-1.3713,1.4280,1.2932,0.1955,
12.161578,0.0542,0.6047,-0.1537,3.4543,-3.3034,0.0597,1.4280,1.2932,0.1955,
12.163338,0.0542,0.6047,-0.1537,3.4543,-3.3034,0.0597,1.0077,0.7334,0.2093,
12.179644,0.0542,0.6047,-0.1537,3.4543,-3.3034,0.0597,0.6290,-0.1252,0.2115,
12.199630,-0.0308,0.6635,-0.1390,3.4543,-3.3034,0.0597,0.6290,-0.1252,0.2115,
12.201991,-0.0308,0.6635,-0.1390,2.5238,-2.6935,0.5398,0.6290,-0.1252,0.2115,
12.203868,-0.0308,0.6635,-0.1390,2.5238,-2.6935,0.5398,0.4059,-0.5752,0.2099,
12.220353,-0.0308,0.6635,-0.1390,2.5238,-2.6935,0.5398,0.2429,-0.6354,0.2743,
12.239258,-0.1104,0.8157,-0.1576,2.5238,-2.6935,0.5398,0.2429,-0.6354,0.2743,
12.241673,-0.1104,0.8157,-0.1576,1.7012,-1.2040,0.4092,0.2429,-0.6354,0.2743,
12.243441,-0.1104,0.8157,-0.1576,1.7012,-1.2040,0.4092,0.0916,-0.5838,0.2977,
12.259141,-0.1104,0.8157,-0.1576,1.7012,-1.2040,0.4092,-0.0527,-0.5939,0.3329,
12.279971,-0.2172,0.8289,-0.2355,1.7012,-1.2040,0.4092,-0.0527,-0.5939,0.3329,
12.283458,-0.2172,0.8289,-0.2355,0.5843,-1.1078,-0.4121,-0.0527,-0.5939,0.3329,
12.285335,-0.2172,0.8289,-0.2355,0.5843,-1.1078,-0.4121,-0.3505,-0.7265,0.4708,
12.299094,-0.2172,0.8289,-0.2355,0.5843,-1.1078,-0.4121,-0.7238,-0.7659,0.4884,
12.319005,-0.3259,0.8949,-0.2287,0.5843,-1.1078,-0.4121,-0.7238,-0.7659,0.4884,
12.321941,-0.3259,0.8949,-0.2287,-0.6060,-0.5497,-0.6231,-0.7238,-0.7659,0.4884,
12.324061,-0.3259,0.8949,-0.2287,-0.6060,-0.5497,-0.6231,-0.9348,-0.4069,0.3702,
12.339452,-0.3259,0.8949,-0.2287,-0.6060,-0.5497,-0.6231,-1.0264,0.3867,0.2226,
12.358977,-0.4495,0.9425,-0.2790,-0.6060,-0.5497,-0.6231,-1.0264,0.3867,0.2226,
12.362197,-0.4495,0.9425,-0.2790,-1.9064,-0.1593,-1.4544,-1.0264,0.3867,0.2226,
12.364153,-0.4495,0.9425,-0.2790,-1.9064,-0.1593,-1.4544,-1.0738,1.4136,0.0623,
12.379354,-0.4495,0.9425,-0.2790,-1.9064,-0.1593,-1.4544,-0.8389,2.3473,-0.1182,
12.399501,-0.7014,1.1685,-0.2875,-1.9064,-0.1593,-1.4544,-0.8389,2.3473,-0.1182,
12.402120,-0.7014,1.1685,-0.2875,-4.4514,2.0131,-1.7140,-0.8389,2.3473,-0.1182,
12.404010,-0.7014,1.1685,-0.2875,-4.4514,2.0131,-1.7140,0.8858,3.6288,-0.5417,
12.419659,-0.7014,1.1685,-0.2875,-4.4514,2.0131,-1.7140,1.2815,1.6176,-0.4895,
12.439222,-0.6736,0.8905,-0.4827,-4.4514,2.0131,-1.7140,1.2815,1.6176,-0.4895,
12.441582,-0.6736,0.8905,-0.4827,-4.1294,-0.5977,-2.9657,1.2815,1.6176,-0.4895,
12.443520,-0.6736,0.8905,-0.4827,-4.1294,-0.5977,-2.9657,0.4261,-1.0535,-0.1369,
12.459346,-0.6736,0.8905,-0.4827,-4.1294,-0.5977,-2.9657,-0.3686,-1.9356,0.0708,
12.479788,-0.5055,1.3542,-0.3332,-4.1294,-0.5977,-2.9657,-0.3686,-1.9356,0.0708,
12.482346,-0.5055,1.3542,-0.3332,-2.3665,3.9523,-1.6413,-0.3686,-1.9356,0.0708,
12.484289,-0.5055,1.3542,-0.3332,-2.3665,3.9523,-1.6413,-0.7654,-1.5825,-0.2541,
12.499802,-0.5055,1.3542,-0.3332,-2.3665,3.9523,-1.6413,-0.8932,-0.7755,-0.4559,
12.519414,-0.4459,1.0974,-0.0237,-2.3665,3.9523,-1.6413,-0.8932,-0.7755,-0.4559,
12.522001,-0.4459,1.0974,-0.0237,-1.5822,1.4281,0.9576,-0.8932,-0.7755,-0.4559,
12.523764,-0.4459,1.0974,-0.0237,-1.5822,1.4281,0.9576,-0.6637,-0.2445,-0.4272,
12.539712,-0.4459,1.0974,-0.0237,-1.5822,1.4281,0.9576,-0.3047,0.0810,-0.2898,
12.559773,-0.3528,0.9115,0.1290,-1.5822,1.4281,0.9576,-0.3047,0.0810,-0.2898,
12.563269,-0.3528,0.9115,0.1290,-0.5328,-0.3741,2.2645,-0.3047,0.0810,-0.2898,
12.565232,-0.3528,0.9115,0.1290,-0.5328,-0.3741,2.2645,0.1108,0.1401,-0.2040,
12.580053,-0.3528,0.9115,0.1290,-0.5328,-0.3741,2.2645,0.6040,-0.4149,-0.2274,
12.598880,-0.2184,1.2137,0.2976,-0.5328,-0.3741,2.2645,0.6040,-0.4149,-0.2274,
12.602404,-0.2184,1.2137,0.2976,0.8701,2.6283,4.0325,0.6040,-0.4149,-0.2274,
12.604021,-0.2184,1.2137,0.2976,0.8701,2.6283,4.0325,1.1063,-1.7870,-0.4336,
12.620204,-0.2184,1.2137,0.2976,0.8701,2.6283,4.0325,1.4807,-3.4365,-0.5635,
12.638878,-0.1322,1.2440,-0.0066,0.8701,2.6283,4.0325,1.4807,-3.4365,-0.5635,
12.641984,-0.1322,1.2440,-0.0066,2.0249,3.0503,1.1963,1.4807,-3.4365,-0.5635,
12.643449,-0.1322,1.2440,-0.0066,2.0249,3.0503,1.1963,1.5579,-4.4262,-0.4133,
12.659262,-0.1322,1.2440,-0.0066,2.0249,3.0503,1.1963,1.2117,-3.7172,-0.1246,
12.679104,-0.0374,0.9232,-0.4077,2.0249,3.0503,1.1963,1.2117,-3.7172,-0.1246,
12.681701,-0.0374,0.9232,-0.4077,3.2387,0.0068,-2.7976,1.2117,-3.7172,-0.1246,
12.683354,-0.0374,0.9232,-0.4077,3.2387,0.0068,-2.7976,0.6376,-1.5292,0.1300,
12.699770,-0.0374,0.9232,-0.4077,3.2387,0.0068,-2.7976,-0.0043,0.7297,0.0703,
12.719389,-0.1615,0.7007,-0.2736,3.2387,0.0068,-2.7976,-0.0043,0.7297,0.0703,
12.722821,-0.1615,0.7007,-0.2736,1.9742,-2.1838,-1.4120,-0.0043,0.7297,0.0703,
12.724773,-0.1615,0.7007,-0.2736,1.9742,-2.1838,-1.4120,-0.6253,2.0762,-0.0032,
12.739154,-0.1615,0.7007,-0.2736,1.9742,-2.1838,-1.4120,-1.1494,2.5817,-0.0368,
12.759476,-0.1700,0.5507,-0.1495,1.9742,-2.1838,-1.4120,-1.1494,2.5817,-0.0368,
12.761933,-0.1700,0.5507,-0.1495,1.7778,-3.6967,-0.1919,-1.1494,2.5817,-0.0368,
12.763845,-0.1700,0.5507,-0.1495,1.7778,-3.6967,-0.1919,-1.5089,2.8347,-0.0378,
12.779525,-0.1700,0.5507,-0.1495,1.7778,-3.6967,-0.1919,-1.6677,2.9966,-0.0240,
12.798767,-0.1664,0.6183,0.0327,1.7778,-3.6967,-0.1919,-1.6677,2.9966,-0.0240,
12.801217,-0.1664,0.6183,0.0327,1.6870,-3.1044,1.4086,-1.6677,2.9966,-0.0240,
12.803186,-0.1664,0.6183,0.0327,1.6870,-3.1044,1.4086,-1.6325,2.9092,-0.0021,
12.819565,-0.1664,0.6183,0.0327,1.6870,-3.1044,1.4086,-1.4221,2.5071,0.0900,
12.838830,-0.2384,0.8162,0.1490,1.6870,-3.1044,1.4086,-1.4221,2.5071,0.0900,
12.841167,-0.2384,0.8162,0.1490,0.8579,-1.2309,2.3398,-1.4221,2.5071,0.0900,
12.842987,-0.2384,0.8162,0.1490,0.8579,-1.2309,2.3398,-1.0924,1.9867,0.2551,
12.858601,-0.2384,0.8162,0.1490,0.8579,-1.2309,2.3398,-0.7073,1.4546,0.3734,
12.879557,-0.2575,0.9088,0.1026,0.8579,-1.2309,2.3398,-0.7073,1.4546,0.3734,
12.882360,-0.2575,0.9088,0.1026,0.4987,-0.3918,1.7664,-0.7073,1.4546,0.3734,
12.884222,-0.2575,0.9088,0.1026,0.4987,-0.3918,1.7664,-0.3643,1.0195,0.4266,
12.898695,-0.2575,0.9088,0.1026,0.4987,-0.3918,1.7664,-0.1981,0.7989,0.4570,
12.918959,-0.3203,0.9467,-0.0994,0.4987,-0.3918,1.7664,-0.1981,0.7989,0.4570,
12.922119,-0.3203,0.9467,-0.0994,-0.3086,-0.0811,-0.2147,-0.1981,0.7989,0.4570,
12.923790,-0.3203,0.9467,-0.0994,-0.3086,-0.0811,-0.2147,-0.2519,0.7787,0.4927,
12.938445,-0.3203,0.9467,-0.0994,-0.3086,-0.0811,-0.2147,-0.4719,0.9428,0.5225,
12.958477,-0.4121,1.0984,-0.1989,-0.3086,-0.0811,-0.2147,-0.4719,0.9428,0.5225,
12.960973,-0.4121,1.0984,-0.1989,-1.4096,1.3444,-1.2265,-0.4719,0.9428,0.5225,
12.962543,-0.4121,1.0984,-0.1989,-1.4096,1.3444,-1.2265,-0.7611,1.2027,0.5481,
12.978074,-0.4121,1.0984,-0.1989,-1.4096,1.3444,-1.2265,-1.0461,1.4461,0.5225,
12.998181,-0.4757,1.2303,-0.1727,-1.4096,1.3444,-1.2265,-1.0461,1.4461,0.5225,
13.001830,-0.4757,1.2303,-0.1727,-2.2674,2.5612,-1.1792,-1.0461,1.4461,0.5225,
13.006853,-0.4757,1.2303,-0.1727,-2.2674,2.5612,-1.1792,-1.2629,1.5649,0.4772,
13.017680,-0.4757,1.2303,-0.1727,-2.2674,2.5612,-1.1792,-1.3119,1.5436,0.4581,
13.037815,-0.4832,1.1311,-0.1038,-2.2674,2.5612,-1.1792,-1.3119,1.5436,0.4581,
13.039669,-0.4832,1.1311,-0.1038,-2.5409,1.5287,-0.8517,-1.3119,1.5436,0.4581,
13.040721,-0.4832,1.1311,-0.1038,-2.5409,1.5287,-0.8517,-1.1766,1.4046,0.4756,
13.058416,-0.4832,1.1311,-0.1038,-2.5409,1.5287,-0.8517,-0.8197,0.6738,0.3851,
13.078773,-0.7161,1.4050,-0.2548,-2.5409,1.5287,-0.8517,-0.8197,0.6738,0.3851,
13.081284,-0.7161,1.4050,-0.2548,-4.9887,4.1754,-2.6251,-0.8197,0.6738,0.3851,
13.083107,-0.7161,1.4050,-0.2548,-4.9887,4.1754,-2.6251,0.3846,-2.4027,0.0346,
13.099407,-0.7161,1.4050,-0.2548,-4.9887,4.1754,-2.6251,1.5031,-3.6187,-0.0399,
13.119480,-0.3513,0.9408,-0.2196,-4.9887,4.1754,-2.6251,1.5031,-3.6187,-0.0399,
13.123228,-0.3513,0.9408,-0.2196,-1.4257,-0.3769,-2.1614,1.5031,-3.6187,-0.0399,
13.125866,-0.3513,0.9408,-0.2196,-1.4257,-0.3769,-2.1614,1.5729,-1.8685,-0.1443,
13.138477,-0.3513,0.9408,-0.2196,-1.4257,-0.3769,-2.1614,1.1840,-0.7952,-0.2621,
13.158473,-0.1739,0.6472,-0.0958,-1.4257,-0.3769,-2.1614,1.1840,-0.7952,-0.2621,
13.162012,-0.1739,0.6472,-0.0958,0.4432,-3.2158,-0.4915,1.1840,-0.7952,-0.2621,
13.164115,-0.1739,0.6472,-0.0958,0.4432,-3.2158,-0.4915,0.8059,-0.5007,-0.3947,
13.178498,-0.1739,0.6472,-0.0958,0.4432,-3.2158,-0.4915,0.6045,-0.8687,-0.6088,
13.198996,-0.0904,1.0649,0.1395,0.4432,-3.2158,-0.4915,0.6045,-0.8687,-0.6088,
13.202680,-0.0904,1.0649,0.1395,1.4659,0.9373,2.0060,0.6045,-0.8687,-0.6088,
13.204509,-0.0904,1.0649,0.1395,1.4659,0.9373,2.0060,0.5928,-1.9303,-0.8932,
13.218977,-0.0904,1.0649,0.1395,1.4659,0.9373,2.0060,0.7638,-3.1223,-1.0844,
13.238453,-0.1747,1.2274,0.2167,1.4659,0.9373,2.0060,0.7638,-3.1223,-1.0844,
13.240482,-0.1747,1.2274,0.2167,1.0781,2.6484,2.7576,0.7638,-3.1223,-1.0844,
13.242259,-0.1747,1.2274,0.2167,1.0781,2.6484,2.7576,1.0807,-3.8706,-0.9422,
13.258323,-0.1747,1.2274,0.2167,1.0781,2.6484,2.7576,1.4594,-3.8520,-0.6013,
13.278310,-0.0310,0.9462,-0.1297,1.0781,2.6484,2.7576,1.4594,-3.8520,-0.6013,
13.280480,-0.0310,0.9462,-0.1297,2.8195,-0.0018,-0.6415,1.4594,-3.8520,-0.6013,
13.282450,-0.0310,0.9462,-0.1297,2.8195,-0.0018,-0.6415,1.6868,-2.8751,-0.1609,
13.297953,-0.0310,0.9462,-0.1297,2.8195,-0.0018,-0.6415,1.6117,-0.8629,0.1854,
13.318444,0.0352,0.6694,-0.3120,2.8195,-0.0018,-0.6415,1.6117,-0.8629,0.1854,
13.322602,0.0352,0.6694,-0.3120,3.5189,-2.6643,-2.0546,1.6117,-0.8629,0.1854,
13.324214,0.0352,0.6694,-0.3120,3.5189,-2.6643,-2.0546,1.2890,1.2117,0.1886,
13.338291,0.0352,0.6694,-0.3120,3.5189,-2.6643,-2.0546,0.8522,2.1710,0.2466,
13.358652,0.0364,0.6369,-0.1891,3.5189,-2.6643,-2.0546,0.8522,2.1710,0.2466,
13.361152,0.0364,0.6369,-0.1891,3.3595,-2.9549,-0.2478,0.8522,2.1710,0.2466,
13.363029,0.0364,0.6369,-0.1891,3.3595,-2.9549,-0.2478,0.4117,1.9979,0.3180,
13.378491,0.0364,0.6369,-0.1891,3.3595,-2.9549,-0.2478,0.0511,1.2037,0.3222,
13.398501,-0.0327,0.7246,-0.1483,3.3595,-2.9549,-0.2478,0.0511,1.2037,0.3222,
13.402472,-0.0327,0.7246,-0.1483,2.4521,-2.1163,0.4224,0.0511,1.2037,0.3222,
13.404284,-0.0327,0.7246,-0.1483,2.4521,-2.1163,0.4224,-0.1720,0.4362,0.2413,
13.418911,-0.0327,0.7246,-0.1483,2.4521,-2.1163,0.4224,-0.2583,0.2381,0.2072,
13.437853,-0.2502,0.8011,-0.1485,2.4521,-2.1163,0.4224,-0.2583,0.2381,0.2072,
13.441066,-0.2502,0.8011,-0.1485,0.2134,-1.4073,0.3773,-0.2583,0.2381,0.2072,
13.442771,-0.2502,0.8011,-0.1485,0.2134,-1.4073,0.3773,-0.2296,0.3670,0.2013,
13.457575,-0.2502,0.8011,-0.1485,0.2134,-1.4073,0.3773,-0.2887,0.3127,0.3089,
13.478270,-0.3010,0.8328,-0.3110,0.2134,-1.4073,0.3773,-0.2887,0.3127,0.3089,
13.482033,-0.3010,0.8328,-0.3110,-0.4037,-1.1412,-1.2755,-0.2887,0.3127,0.3089,
13.484138,-0.3010,0.8328,-0.3110,-0.4037,-1.1412,-1.2755,-0.5939,0.2173,0.3798,
13.498118,-0.3010,0.8328,-0.3110,-0.4037,-1.1412,-1.2755,-0.9428,0.4575,0.2653,
13.518072,-0.4273,0.8932,-0.3750,-0.4037,-1.1412,-1.2755,-0.9428,0.4575,0.2653,
13.520414,-0.4273,0.8932,-0.3750,-1.7735,-0.6262,-2.1355,-0.9428,0.4575,0.2653,
13.522603,-0.4273,0.8932,-0.3750,-1.7735,-0.6262,-2.1355,-1.0109,1.3454,0.0149,
13.538007,-0.4273,0.8932,-0.3750,-1.7735,-0.6262,-2.1355,-0.8852,2.3201,-0.2866,
13.557417,-0.5573,1.0923,-0.3564,-1.7735,-0.6262,-2.1355,-0.8852,2.3201,-0.2866,
13.559863,-0.5573,1.0923,-0.3564,-3.0881,1.2885,-2.1226,-0.8852,2.3201,-0.2866,
13.561784,-0.5573,1.0923,-0.3564,-3.0881,1.2885,-2.1226,-0.4645,2.0863,-0.5161,
13.577798,-0.5573,1.0923,-0.3564,-3.0881,1.2885,-2.1226,1.4008,2.4384,-0.7047,
13.597822,-0.5355,1.0043,-0.4139,-3.0881,1.2885,-2.1226,1.4008,2.4384,-0.7047,
13.601766,-0.5355,1.0043,-0.4139,-2.7802,0.5169,-2.2917,1.4008,2.4384,-0.7047,
13.603523,-0.5355,1.0043,-0.4139,-2.7802,0.5169,-2.2917,2.0213,0.7872,-0.4618,
13.617669,-0.5355,1.0043,-0.4139,-2.7802,0.5169,-2.2917,1.3912,-1.9638,-0.1470,
13.637105,-0.5531,1.3564,-0.5629,-2.7802,0.5169,-2.2917,1.3912,-1.9638,-0.1470,
13.638934,-0.5531,1.3564,-0.5629,-2.7826,4.1397,-3.1845,1.3912,-1.9638,-0.1470,
13.639988,-0.5531,1.3564,-0.5629,-2.7826,4.1397,-3.1845,0.1465,-3.7966,0.2035,
13.657241,-0.5531,1.3564,-0.5629,-2.7826,4.1397,-3.1845,-0.7052,-3.6443,0.3228,
13.677953,-0.1945,1.2306,-0.1818,-2.7826,4.1397,-3.1845,-0.7052,-3.6443,0.3228,
13.680354,-0.1945,1.2306,-0.1818,0.9503,2.8561,0.0379,-0.7052,-3.6443,0.3228,
13.681989,-0.1945,1.2306,-0.1818,0.9503,2.8561,0.0379,-0.8682,-2.4480,0.1001,
13.698037,-0.1945,1.2306,-0.1818,0.9503,2.8561,0.0379,-0.7143,-1.4882,-0.1981,
13.717755,-0.1583,0.9340,0.0860,0.9503,2.8561,0.0379,-0.7143,-1.4882,-0.1981,
13.719874,-0.1583,0.9340,0.0860,1.4463,-0.0935,2.1411,-0.7143,-1.4882,-0.1981,
13.721650,-0.1583,0.9340,0.0860,1.4463,-0.0935,2.1411,-0.3803,-1.0184,-0.3467,
13.738154,-0.1583,0.9340,0.0860,1.4463,-0.0935,2.1411,0.0698,-0.9667,-0.4000,
13.757949,-0.2389,1.1223,0.2433,1.4463,-0.0935,2.1411,0.0698,-0.9667,-0.4000,
13.761170,-0.2389,1.1223,0.2433,0.8410,1.7908,3.5033,0.0698,-0.9667,-0.4000,
13.763166,-0.2389,1.1223,0.2433,0.8410,1.7908,3.5033,0.6258,-1.2171,-0.3606,
13.777632,-0.2389,1.1223,0.2433,0.8410,1.7908,3.5033,1.0930,-1.6986,-0.1949,
13.797887,-0.2284,1.1431,0.0193,0.8410,1.7908,3.5033,1.0930,-1.6986,-0.1949,
13.800165,-0.2284,1.1431,0.0193,1.1139,2.0708,1.4314,1.0930,-1.6986,-0.1949,
13.801927,-0.2284,1.1431,0.0193,1.1139,2.0708,1.4314,1.2698,-1.8397,-0.0474,
13.816862,-0.2284,1.1431,0.0193,1.1139,2.0708,1.4314,1.1729,-1.4456,0.0421,
13.837207,-0.2558,0.9416,-0.2253,1.1139,2.0708,1.4314,1.1729,-1.4456,0.0421,
13.839281,-0.2558,0.9416,-0.2253,0.9230,0.1560,-0.7515,1.1729,-1.4456,0.0421,
13.840995,-0.2558,0.9416,-0.2253,0.9230,0.1560,-0.7515,0.8011,-0.6818,0.1135,
13.857542,-0.2558,0.9416,-0.2253,0.9230,0.1560,-0.7515,0.2269,0.1619,0.1103,
13.877075,-0.2179,0.6833,-0.2096,0.9230,0.1560,-0.7515,0.2269,0.1619,0.1103,
13.880175,-0.2179,0.6833,-0.2096,1.2590,-2.3627,-0.4492,0.2269,0.1619,0.1103,
13.882093,-0.2179,0.6833,-0.2096,1.2590,-2.3627,-0.4492,-0.3159,0.8309,0.0554,
13.896946,-0.2179,0.6833,-0.2096,1.2590,-2.3627,-0.4492,-0.7153,1.3737,0.0389,
13.917657,-0.2463,0.5707,-0.0765,1.2590,-2.3627,-0.4492,-0.7153,1.3737,0.0389,
13.920772,-0.2463,0.5707,-0.0765,0.8942,-3.5055,0.8161,-0.7153,1.3737,0.0389,
13.922752,-0.2463,0.5707,-0.0765,0.8942,-3.5055,0.8161,-0.9246,1.7417,0.0565,
13.936770,-0.2463,0.5707,-0.0765,0.8942,-3.5055,0.8161,-0.9705,1.9739,0.0868,
13.957086,-0.2081,0.6384,0.0156,0.8942,-3.5055,0.8161,-0.9705,1.9739,0.0868,
13.959420,-0.2081,0.6384,0.0156,1.1295,-2.9087,1.6135,-0.9705,1.9739,0.0868,
13.961211,-0.2081,0.6384,0.0156,1.1295,-2.9087,1.6135,-0.9023,2.0027,0.1332,
13.977294,-0.2081,0.6384,0.0156,1.1295,-2.9087,1.6135,-0.7819,1.9260,0.2003,
13.997816,-0.2028,0.7837,0.0777,1.1295,-2.9087,1.6135,-0.7819,1.9260,0.2003,
14.001462,-0.2028,0.7837,0.0777,1.0091,-1.5526,2.1543,-0.7819,1.9260,0.2003,
14.003357,-0.2028,0.7837,0.0777,1.0091,-1.5526,2.1543,-0.6067,1.7018,0.2658,
14.016481,-0.2028,0.7837,0.0777,1.0091,-1.5526,2.1543,-0.4229,1.3310,0.3222,
14.037495,-0.2472,0.8602,0.0437,1.0091,-1.5526,2.1543,-0.4229,1.3310,0.3222,
14.040694,-0.2472,0.8602,0.0437,0.3809,-0.8656,1.8071,-0.4229,1.3310,0.3222,
14.042943,-0.2472,0.8602,0.0437,0.3809,-0.8656,1.8071,-0.3031,0.9151,0.3867,
14.057649,-0.2472,0.8602,0.0437,0.3809,-0.8656,1.8071,-0.2546,0.6983,0.4304,
14.077363,-0.3120,0.9350,-0.0630,0.3809,-0.8656,1.8071,-0.2546,0.6983,0.4304,
14.079663,-0.3120,0.9350,-0.0630,-0.4500,-0.1924,0.7444,-0.2546,0.6983,0.4304,
14.081569,-0.3120,0.9350,-0.0630,-0.4500,-0.1924,0.7444,-0.2834,0.7356,0.4288,
14.097150,-0.3120,0.9350,-0.0630,-0.4500,-0.1924,0.7444,-0.4266,0.9300,0.4298,
14.117338,-0.4256,1.0720,-0.1695,-0.4500,-0.1924,0.7444,-0.4266,0.9300,0.4298,
14.119744,-0.4256,1.0720,-0.1695,-1.7366,1.0944,-0.3684,-0.4266,0.9300,0.4298,
14.121748,-0.4256,1.0720,-0.1695,-1.7366,1.0944,-0.3684,-0.6424,1.2181,0.4543,
14.136406,-0.4256,1.0720,-0.1695,-1.7366,1.0944,-0.3684,-0.8746,1.5516,0.4437,
14.157063,-0.4999,1.2438,-0.1896,-1.7366,1.0944,-0.3684,-0.8746,1.5516,0.4437,
14.159301,-0.4999,1.2438,-0.1896,-2.7013,2.6991,-0.7233,-0.8746,1.5516,0.4437,
14.161150,-0.4999,1.2438,-0.1896,-2.7013,2.6991,-0.7233,-1.0818,1.7918,0.4011,
14.176138,-0.4999,1.2438,-0.1896,-2.7013,2.6991,-0.7233,-1.2442,1.8504,0.4016,
14.196123,-0.4820,1.1570,-0.1495,-2.7013,2.6991,-0.7233,-1.2442,1.8504,0.4016,
14.198503,-0.4820,1.1570,-0.1495,-2.7517,1.7697,-0.6220,-1.2442,1.8504,0.4016,
14.200301,-0.4820,1.1570,-0.1495,-2.7517,1.7697,-0.6220,-1.3172,1.7103,0.3947,
14.216379,-0.4820,1.1570,-0.1495,-2.7517,1.7697,-0.6220,-1.2480,1.5958,0.2653,
14.236310,-0.5917,1.3601,-0.1456,-2.7517,1.7697,-0.6220,-1.2480,1.5958,0.2653,
14.238589,-0.5917,1.3601,-0.1456,-3.9969,3.7006,-0.9514,-1.2480,1.5958,0.2653,
14.240450,-0.5917,1.3601,-0.1456,-3.9969,3.7006,-0.9514,-0.8698,0.5848,0.0213,
14.256309,-0.5917,1.3601,-0.1456,-3.9969,3.7006,-0.9514,0.2115,-2.7122,-0.2402,
14.277183,-0.4180,0.9811,-0.4038,-3.9969,3.7006,-0.9514,0.2115,-2.7122,-0.2402,
14.279569,-0.4180,0.9811,-0.4038,-2.2409,-0.0106,-3.6865,0.2115,-2.7122,-0.2402,
14.281610,-0.4180,0.9811,-0.4038,-2.2409,-0.0106,-3.6865,0.9492,-3.0653,-0.3185,
14.297105,-0.4180,0.9811,-0.4038,-2.2409,-0.0106,-3.6865,0.9987,-0.8575,-0.4863,
14.317070,-0.2223,0.7742,-0.0452,-2.2409,-0.0106,-3.6865,0.9987,-0.8575,-0.4863,
14.319512,-0.2223,0.7742,-0.0452,-0.1133,-1.9855,0.0744,0.9987,-0.8575,-0.4863,
14.321455,-0.2223,0.7742,-0.0452,-0.1133,-1.9855,0.0744,0.8458,-0.1337,-0.5870,
14.336639,-0.2223,0.7742,-0.0452,-0.1133,-1.9855,0.0744,0.6946,-0.5236,-0.6429,
14.357023,-0.0816,0.9831,-0.0037,-0.1133,-1.9855,0.0744,0.6946,-0.5236,-0.6429,
14.359342,-0.0816,0.9831,-0.0037,1.5098,0.1357,0.7480,0.6946,-0.5236,-0.6429,
14.361052,-0.0816,0.9831,-0.0037,1.5098,0.1357,0.7480,0.5523,-1.2256,-0.8059,
14.376488,-0.0816,0.9831,-0.0037,1.5098,0.1357,0.7480,0.4666,-1.8205,-0.9875,
14.396712,-0.1471,1.2723,0.1168,1.5098,0.1357,0.7480,0.4666,-1.8205,-0.9875,
14.398869,-0.1471,1.2723,0.1168,1.2560,3.0766,1.9679,0.4666,-1.8205,-0.9875,
14.400442,-0.1471,1.2723,0.1168,1.2560,3.0766,1.9679,0.5848,-2.1806,-0.9662,
14.416542,-0.1471,1.2723,0.1168,1.2560,3.0766,1.9679,0.8522,-2.2999,-0.7675,
14.436563,-0.0623,1.0532,0.0347,1.2560,3.0766,1.9679,0.8522,-2.2999,-0.7675,
14.438587,-0.0623,1.0532,0.0347,2.4763,1.0501,1.1671,0.8522,-2.2999,-0.7675,
14.440157,-0.0623,1.0532,0.0347,2.4763,1.0501,1.1671,1.0860,-2.0133,-0.4943,
14.456303,-0.0623,1.0532,0.0347,2.4763,1.0501,1.1671,1.1915,-1.2181,-0.1933,
14.476702,0.0051,0.7273,-0.1976,2.4763,1.0501,1.1671,1.1915,-1.2181,-0.1933,
14.478872,0.0051,0.7273,-0.1976,3.2907,-2.0698,-0.8984,1.1915,-1.2181,-0.1933,
14.480738,0.0051,0.7273,-0.1976,3.2907,-2.0698,-0.8984,1.1180,0.0266,-0.0170,
14.496429,0.0051,0.7273,-0.1976,3.2907,-2.0698,-0.8984,0.8820,1.0109,0.0618,
14.516555,-0.0200,0.6259,-0.2052,3.2907,-2.0698,-0.8984,0.8820,1.0109,0.0618,
14.519456,-0.0200,0.6259,-0.2052,3.0078,-3.0168,-0.5390,0.8820,1.0109,0.0618,
14.521338,-0.0200,0.6259,-0.2052,3.0078,-3.0168,-0.5390,0.5646,1.4552,0.1103,
14.536181,-0.0200,0.6259,-0.2052,3.0078,-3.0168,-0.5390,0.2583,1.3880,0.1316,
14.556932,-0.0266,0.6452,-0.1402,3.0078,-3.0168,-0.5390,0.2583,1.3880,0.1316,
14.559256,-0.0266,0.6452,-0.1402,2.8055,-2.8162,0.4261,0.2583,1.3880,0.1316,
14.561049,-0.0266,0.6452,-0.1402,2.8055,-2.8162,0.4261,0.0405,0.9603,0.1683,
14.576933,-0.0266,0.6452,-0.1402,2.8055,-2.8162,0.4261,-0.1294,0.3739,0.2115,
14.596805,-0.1317,0.7737,-0.1256,2.8055,-2.8162,0.4261,-0.1294,0.3739,0.2115,
14.599720,-0.1317,0.7737,-0.1256,1.6574,-1.5829,0.6339,-0.1294,0.3739,0.2115,
14.601782,-0.1317,0.7737,-0.1256,1.6574,-1.5829,0.6339,-0.1907,0.0826,0.2381,
14.616276,-0.1317,0.7737,-0.1256,1.6574,-1.5829,0.6339,-0.1917,0.0117,0.2695,
14.636517,-0.2436,0.8365,-0.2296,1.6574,-1.5829,0.6339,-0.1917,0.0117,0.2695,
14.638743,-0.2436,0.8365,-0.2296,0.4643,-1.0110,-0.4507,-0.1917,0.0117,0.2695,
14.640663,-0.2436,0.8365,-0.2296,0.4643,-1.0110,-0.4507,-0.3409,-0.0085,0.4250,
14.656530,-0.2436,0.8365,-0.2296,0.4643,-1.0110,-0.4507,-0.6695,0.0453,0.4511,
14.675877,-0.3088,0.9037,-0.3347,0.4643,-1.0110,-0.4507,-0.6695,0.0453,0.4511,
14.678823,-0.3088,0.9037,-0.3347,-0.3380,-0.4355,-1.6649,-0.6695,0.0453,0.4511,
14.681010,-0.3088,0.9037,-0.3347,-0.3380,-0.4355,-1.6649,-0.9055,0.6141,0.3180,
14.695404,-0.3088,0.9037,-0.3347,-0.3380,-0.4355,-1.6649,-1.1228,1.2245,0.1662,
14.715608,-0.5248,1.0324,-0.2949,-0.3380,-0.4355,-1.6649,-1.1228,1.2245,0.1662,
14.718451,-0.5248,1.0324,-0.2949,-2.5707,0.7545,-1.5177,-1.1228,1.2245,0.1662,
14.720413,-0.5248,1.0324,-0.2949,-2.5707,0.7545,-1.5177,-0.4996,1.9910,-0.1507,
14.735805,-0.5248,1.0324,-0.2949,-2.5707,0.7545,-1.5177,0.5939,1.2884,-0.2136,
14.755765,-0.6706,1.1641,-0.4090,-2.5707,0.7545,-1.5177,0.5939,1.2884,-0.2136,
14.758116,-0.6706,1.1641,-0.4090,-4.0245,2.0673,-2.4509,0.5939,1.2884,-0.2136,
14.759978,-0.6706,1.1641,-0.4090,-4.0245,2.0673,-2.4509,1.7918,0.2280,-0.1667,
14.775460,-0.6706,1.1641,-0.4090,-4.0245,2.0673,-2.4509,1.4402,-1.9148,0.1140,
14.795981,-0.5612,1.0684,-0.5121,-4.0245,2.0673,-2.4509,1.4402,-1.9148,0.1140,
14.798270,-0.5612,1.0684,-0.5121,-2.8739,1.2503,-2.9504,1.4402,-1.9148,0.1140,
14.800101,-0.5612,1.0684,-0.5121,-2.8739,1.2503,-2.9504,0.2067,-2.9028,0.5135,
14.817022,-0.5612,1.0684,-0.5121,-2.8739,1.2503,-2.9504,-0.7350,-2.6413,0.3558,
14.835546,-0.3933,1.2758,-0.2091,-2.8739,1.2503,-2.9504,-0.7350,-2.6413,0.3558,
14.838602,-0.3933,1.2758,-0.2091,-1.1773,3.2186,-0.3726,-0.7350,-2.6413,0.3558,
14.840537,-0.3933,1.2758,-0.2091,-1.1773,3.2186,-0.3726,-1.1931,-1.6773,-0.0341,
14.855613,-0.3933,1.2758,-0.2091,-1.1773,3.2186,-0.3726,-1.1047,-0.6503,-0.2647,
14.875834,-0.3398,0.9423,0.1256,-1.1773,3.2186,-0.3726,-1.1047,-0.6503,-0.2647,
14.878231,-0.3398,0.9423,0.1256,-0.5302,-0.0966,2.3535,-1.1047,-0.6503,-0.2647,
14.880130,-0.3398,0.9423,0.1256,-0.5302,-0.0966,2.3535,-0.6104,0.0511,-0.2099,
14.895658,-0.3398,0.9423,0.1256,-0.5302,-0.0966,2.3535,0.1539,0.4208,-0.0964,
14.916284,-0.3303,1.1973,0.1463,-0.5302,-0.0966,2.3535,0.1539,0.4208,-0.0964,
14.919272,-0.3303,1.1973,0.1463,-0.3896,2.4104,2.4987,0.1539,0.4208,-0.0964,
14.920961,-0.3303,1.1973,0.1463,-0.3896,2.4104,2.4987,0.7100,0.2631,-0.1422,
14.935845,-0.3303,1.1973,0.1463,-0.3896,2.4104,2.4987,1.0301,-0.2674,-0.2828,
14.956035,-0.3349,1.2228,-0.0024,-0.3896,2.4104,2.4987,1.0301,-0.2674,-0.2828,
14.958296,-0.3349,1.2228,-0.0024,-0.3553,2.7267,1.3631,1.0301,-0.2674,-0.2828,
14.960041,-0.3349,1.2228,-0.0024,-0.3553,2.7267,1.3631,1.0578,-0.9843,-0.3020,
14.975470,-0.3349,1.2228,-0.0024,-0.3553,2.7267,1.3631,0.9555,-1.6810,-0.2546,
14.995519,-0.2111,0.9464,-0.0965,-0.3553,2.7267,1.3631,0.9555,-1.6810,-0.2546,
14.998361,-0.2111,0.9464,-0.0965,1.0419,0.1129,0.6505,0.9555,-1.6810,-0.2546,
15.000020,-0.2111,0.9464,-0.0965,1.0419,0.1129,0.6505,0.7686,-1.9180,-0.2370,
15.017144,-0.2111,0.9464,-0.0965,1.0419,0.1129,0.6505,0.4139,-1.6149,-0.1939,
15.036415,-0.1832,0.6792,-0.1893,1.0419,0.1129,0.6505,0.4139,-1.6149,-0.1939,
15.038457,-0.1832,0.6792,-0.1893,1.4948,-2.4465,-0.2774,0.4139,-1.6149,-0.1939,
15.040354,-0.1832,0.6792,-0.1893,1.4948,-2.4465,-0.2774,-0.0383,-0.9768,-0.1284,
15.055810,-0.1832,0.6792,-0.1893,1.4948,-2.4465,-0.2774,-0.5129,-0.0788,-0.1465,
15.075569,-0.1368,0.5734,-0.1300,1.4948,-2.4465,-0.2774,-0.5129,-0.0788,-0.1465,
15.078098,-0.1368,0.5734,-0.1300,2.0320,-3.4809,0.1342,-0.5129,-0.0788,-0.1465,
15.079734,-0.1368,0.5734,-0.1300,2.0320,-3.4809,0.1342,-0.8970,0.8011,-0.2194,
15.095379,-0.1368,0.5734,-0.1300,2.0320,-3.4809,0.1342,-1.1217,1.4908,-0.2658,
15.115750,-0.1444,0.6069,-0.0171,2.0320,-3.4809,0.1342,-1.1217,1.4908,-0.2658,
15.117989,-0.1444,0.6069,-0.0171,1.9873,-3.1723,1.0283,-1.1217,1.4908,-0.2658,
15.119779,-0.1444,0.6069,-0.0171,1.9873,-3.1723,1.0283,-1.1819,1.9271,-0.2019,
15.134705,-0.1444,0.6069,-0.0171,1.9873,-3.1723,1.0283,-1.0935,1.9990,-0.0479,
15.155540,-0.1327,0.7818,0.0630,1.9873,-3.1723,1.0283,-1.0935,1.9990,-0.0479,
15.156891,-0.1327,0.7818,0.0630,2.0603,-1.4919,1.6641,-1.0935,1.9990,-0.0479,
15.157807,-0.1327,0.7818,0.0630,2.0603,-1.4919,1.6641,-0.9161,1.8813,0.0687,
15.175500,-0.1327,0.7818,0.0630,2.0603,-1.4919,1.6641,-0.6977,1.6256,0.1672,
15.195085,-0.2140,0.8812,0.0728,2.0603,-1.4919,1.6641,-0.6977,1.6256,0.1672,
15.197928,-0.2140,0.8812,0.0728,1.1491,-0.5655,1.6959,-0.6977,1.6256,0.1672,
15.199878,-0.2140,0.8812,0.0728,1.1491,-0.5655,1.6959,-0.4533,1.3369,0.2860,
15.214977,-0.2140,0.8812,0.0728,1.1491,-0.5655,1.6959,-0.3009,1.2874,0.3569,
15.235248,-0.3078,0.9108,-0.1229,1.1491,-0.5655,1.6959,-0.3009,1.2874,0.3569,
15.237317,-0.3078,0.9108,-0.1229,0.0593,-0.3313,-0.1950,-0.3009,1.2874,0.3569,
15.239236,-0.3078,0.9108,-0.1229,0.0593,-0.3313,-0.1950,-0.3494,1.4376,0.3894,
15.254977,-0.3078,0.9108,-0.1229,0.0593,-0.3313,-0.1950,-0.5987,1.7183,0.4330,
15.275594,-0.4244,1.0896,-0.2172,0.0593,-0.3313,-0.1950,-0.5987,1.7183,0.4330,
15.279261,-0.4244,1.0896,-0.2172,-1.2934,1.3554,-1.1051,-0.5987,1.7183,0.4330,
15.281352,-0.4244,1.0896,-0.2172,-1.2934,1.3554,-1.1051,-0.9220,2.0618,0.4442,
15.294657,-0.4244,1.0896,-0.2172,-1.2934,1.3554,-1.1051,-1.2256,2.3628,0.4048,
15.315132,-0.5443,1.2785,-0.1981,-1.2934,1.3554,-1.1051,-1.2256,2.3628,0.4048,
15.318174,-0.5443,1.2785,-0.1981,-2.7119,3.1189,-1.0783,-1.2256,2.3628,0.4048,
15.320156,-0.5443,1.2785,-0.1981,-2.7119,3.1189,-1.0783,-1.4828,2.5710,0.3867,
15.334627,-0.5443,1.2785,-0.1981,-2.7119,3.1189,-1.0783,-1.6149,2.6807,0.3750,
15.354301,-0.5634,1.2120,-0.1112,-2.7119,3.1189,-1.0783,-1.6149,2.6807,0.3750,
15.356041,-0.5634,1.2120,-0.1112,-3.1163,2.3859,-0.5471,-1.6149,2.6807,0.3750,
