
time,gFx,gFy,gFz,ax,ay,az,wx,wy,wz,
0.026038,0.0000,0.0000,0.0000,0.0000,0.0000,0.0000,0.2791,-0.3025,0.0192,
0.045761,-0.0484,0.1942,1.1143,0.0000,0.0000,0.0000,0.2791,-0.3025,0.0192,
0.047512,-0.0484,0.1942,1.1143,0.0000,0.0000,0.0000,0.2791,-0.3025,0.0192,
0.065776,-0.0484,0.1942,1.1143,0.0000,0.0000,0.0000,0.2791,-0.3025,0.0192,
0.085681,0.0037,0.1009,0.9506,0.0000,0.0000,0.0000,0.2791,-0.3025,0.0192,
0.087577,0.0037,0.1009,0.9506,-0.0017,-0.0463,-0.4360,0.2791,-0.3025,0.0192,
0.089408,0.0037,0.1009,0.9506,-0.0017,-0.0463,-0.4360,0.2791,-0.3025,0.0192,
0.106349,0.0037,0.1009,0.9506,-0.0017,-0.0463,-0.4360,-0.4320,0.0634,-0.1220,
0.125470,-0.0909,0.1244,1.1443,-0.0017,-0.0463,-0.4360,-0.4320,0.0634,-0.1220,
0.128450,-0.0909,0.1244,1.1443,-0.5424,0.1726,1.4700,-0.4320,0.0634,-0.1220,
0.130158,-0.0909,0.1244,1.1443,-0.5424,0.1726,1.4700,-0.6402,0.1443,-0.1566,
0.145984,-0.0909,0.1244,1.1443,-0.5424,0.1726,1.4700,-0.4261,0.4426,-0.0703,
0.165574,-0.0909,0.0770,1.2291,-0.5424,0.1726,1.4700,-0.4261,0.4426,-0.0703,
0.168674,-0.0909,0.0770,1.2291,-0.3659,-0.0870,2.2888,-0.4261,0.4426,-0.0703,
0.170397,-0.0909,0.0770,1.2291,-0.3659,-0.0870,2.2888,-0.0682,0.3068,-0.0123,
0.185886,-0.0909,0.0770,1.2291,-0.3659,-0.0870,2.2888,0.1806,-0.0336,0.0069,
0.205520,-0.0134,0.0428,1.0456,-0.3659,-0.0870,2.2888,0.1806,-0.0336,0.0069,
0.207700,-0.0134,0.0428,1.0456,0.2288,-0.2409,0.4694,0.1806,-0.0336,0.0069,
0.209450,-0.0134,0.0428,1.0456,0.2288,-0.2409,0.4694,0.1811,-0.3457,-0.1055,
0.226346,-0.0134,0.0428,1.0456,0.2288,-0.2409,0.4694,0.1188,-0.4112,-0.3388,
0.245168,-0.0169,0.0901,0.9909,0.2288,-0.2409,0.4694,0.1188,-0.4112,-0.3388,
0.247287,-0.0169,0.0901,0.9909,0.1162,0.1304,-0.0628,0.1188,-0.4112,-0.3388,
0.248727,-0.0169,0.0901,0.9909,0.1162,0.1304,-0.0628,0.1656,-0.2823,-0.5172,
0.265479,-0.0169,0.0901,0.9909,0.1162,0.1304,-0.0628,0.3052,-0.0921,-0.5907,
0.285132,-0.1302,0.1158,0.9643,0.1162,0.1304,-0.0628,0.3052,-0.0921,-0.5907,
0.287145,-0.1302,0.1158,0.9643,-0.5718,0.2128,-0.2879,0.3052,-0.0921,-0.5907,
0.288994,-0.1302,0.1158,0.9643,-0.5718,0.2128,-0.2879,0.4032,-0.0149,-0.5955,
0.305145,-0.1302,0.1158,0.9643,-0.5718,0.2128,-0.2879,0.4160,0.1443,-0.5971,
0.325088,-0.1419,0.1771,0.9416,-0.5718,0.2128,-0.2879,0.4160,0.1443,-0.5971,
0.327695,-0.1419,0.1771,0.9416,-0.3791,0.4478,-0.4416,0.4160,0.1443,-0.5971,
0.329569,-0.1419,0.1771,0.9416,-0.3791,0.4478,-0.4416,0.4826,0.4000,-0.6376,
0.345328,-0.1419,0.1771,0.9416,-0.3791,0.4478,-0.4416,0.5811,0.4458,-0.6232,
0.365007,-0.1671,0.2250,0.9135,-0.3791,0.4478,-0.4416,0.5811,0.4458,-0.6232,
0.367580,-0.1671,0.2250,0.9135,-0.4259,0.7339,-0.6677,0.5811,0.4458,-0.6232,
0.369257,-0.1671,0.2250,0.9135,-0.4259,0.7339,-0.6677,0.5800,0.2919,-0.5465,
0.385211,-0.1671,0.2250,0.9135,-0.4259,0.7339,-0.6677,0.4895,0.1369,-0.4330,
0.406108,-0.2274,0.2406,0.8883,-0.4259,0.7339,-0.6677,0.4895,0.1369,-0.4330,
0.408194,-0.2274,0.2406,0.8883,-0.8939,0.6972,-0.8670,0.4895,0.1369,-0.4330,
0.409975,-0.2274,0.2406,0.8883,-0.8939,0.6972,-0.8670,0.4165,0.0288,-0.3249,
0.425041,-0.2274,0.2406,0.8883,-0.8939,0.6972,-0.8670,0.3292,-0.0378,-0.2913,
0.445426,-0.2133,0.2736,0.8651,-0.8939,0.6972,-0.8670,0.3292,-0.0378,-0.2913,
0.448273,-0.2133,0.2736,0.8651,-0.7239,0.8829,-1.0651,0.3292,-0.0378,-0.2913,
0.449898,-0.2133,0.2736,0.8651,-0.7239,0.8829,-1.0651,0.2349,-0.1609,-0.2898,
0.464942,-0.2133,0.2736,0.8651,-0.7239,0.8829,-1.0651,0.1838,-0.1901,-0.2045,
0.484566,-0.2147,0.3088,0.9259,-0.7239,0.8829,-1.0651,0.1838,-0.1901,-0.2045,
0.485647,-0.2147,0.3088,0.9259,-0.7673,1.1385,-0.4558,0.1838,-0.1901,-0.2045,
0.486469,-0.2147,0.3088,0.9259,-0.7673,1.1385,-0.4558,0.2743,0.0660,-0.1156,
0.505550,-0.2147,0.3088,0.9259,-0.7673,1.1385,-0.4558,0.4953,0.2935,-0.0692,
0.525863,-0.1598,0.2734,0.9403,-0.7673,1.1385,-0.4558,0.4953,0.2935,-0.0692,
0.528493,-0.1598,0.2734,0.9403,-0.1399,0.6292,-0.2681,0.4953,0.2935,-0.0692,
0.530734,-0.1598,0.2734,0.9403,-0.1399,0.6292,-0.2681,0.6338,0.2210,-0.0884,
0.544588,-0.1598,0.2734,0.9403,-0.1399,0.6292,-0.2681,0.6642,0.0692,-0.1438,
0.564863,-0.1524,0.3003,0.6921,-0.1399,0.6292,-0.2681,0.6642,0.0692,-0.1438,
0.567775,-0.1524,0.3003,0.6921,-0.0031,0.6544,-2.6359,0.6642,0.0692,-0.1438,
0.569707,-0.1524,0.3003,0.6921,-0.0031,0.6544,-2.6359,0.0309,-0.1939,0.0437,
0.585058,-0.1524,0.3003,0.6921,-0.0031,0.6544,-2.6359,-0.0011,0.1438,-0.0341,
0.605790,-0.1964,0.3159,1.0850,-0.0031,0.6544,-2.6359,-0.0011,0.1438,-0.0341,
0.607898,-0.1964,0.3159,1.0850,-0.4321,0.7772,1.2217,-0.0011,0.1438,-0.0341,
0.609643,-0.1964,0.3159,1.0850,-0.4321,0.7772,1.2217,0.4565,0.3787,-0.0298,
0.624839,-0.1964,0.3159,1.0850,-0.4321,0.7772,1.2217,0.8304,0.4996,-0.0549,
0.644711,-0.2187,0.3420,0.9733,-0.4321,0.7772,1.2217,0.8304,0.4996,-0.0549,
0.647520,-0.2187,0.3420,0.9733,-0.4742,0.7804,0.2233,0.8304,0.4996,-0.0549,
0.649459,-0.2187,0.3420,0.9733,-0.4742,0.7804,0.2233,0.9252,0.5252,-0.1710,
0.664559,-0.2187,0.3420,0.9733,-0.4742,0.7804,0.2233,0.8005,0.3590,-0.1188,
0.684601,-0.2113,0.4143,0.9865,-0.4742,0.7804,0.2233,0.8005,0.3590,-0.1188,
0.687447,-0.2113,0.4143,0.9865,-0.2221,1.1710,0.4807,0.8005,0.3590,-0.1188,
0.689463,-0.2113,0.4143,0.9865,-0.2221,1.1710,0.4807,0.6786,0.2226,-0.0021,
0.704806,-0.2113,0.4143,0.9865,-0.2221,1.1710,0.4807,0.5523,0.0799,-0.1039,
0.725100,-0.1366,0.2541,1.0486,-0.2221,1.1710,0.4807,0.5523,0.0799,-0.1039,
0.727103,-0.1366,0.2541,1.0486,0.5680,-0.6172,1.1720,0.5523,0.0799,-0.1039,
0.728742,-0.1366,0.2541,1.0486,0.5680,-0.6172,1.1720,0.3531,0.1220,-0.3526,
0.745644,-0.1366,0.2541,1.0486,0.5680,-0.6172,1.1720,0.5167,0.2099,-0.3744,
0.764317,-0.2111,0.4583,1.0217,0.5680,-0.6172,1.1720,0.5167,0.2099,-0.3744,
0.766463,-0.2111,0.4583,1.0217,-0.0569,1.2549,0.9766,0.5167,0.2099,-0.3744,
0.768159,-0.2111,0.4583,1.0217,-0.0569,1.2549,0.9766,0.8639,0.3931,-0.1555,
0.784304,-0.2111,0.4583,1.0217,-0.0569,1.2549,0.9766,0.9662,0.8314,0.0314,
0.805110,-0.2599,0.5372,0.7688,-0.0569,1.2549,0.9766,0.9662,0.8314,0.0314,
0.806860,-0.2599,0.5372,0.7688,-0.3129,1.6880,-1.3189,0.9662,0.8314,0.0314,
0.808121,-0.2599,0.5372,0.7688,-0.3129,1.6880,-1.3189,1.1382,1.5675,0.2035,
0.825369,-0.2599,0.5372,0.7688,-0.3129,1.6880,-1.3189,1.2916,2.1071,0.3510,
0.844491,-0.2272,0.5082,0.8956,-0.3129,1.6880,-1.3189,1.2916,2.1071,0.3510,
0.846622,-0.2272,0.5082,0.8956,0.5850,0.9437,0.2934,1.2916,2.1071,0.3510,
0.847869,-0.2272,0.5082,0.8956,0.5850,0.9437,0.2934,1.5089,2.1779,0.2871,
0.864274,-0.2272,0.5082,0.8956,0.5850,0.9437,0.2934,1.8275,2.5545,0.4229,
0.884208,-0.3213,0.6029,0.6469,0.5850,0.9437,0.2934,1.8275,2.5545,0.4229,
0.886107,-0.3213,0.6029,0.6469,0.3456,1.2587,-1.5556,1.8275,2.5545,0.4229,
0.887595,-0.3213,0.6029,0.6469,0.3456,1.2587,-1.5556,2.1912,2.9572,0.4101,
0.904370,-0.3213,0.6029,0.6469,0.3456,1.2587,-1.5556,2.4086,3.2341,0.3350,
0.924217,-0.2206,0.7920,0.3232,0.3456,1.2587,-1.5556,2.4086,3.2341,0.3350,
0.926769,-0.2206,0.7920,0.3232,2.1732,2.3671,-3.7803,2.4086,3.2341,0.3350,
0.928813,-0.2206,0.7920,0.3232,2.1732,2.3671,-3.7803,2.3228,2.7947,0.6701,
0.944352,-0.2206,0.7920,0.3232,2.1732,2.3671,-3.7803,2.7835,2.8943,1.4727,
0.964938,-0.2213,0.6296,0.3498,2.1732,2.3671,-3.7803,2.7835,2.8943,1.4727,
0.968207,-0.2213,0.6296,0.3498,2.6430,-0.0755,-2.4032,2.7835,2.8943,1.4727,
0.970136,-0.2213,0.6296,0.3498,2.6430,-0.0755,-2.4032,3.0962,2.8293,1.4040,
0.984749,-0.2213,0.6296,0.3498,2.6430,-0.0755,-2.4032,3.1606,3.0296,1.3657,
1.004266,-0.3657,0.6447,0.3445,2.6430,-0.0755,-2.4032,3.1606,3.0296,1.3657,
1.006462,-0.3657,0.6447,0.3445,1.4569,-0.8417,-1.0392,3.1606,3.0296,1.3657,
1.008264,-0.3657,0.6447,0.3445,1.4569,-0.8417,-1.0392,3.1740,3.4637,1.7172,
1.024312,-0.3657,0.6447,0.3445,1.4569,-0.8417,-1.0392,3.3987,3.1665,1.9420,
1.044215,-0.4920,0.5668,0.3181,1.4569,-0.8417,-1.0392,3.3987,3.1665,1.9420,
1.046135,-0.4920,0.5668,0.3181,0.1420,-2.4428,0.3654,3.3987,3.1665,1.9420,
1.047911,-0.4920,0.5668,0.3181,0.1420,-2.4428,0.3654,3.5005,2.9801,2.0576,
1.063968,-0.4920,0.5668,0.3181,0.1420,-2.4428,0.3654,3.4653,2.3921,1.9867,
1.083969,-0.5138,0.7148,0.2250,0.1420,-2.4428,0.3654,3.4653,2.3921,1.9867,
1.086558,-0.5138,0.7148,0.2250,-0.5355,-1.6408,1.1245,3.4653,2.3921,1.9867,
1.088350,-0.5138,0.7148,0.2250,-0.5355,-1.6408,1.1245,3.3684,1.9931,1.5750,
1.104986,-0.5138,0.7148,0.2250,-0.5355,-1.6408,1.1245,2.8933,2.0911,1.1697,
1.124355,-0.6833,0.7339,-0.0501,-0.5355,-1.6408,1.1245,2.8933,2.0911,1.1697,
1.126396,-0.6833,0.7339,-0.0501,-2.6526,-1.7343,-0.1228,2.8933,2.0911,1.1697,
1.128287,-0.6833,0.7339,-0.0501,-2.6526,-1.7343,-0.1228,2.0885,1.7540,0.9380,
1.144735,-0.6833,0.7339,-0.0501,-2.6526,-1.7343,-0.1228,1.3987,1.0019,0.5976,
1.164330,-0.7402,0.8548,-0.1534,-2.6526,-1.7343,-0.1228,1.3987,1.0019,0.5976,
1.167079,-0.7402,0.8548,-0.1534,-3.4590,-0.5889,-0.3321,1.3987,1.0019,0.5976,
1.169052,-0.7402,0.8548,-0.1534,-3.4590,-0.5889,-0.3321,0.6466,0.5854,0.0469,
1.184130,-0.7402,0.8548,-0.1534,-3.4590,-0.5889,-0.3321,-0.1880,0.3228,-0.5790,
1.204709,-0.6152,0.8988,-0.1134,-3.4590,-0.5889,-0.3321,-0.1880,0.3228,-0.5790,
1.206902,-0.6152,0.8988,-0.1134,-2.1024,-0.0840,0.1861,-0.1880,0.3228,-0.5790,
1.208745,-0.6152,0.8988,-0.1134,-2.1024,-0.0840,0.1861,-0.7675,0.3744,-0.9460,
1.223624,-0.6152,0.8988,-0.1134,-2.1024,-0.0840,0.1861,-1.1622,0.2764,-0.9806,
1.243780,-0.6435,0.8841,-0.1190,-2.1024,-0.0840,0.1861,-1.1622,0.2764,-0.9806,
1.245754,-0.6435,0.8841,-0.1190,-2.0275,-0.1020,-0.1620,-1.1622,0.2764,-0.9806,
1.247604,-0.6435,0.8841,-0.1190,-2.0275,-0.1020,-0.1620,-1.4477,0.0996,-0.8964,
1.263545,-0.6435,0.8841,-0.1190,-2.0275,-0.1020,-0.1620,-1.6421,0.2844,-0.9199,
1.283987,-0.5453,0.9289,0.0728,-2.0275,-0.1020,-0.1620,-1.6421,0.2844,-0.9199,
1.286510,-0.5453,0.9289,0.0728,-0.7408,0.4577,1.2082,-1.6421,0.2844,-0.9199,
1.287979,-0.5453,0.9289,0.0728,-0.7408,0.4577,1.2082,-1.5148,0.5332,-1.0914,
1.303851,-0.5453,0.9289,0.0728,-0.7408,0.4577,1.2082,-1.0429,0.7638,-1.2064,
1.323806,-0.5165,0.9982,0.0872,-0.7408,0.4577,1.2082,-1.0429,0.7638,-1.2064,
1.326331,-0.5165,0.9982,0.0872,-0.0736,1.3411,1.0347,-1.0429,0.7638,-1.2064,
1.328111,-0.5165,0.9982,0.0872,-0.0736,1.3411,1.0347,-0.5891,0.8634,-1.0855,
1.344080,-0.5165,0.9982,0.0872,-0.0736,1.3411,1.0347,-0.4096,0.8282,-0.8799,
1.363695,-0.5023,1.1138,0.0555,-0.0736,1.3411,1.0347,-0.4096,0.8282,-0.8799,
1.367158,-0.5023,1.1138,0.0555,0.3868,2.6722,0.7311,-0.4096,0.8282,-0.8799,
1.369137,-0.5023,1.1138,0.0555,0.3868,2.6722,0.7311,-0.3478,0.8501,-0.6967,
1.384048,-0.5023,1.1138,0.0555,0.3868,2.6722,0.7311,-0.2125,1.3209,-0.6764,
1.403974,-0.5526,1.1128,0.0257,0.3868,2.6722,0.7311,-0.2125,1.3209,-0.6764,
1.406112,-0.5526,1.1128,0.0257,0.1069,2.8086,0.5829,-0.2125,1.3209,-0.6764,
1.407732,-0.5526,1.1128,0.0257,0.1069,2.8086,0.5829,-0.2258,1.6080,-0.7111,
1.424324,-0.5526,1.1128,0.0257,0.1069,2.8086,0.5829,-0.5177,1.4679,-0.6599,
1.443994,-0.5621,1.0043,-0.0359,0.1069,2.8086,0.5829,-0.5177,1.4679,-0.6599,
1.446327,-0.5621,1.0043,-0.0359,0.2052,1.8923,0.2059,-0.5177,1.4679,-0.6599,
1.448080,-0.5621,1.0043,-0.0359,0.2052,1.8923,0.2059,-0.9337,1.5164,-0.6125,
1.463963,-0.5621,1.0043,-0.0359,0.2052,1.8923,0.2059,-1.2820,1.6139,-0.6855,
1.483738,-0.5600,1.0273,0.0335,0.2052,1.8923,0.2059,-1.2820,1.6139,-0.6855,
1.485515,-0.5600,1.0273,0.0335,0.3953,2.2422,0.8994,-1.2820,1.6139,-0.6855,
1.487145,-0.5600,1.0273,0.0335,0.3953,2.2422,0.8994,-1.4275,1.9223,-0.7622,
1.503549,-0.5600,1.0273,0.0335,0.3953,2.2422,0.8994,-1.5867,2.0858,-0.7707,
1.523630,-0.5548,0.9154,0.0567,0.3953,2.2422,0.8994,-1.5867,2.0858,-0.7707,
1.525466,-0.5548,0.9154,0.0567,0.6367,1.2940,1.1391,-1.5867,2.0858,-0.7707,
1.527441,-0.5548,0.9154,0.0567,0.6367,1.2940,1.1391,-1.6826,1.9382,-0.7185,
1.543660,-0.5548,0.9154,0.0567,0.6367,1.2940,1.1391,-1.6623,1.5979,-0.6727,
1.563993,-0.4847,0.7974,0.0669,0.6367,1.2940,1.1391,-1.6623,1.5979,-0.6727,
1.566592,-0.4847,0.7974,0.0669,1.4688,0.2478,1.1447,-1.6623,1.5979,-0.6727,
1.568369,-0.4847,0.7974,0.0669,1.4688,0.2478,1.1447,-1.6144,1.4131,-0.7148,
1.584457,-0.4847,0.7974,0.0669,1.4688,0.2478,1.1447,-1.5489,1.6091,-0.6445,
1.603590,-0.5758,0.7107,-0.0222,1.4688,0.2478,1.1447,-1.5489,1.6091,-0.6445,
1.605409,-0.5758,0.7107,-0.0222,0.7226,-0.4855,0.1590,-1.5489,1.6091,-0.6445,
1.607254,-0.5758,0.7107,-0.0222,0.7226,-0.4855,0.1590,-1.6139,1.6687,-0.4245,
1.623927,-0.5758,0.7107,-0.0222,0.7226,-0.4855,0.1590,-1.8024,1.4552,-0.3116,
1.643707,-0.5673,0.6758,0.0354,0.7226,-0.4855,0.1590,-1.8024,1.4552,-0.3116,
1.646894,-0.5673,0.6758,0.0354,0.8844,-0.7655,0.6100,-1.8024,1.4552,-0.3116,
1.648893,-0.5673,0.6758,0.0354,0.8844,-0.7655,0.6100,-1.8200,1.3651,-0.2866,
1.664146,-0.5673,0.6758,0.0354,0.8844,-0.7655,0.6100,-1.5883,1.3199,-0.2871,
1.684792,-0.5915,0.7417,0.0606,0.8844,-0.7655,0.6100,-1.5883,1.3199,-0.2871,
1.688504,-0.5915,0.7417,0.0606,0.7122,-0.0659,0.6939,-1.5883,1.3199,-0.2871,
1.690182,-0.5915,0.7417,0.0606,0.7122,-0.0659,0.6939,-0.8890,1.1643,-0.1656,
1.703266,-0.5915,0.7417,0.0606,0.7122,-0.0659,0.6939,0.0597,0.8948,-0.0138,
1.723913,-0.5807,0.6440,-0.0887,0.7122,-0.0659,0.6939,0.0597,0.8948,-0.0138,
1.725841,-0.5807,0.6440,-0.0887,0.8367,-1.0031,-0.6222,0.0597,0.8948,-0.0138,
1.727728,-0.5807,0.6440,-0.0887,0.8367,-1.0031,-0.6222,0.0905,1.1340,-0.1662,
1.744023,-0.5807,0.6440,-0.0887,0.8367,-1.0031,-0.6222,-0.2216,1.1681,-0.3079,
1.763906,-0.7141,0.7058,0.0090,0.8367,-1.0031,-0.6222,-0.2216,1.1681,-0.3079,
1.766904,-0.7141,0.7058,0.0090,-0.4201,-0.3377,0.6081,-0.2216,1.1681,-0.3079,
1.768847,-0.7141,0.7058,0.0090,-0.4201,-0.3377,0.6081,-0.5113,0.9625,-0.3345,
1.783598,-0.7141,0.7058,0.0090,-0.4201,-0.3377,0.6081,-0.7388,0.7968,-0.2972,
1.803693,-0.6919,0.6628,0.0391,-0.4201,-0.3377,0.6081,-0.7388,0.7968,-0.2972,
1.805749,-0.6919,0.6628,0.0391,-0.1275,-0.6878,0.9401,-0.7388,0.7968,-0.2972,
1.807698,-0.6919,0.6628,0.0391,-0.1275,-0.6878,0.9401,-0.8405,0.6296,-0.2972,
1.823095,-0.6919,0.6628,0.0391,-0.1275,-0.6878,0.9401,-0.6344,0.6024,-0.3095,
1.843066,-0.7449,0.6227,0.0332,-0.1275,-0.6878,0.9401,-0.6344,0.6024,-0.3095,
1.845378,-0.7449,0.6227,0.0332,-0.5635,-1.0069,0.8192,-0.6344,0.6024,-0.3095,
1.847063,-0.7449,0.6227,0.0332,-0.5635,-1.0069,0.8192,-0.4325,0.5955,-0.2983,
1.862914,-0.7449,0.6227,0.0332,-0.5635,-1.0069,0.8192,-0.3936,0.5747,-0.3494,
1.882877,-0.7495,0.6850,0.0450,-0.5635,-1.0069,0.8192,-0.3936,0.5747,-0.3494,
1.885065,-0.7495,0.6850,0.0450,-0.5168,-0.3069,0.9475,-0.3936,0.5747,-0.3494,
1.886994,-0.7495,0.6850,0.0450,-0.5168,-0.3069,0.9475,-0.2764,0.0394,-0.2157,
1.904000,-0.7495,0.6850,0.0450,-0.5168,-0.3069,0.9475,-0.0170,-0.7100,-0.0708,
1.923223,-0.6276,0.6012,0.0596,-0.5168,-0.3069,0.9475,-0.0170,-0.7100,-0.0708,
1.925314,-0.6276,0.6012,0.0596,0.7275,-1.0885,0.9466,-0.0170,-0.7100,-0.0708,
1.927133,-0.6276,0.6012,0.0596,0.7275,-1.0885,0.9466,0.1012,-1.0498,-0.1294,
1.943804,-0.6276,0.6012,0.0596,0.7275,-1.0885,0.9466,0.3867,-1.4978,-0.0208,
1.962877,-0.2250,1.0962,0.3789,0.7275,-1.0885,0.9466,0.3867,-1.4978,-0.0208,
1.965182,-0.2250,1.0962,0.3789,4.6604,3.7403,3.7429,0.3867,-1.4978,-0.0208,
1.966625,-0.2250,1.0962,0.3789,4.6604,3.7403,3.7429,0.0138,-0.5635,-0.3244,
1.982621,-0.2250,1.0962,0.3789,4.6604,3.7403,3.7429,0.0485,-0.0378,-0.7409,
2.003024,-0.7798,0.7412,0.0305,4.6604,3.7403,3.7429,0.0485,-0.0378,-0.7409,
2.004912,-0.7798,0.7412,0.0305,-0.6645,0.3739,0.2139,0.0485,-0.0378,-0.7409,
2.006447,-0.7798,0.7412,0.0305,-0.6645,0.3739,0.2139,-0.1875,-0.2567,-0.8863,
2.023656,-0.7798,0.7412,0.0305,-0.6645,0.3739,0.2139,-0.2530,-0.7281,-0.4985,
2.042674,-0.9357,0.7835,0.0044,-0.6645,0.3739,0.2139,-0.2530,-0.7281,-0.4985,
2.045319,-0.9357,0.7835,0.0044,-2.0094,0.9836,-0.2427,-0.2530,-0.7281,-0.4985,
2.047162,-0.9357,0.7835,0.0044,-2.0094,0.9836,-0.2427,-0.4277,-0.7872,0.6679,
2.062827,-0.9357,0.7835,0.0044,-2.0094,0.9836,-0.2427,-0.9470,-1.5116,2.0879,
2.083136,-0.4720,0.9235,0.1219,-2.0094,0.9836,-0.2427,-0.9470,-1.5116,2.0879,
2.085997,-0.4720,0.9235,0.1219,2.1177,1.9744,0.3992,-0.9470,-1.5116,2.0879,
2.087626,-0.4720,0.9235,0.1219,2.1177,1.9744,0.3992,-0.1715,-2.8022,3.5361,
2.103876,-0.4720,0.9235,0.1219,2.1177,1.9744,0.3992,0.3483,-1.5398,2.2930,
2.122429,-1.0139,0.5541,0.3731,2.1177,1.9744,0.3992,0.3483,-1.5398,2.2930,
2.124412,-1.0139,0.5541,0.3731,-4.1500,-2.3781,2.3419,0.3483,-1.5398,2.2930,
2.125811,-1.0139,0.5541,0.3731,-4.1500,-2.3781,2.3419,0.5598,0.6237,0.1736,
2.142591,-1.0139,0.5541,0.3731,-4.1500,-2.3781,2.3419,0.1220,0.4810,0.0431,
2.162586,-0.8590,0.4600,0.1793,-4.1500,-2.3781,2.3419,0.1220,0.4810,0.0431,
2.164926,-0.8590,0.4600,0.1793,-2.5982,-3.3084,0.6615,0.1220,0.4810,0.0431,
2.166618,-0.8590,0.4600,0.1793,-2.5982,-3.3084,0.6615,0.1917,0.2461,1.0141,
2.182719,-0.8590,0.4600,0.1793,-2.5982,-3.3084,0.6615,0.0671,-0.2115,2.0554,
2.202836,-0.4688,0.6687,0.1444,-2.5982,-3.3084,0.6615,0.0671,-0.2115,2.0554,
2.205769,-0.4688,0.6687,0.1444,0.7650,-1.5906,0.3524,0.0671,-0.2115,2.0554,
2.207775,-0.4688,0.6687,0.1444,0.7650,-1.5906,0.3524,0.1987,0.6461,2.1907,
2.222661,-0.4688,0.6687,0.1444,0.7650,-1.5906,0.3524,0.5481,1.3092,2.4054,
2.242651,-0.4874,0.5262,0.0186,0.7650,-1.5906,0.3524,0.5481,1.3092,2.4054,
2.244502,-0.4874,0.5262,0.0186,-0.1511,-3.4582,-0.5619,0.5481,1.3092,2.4054,
2.246421,-0.4874,0.5262,0.0186,-0.1511,-3.4582,-0.5619,0.4543,1.2725,2.6477,
2.262030,-0.4874,0.5262,0.0186,-0.1511,-3.4582,-0.5619,-0.1609,1.2432,2.9779,
2.282183,0.2064,0.8846,0.0125,-0.1511,-3.4582,-0.5619,-0.1609,1.2432,2.9779,
2.284285,0.2064,0.8846,0.0125,5.6831,-0.4158,-0.3622,-0.1609,1.2432,2.9779,
2.285986,0.2064,0.8846,0.0125,5.6831,-0.4158,-0.3622,-0.4980,1.0024,3.1324,
2.302986,0.2064,0.8846,0.0125,5.6831,-0.4158,-0.3622,0.1332,0.7542,2.1486,
2.322500,0.1200,0.7517,0.1402,5.6831,-0.4158,-0.3622,0.1332,0.7542,2.1486,
2.325374,0.1200,0.7517,0.1402,3.8762,-2.0503,0.9346,0.1332,0.7542,2.1486,
2.327093,0.1200,0.7517,0.1402,3.8762,-2.0503,0.9346,0.9726,1.7044,1.5532,
2.341782,0.1200,0.7517,0.1402,3.8762,-2.0503,0.9346,0.6210,1.5260,1.3896,
2.362293,-0.0381,0.5939,-0.2084,3.8762,-2.0503,0.9346,0.6210,1.5260,1.3896,
2.363297,-0.0381,0.5939,-0.2084,1.7817,-3.7466,-2.0231,0.6210,1.5260,1.3896,
2.364086,-0.0381,0.5939,-0.2084,1.7817,-3.7466,-2.0231,-0.0905,0.5475,1.4754,
2.382380,-0.0381,0.5939,-0.2084,1.7817,-3.7466,-2.0231,-0.1475,-0.1443,1.7934,
2.403897,0.2238,0.7940,0.1109,1.7817,-3.7466,-2.0231,-0.1475,-0.1443,1.7934,
2.405794,0.2238,0.7940,0.1109,3.7193,-1.9060,1.0774,-0.1475,-0.1443,1.7934,
2.407623,0.2238,0.7940,0.1109,3.7193,-1.9060,1.0774,0.6029,-1.2384,1.2506,
2.422702,0.2238,0.7940,0.1109,3.7193,-1.9060,1.0774,0.9939,-0.9033,0.0783,
2.442863,-0.0222,0.9670,0.1190,3.7193,-1.9060,1.0774,0.9939,-0.9033,0.0783,
2.445398,-0.0222,0.9670,0.1190,1.0545,-0.2445,1.4082,0.9939,-0.9033,0.0783,
2.447001,-0.0222,0.9670,0.1190,1.0545,-0.2445,1.4082,0.7478,-0.3159,-0.7441,
2.462130,-0.0222,0.9670,0.1190,1.0545,-0.2445,1.4082,0.3398,-3.5889,-1.5915,
2.481925,-0.6975,2.0114,-0.3046,1.0545,-0.2445,1.4082,0.3398,-3.5889,-1.5915,
2.484356,-0.6975,2.0114,-0.3046,-5.0841,10.0681,-2.6547,0.3398,-3.5889,-1.5915,
2.486186,-0.6975,2.0114,-0.3046,-5.0841,10.0681,-2.6547,0.8490,-2.2674,-1.1302,
2.503228,-0.6975,2.0114,-0.3046,-5.0841,10.0681,-2.6547,0.6812,0.4948,0.1076,
2.521864,-0.2690,1.6735,-0.0599,-5.0841,10.0681,-2.6547,0.6812,0.4948,0.1076,
2.524283,-0.2690,1.6735,-0.0599,-0.6764,6.8077,-0.0271,0.6812,0.4948,0.1076,
2.526489,-0.2690,1.6735,-0.0599,-0.6764,6.8077,-0.0271,0.3419,2.0032,1.0061,
2.541792,-0.2690,1.6735,-0.0599,-0.6764,6.8077,-0.0271,-0.5039,1.5761,1.7785,
2.561904,-0.2428,1.0293,-0.0679,-0.6764,6.8077,-0.0271,-0.5039,1.5761,1.7785,
2.563584,-0.2428,1.0293,-0.0679,-1.0029,0.3991,-0.0146,-0.5039,1.5761,1.7785,
2.564945,-0.2428,1.0293,-0.0679,-1.0029,0.3991,-0.0146,-0.8464,0.6210,0.9241,
2.581169,-0.2428,1.0293,-0.0679,-1.0029,0.3991,-0.0146,-0.3222,0.8954,0.3702,
2.602166,-0.1258,0.9616,-0.1280,-1.0029,0.3991,-0.0146,-0.3222,0.8954,0.3702,
2.605197,-0.1258,0.9616,-0.1280,-0.1228,-0.3091,-0.7937,-0.3222,0.8954,0.3702,
2.607605,-0.1258,0.9616,-0.1280,-0.1228,-0.3091,-0.7937,-0.0240,1.2362,0.3601,
2.622805,-0.1258,0.9616,-0.1280,-0.1228,-0.3091,-0.7937,-0.0581,0.8655,0.4197,
2.642260,-0.0432,0.9723,-0.0469,-0.1228,-0.3091,-0.7937,-0.0581,0.8655,0.4197,
2.644325,-0.0432,0.9723,-0.0469,0.5168,-0.2202,0.0300,-0.0581,0.8655,0.4197,
2.645906,-0.0432,0.9723,-0.0469,0.5168,-0.2202,0.0300,0.0000,0.6077,0.3180,
2.661536,-0.0432,0.9723,-0.0469,0.5168,-0.2202,0.0300,0.1198,0.6685,0.2120,
2.681819,-0.1334,0.9880,-0.1368,0.5168,-0.2202,0.0300,0.1198,0.6685,0.2120,
2.683921,-0.1334,0.9880,-0.1368,-0.4740,-0.0739,-0.7969,0.1198,0.6685,0.2120,
2.685499,-0.1334,0.9880,-0.1368,-0.4740,-0.0739,-0.7969,0.2360,0.8794,0.1949,
2.702462,-0.1334,0.9880,-0.1368,-0.4740,-0.0739,-0.7969,0.5039,1.2410,0.1987,
2.722899,-0.1737,1.0236,-0.2211,-0.4740,-0.0739,-0.7969,0.5039,1.2410,0.1987,
2.725702,-0.1737,1.0236,-0.2211,-0.9592,0.2809,-1.4322,0.5039,1.2410,0.1987,
2.727307,-0.1737,1.0236,-0.2211,-0.9592,0.2809,-1.4322,0.8533,1.6048,0.1752,
2.742161,-0.1737,1.0236,-0.2211,-0.9592,0.2809,-1.4322,1.1894,1.8317,0.1150,
2.761563,-0.1395,1.0950,-0.3198,-0.9592,0.2809,-1.4322,1.1894,1.8317,0.1150,
2.763704,-0.1395,1.0950,-0.3198,-0.7430,1.0156,-1.9526,1.1894,1.8317,0.1150,
2.765430,-0.1395,1.0950,-0.3198,-0.7430,1.0156,-1.9526,1.5766,1.9883,0.0165,
2.781561,-0.1395,1.0950,-0.3198,-0.7430,1.0156,-1.9526,2.0048,2.1018,-0.0192,
2.802043,-0.1676,0.9875,-0.2541,-0.7430,1.0156,-1.9526,2.0048,2.1018,-0.0192,
2.804210,-0.1676,0.9875,-0.2541,-1.1304,0.0746,-0.5676,2.0048,2.1018,-0.0192,
2.805941,-0.1676,0.9875,-0.2541,-1.1304,0.0746,-0.5676,2.4256,1.8014,-0.0495,
2.822491,-0.1676,0.9875,-0.2541,-1.1304,0.0746,-0.5676,2.2387,0.8911,-0.1656,
2.842154,-0.1146,1.0161,-0.3022,-1.1304,0.0746,-0.5676,2.2387,0.8911,-0.1656,
2.844232,-0.1146,1.0161,-0.3022,-0.6828,0.5774,-0.1349,2.2387,0.8911,-0.1656,
2.845748,-0.1146,1.0161,-0.3022,-0.6828,0.5774,-0.1349,1.2863,-0.0501,-0.3180,
2.862107,-0.1146,1.0161,-0.3022,-0.6828,0.5774,-0.1349,0.8229,-0.0767,-0.4682,
2.881720,0.0210,1.0681,-0.2414,-0.6828,0.5774,-0.1349,0.8229,-0.0767,-0.4682,
2.884198,0.0210,1.0681,-0.2414,0.8002,1.2197,0.8435,0.8229,-0.0767,-0.4682,
2.885594,0.0210,1.0681,-0.2414,0.8002,1.2197,0.8435,1.2229,0.6818,-0.6253,
2.903413,0.0210,1.0681,-0.2414,0.8002,1.2197,0.8435,1.3199,1.3646,-0.9151,
2.921046,-0.1717,0.9604,-0.2805,0.8002,1.2197,0.8435,1.3199,1.3646,-0.9151,
2.923075,-0.1717,0.9604,-0.2805,-0.9430,0.3503,0.9278,1.3199,1.3646,-0.9151,
2.924827,-0.1717,0.9604,-0.2805,-0.9430,0.3503,0.9278,1.1622,1.4301,-1.1361,
2.942070,-0.1717,0.9604,-0.2805,-0.9430,0.3503,0.9278,1.0386,1.4791,-1.1414,
2.961385,-0.0718,0.9477,-0.2702,-0.9430,0.3503,0.9278,1.0386,1.4791,-1.1414,
2.963316,-0.0718,0.9477,-0.2702,0.2170,0.4131,1.4232,1.0386,1.4791,-1.1414,
2.964877,-0.0718,0.9477,-0.2702,0.2170,0.4131,1.4232,1.0754,1.7785,-1.1270,
2.981568,-0.0718,0.9477,-0.2702,0.2170,0.4131,1.4232,1.0951,2.1742,-1.1286,
3.002309,0.0176,0.8964,-0.3584,0.2170,0.4131,1.4232,1.0951,2.1742,-1.1286,
3.004168,0.0176,0.8964,-0.3584,1.1291,0.1096,0.9604,1.0951,2.1742,-1.1286,
3.005770,0.0176,0.8964,-0.3584,1.1291,0.1096,0.9604,1.0850,2.2397,-1.0482,
3.021451,0.0176,0.8964,-0.3584,1.1291,0.1096,0.9604,1.0189,2.3553,-0.9603,
3.041157,-0.0403,0.7351,-0.4361,1.1291,0.1096,0.9604,1.0189,2.3553,-0.9603,
3.043822,-0.0403,0.7351,-0.4361,0.4690,-1.2438,0.6311,1.0189,2.3553,-0.9603,
3.045772,-0.0403,0.7351,-0.4361,0.4690,-1.2438,0.6311,0.8219,2.3803,-0.8480,
3.061032,-0.0403,0.7351,-0.4361,0.4690,-1.2438,0.6311,0.6924,2.1801,-0.8527,
3.081767,-0.0144,0.6616,-0.4498,0.4690,-1.2438,0.6311,0.6924,2.1801,-0.8527,
3.084595,-0.0144,0.6616,-0.4498,0.5448,-1.7849,0.8204,0.6924,2.1801,-0.8527,
3.086501,-0.0144,0.6616,-0.4498,0.5448,-1.7849,0.8204,0.5321,1.8845,-0.8027,
3.102140,-0.0144,0.6616,-0.4498,0.5448,-1.7849,0.8204,0.3595,1.6219,-0.7942,
3.121733,-0.0213,0.6301,-0.5121,0.5448,-1.7849,0.8204,0.3595,1.6219,-0.7942,
3.123727,-0.0213,0.6301,-0.5121,0.3663,-1.9791,0.4000,0.3595,1.6219,-0.7942,
3.125321,-0.0213,0.6301,-0.5121,0.3663,-1.9791,0.4000,0.1720,1.4280,-0.7547,
3.141253,-0.0213,0.6301,-0.5121,0.3663,-1.9791,0.4000,-0.0735,1.3843,-0.6844,
3.161240,-0.0884,0.5687,-0.5902,0.3663,-1.9791,0.4000,-0.0735,1.3843,-0.6844,
3.164066,-0.0884,0.5687,-0.5902,-0.3645,-2.5537,-0.3197,-0.0735,1.3843,-0.6844,
3.165997,-0.0884,0.5687,-0.5902,-0.3645,-2.5537,-0.3197,-0.3329,1.4733,-0.6125,
3.180853,-0.0884,0.5687,-0.5902,-0.3645,-2.5537,-0.3197,-0.4634,1.5484,-0.5433,
3.202007,-0.0413,0.7239,-0.8348,-0.3645,-2.5537,-0.3197,-0.4634,1.5484,-0.5433,
3.204783,-0.0413,0.7239,-0.8348,-0.0386,-1.0930,-2.7950,-0.4634,1.5484,-0.5433,
3.207384,-0.0413,0.7239,-0.8348,-0.0386,-1.0930,-2.7950,-0.5412,1.4232,-0.6461,
3.220814,-0.0413,0.7239,-0.8348,-0.0386,-1.0930,-2.7950,-0.5832,1.4626,-0.7318,
3.240647,-0.1524,1.0537,-0.8534,-0.0386,-1.0930,-2.7950,-0.5832,1.4626,-0.7318,
3.242865,-0.1524,1.0537,-0.8534,-1.2068,2.0289,-3.1434,-0.5832,1.4626,-0.7318,
3.244622,-0.1524,1.0537,-0.8534,-1.2068,2.0289,-3.1434,-0.3846,1.5026,-0.6722,
3.260617,-0.1524,1.0537,-0.8534,-1.2068,2.0289,-3.1434,0.0772,1.6682,-0.5779,
3.280434,-0.0137,0.9428,-0.7139,-1.2068,2.0289,-3.1434,0.0772,1.6682,-0.5779,
3.282510,-0.0137,0.9428,-0.7139,0.0326,0.9160,-1.8125,0.0772,1.6682,-0.5779,
3.284162,-0.0137,0.9428,-0.7139,0.0326,0.9160,-1.8125,0.4826,1.9686,-0.5167,
3.302683,-0.0137,0.9428,-0.7139,0.0326,0.9160,-1.8125,0.5305,1.8120,-0.3515,
3.320375,0.2189,1.2374,-0.6596,0.0326,0.9160,-1.8125,0.5305,1.8120,-0.3515,
3.322564,0.2189,1.2374,-0.6596,2.0577,3.9111,-1.1102,0.5305,1.8120,-0.3515,
3.324233,0.2189,1.2374,-0.6596,2.0577,3.9111,-1.1102,0.2860,1.4802,-0.0426,
3.340368,0.2189,1.2374,-0.6596,2.0577,3.9111,-1.1102,0.3899,0.5875,0.4554,
3.360340,0.1283,0.8929,-0.5199,2.0577,3.9111,-1.1102,0.3899,0.5875,0.4554,
3.362149,0.1283,0.8929,-0.5199,0.8798,0.6108,0.3612,0.3899,0.5875,0.4554,
3.363212,0.1283,0.8929,-0.5199,0.8798,0.6108,0.3612,0.0453,-0.1188,0.4384,
3.380824,0.1283,0.8929,-0.5199,0.8798,0.6108,0.3612,-0.8021,-1.2879,0.1284,
3.400538,0.5585,0.5900,-0.2932,0.8798,0.6108,0.3612,-0.8021,-1.2879,0.1284,
3.403616,0.5585,0.5900,-0.2932,5.0756,-2.4391,2.4586,-0.8021,-1.2879,0.1284,
3.405583,0.5585,0.5900,-0.2932,5.0756,-2.4391,2.4586,-0.7798,-0.4517,0.0591,
3.422836,0.5585,0.5900,-0.2932,5.0756,-2.4391,2.4586,-0.5561,-0.9912,0.2482,
3.441170,-0.2099,1.0591,0.0103,5.0756,-2.4391,2.4586,-0.5561,-0.9912,0.2482,
3.443485,-0.2099,1.0591,0.0103,-2.3659,1.9924,5.1742,-0.5561,-0.9912,0.2482,
3.445188,-0.2099,1.0591,0.0103,-2.3659,1.9924,5.1742,-1.5990,-4.9466,0.4938,
3.460725,-0.2099,1.0591,0.0103,-2.3659,1.9924,5.1742,-1.6906,-4.5130,0.8341,
3.480901,-0.0247,1.2025,-0.2687,-2.3659,1.9924,5.1742,-1.6906,-4.5130,0.8341,
3.484453,-0.0247,1.2025,-0.2687,0.1229,3.0689,1.8475,-1.6906,-4.5130,0.8341,
3.486386,-0.0247,1.2025,-0.2687,0.1229,3.0689,1.8475,-1.4147,-2.0735,0.5140,
3.501250,-0.0247,1.2025,-0.2687,0.1229,3.0689,1.8475,-1.6586,-1.5388,0.3611,
3.520422,-0.3621,0.8744,-0.0086,0.1229,3.0689,1.8475,-1.6586,-1.5388,0.3611,
3.522629,-0.3621,0.8744,-0.0086,-3.0040,-0.4420,3.7474,-1.6586,-1.5388,0.3611,
3.525014,-0.3621,0.8744,-0.0086,-3.0040,-0.4420,3.7474,-1.5974,-1.6091,0.3308,
3.540445,-0.3621,0.8744,-0.0086,-3.0040,-0.4420,3.7474,-1.4520,-1.0786,0.3095,
3.560621,-0.1434,1.0249,-0.2304,-3.0040,-0.4420,3.7474,-1.4520,-1.0786,0.3095,
3.563559,-0.1434,1.0249,-0.2304,-0.7632,0.7959,0.9418,-1.4520,-1.0786,0.3095,
3.564918,-0.1434,1.0249,-0.2304,-0.7632,0.7959,0.9418,-1.6879,-0.4165,0.0554,
3.580007,-0.1434,1.0249,-0.2304,-0.7632,0.7959,0.9418,-1.8008,-0.4405,-0.2178,
3.601041,-0.1610,0.8920,-0.0906,-0.7632,0.7959,0.9418,-1.8008,-0.4405,-0.2178,
3.604174,-0.1610,0.8920,-0.0906,-0.8334,-0.7103,1.6186,-1.8008,-0.4405,-0.2178,
3.605870,-0.1610,0.8920,-0.0906,-0.8334,-0.7103,1.6186,-1.7928,-0.6903,-0.2530,
3.621959,-0.1610,0.8920,-0.0906,-0.8334,-0.7103,1.6186,-1.7625,-0.9310,-0.0304,
3.641273,-0.0020,0.7038,-0.2025,-0.8334,-0.7103,1.6186,-1.7625,-0.9310,-0.0304,
3.646281,-0.0020,0.7038,-0.2025,0.8479,-2.7026,-0.1811,-1.7625,-0.9310,-0.0304,
3.648024,-0.0020,0.7038,-0.2025,0.8479,-2.7026,-0.1811,-1.8530,-0.6173,0.2530,
3.660831,-0.0020,0.7038,-0.2025,0.8479,-2.7026,-0.1811,-1.8940,0.0357,0.3963,
3.680609,-0.0059,0.8722,-0.0806,0.8479,-2.7026,-0.1811,-1.8940,0.0357,0.3963,
3.682876,-0.0059,0.8722,-0.0806,0.7034,-1.1709,0.2811,-1.8940,0.0357,0.3963,
3.684612,-0.0059,0.8722,-0.0806,0.7034,-1.1709,0.2811,-1.7353,-0.1481,0.3910,
3.701635,-0.0059,0.8722,-0.0806,0.7034,-1.1709,0.2811,-1.7124,-0.6237,0.3878,
3.719889,-0.1681,0.9130,0.0459,0.7034,-1.1709,0.2811,-1.7124,-0.6237,0.3878,
3.722422,-0.1681,0.9130,0.0459,-1.0285,-0.8323,0.8390,-1.7124,-0.6237,0.3878,
3.724329,-0.1681,0.9130,0.0459,-1.0285,-0.8323,0.8390,-1.3007,-0.3153,0.3675,
3.741249,-0.1681,0.9130,0.0459,-1.0285,-0.8323,0.8390,-1.0994,-0.1891,0.2802,
3.759978,-0.1415,0.8507,-0.1170,-1.0285,-0.8323,0.8390,-1.0994,-0.1891,0.2802,
3.763300,-0.1415,0.8507,-0.1170,-0.8924,-1.4572,-1.2328,-1.0994,-0.1891,0.2802,
3.765028,-0.1415,0.8507,-0.1170,-0.8924,-1.4572,-1.2328,-1.2725,-0.4027,0.3116,
3.780190,-0.1415,0.8507,-0.1170,-0.8924,-1.4572,-1.2328,-1.3007,-0.8053,0.5167,
3.800608,-0.0281,0.9130,-0.0635,-0.8924,-1.4572,-1.2328,-1.3007,-0.8053,0.5167,
3.803082,-0.0281,0.9130,-0.0635,0.0473,-0.8359,-1.2214,-1.3007,-0.8053,0.5167,
3.804808,-0.0281,0.9130,-0.0635,0.0473,-0.8359,-1.2214,-1.2549,-0.8224,0.6658,
3.820448,-0.0281,0.9130,-0.0635,0.0473,-0.8359,-1.2214,-1.1894,-0.4884,0.5641,
3.840834,-0.0384,1.0686,0.0752,0.0473,-0.8359,-1.2214,-1.1894,-0.4884,0.5641,
3.845211,-0.0384,1.0686,0.0752,-0.2994,0.7222,-0.3124,-1.1894,-0.4884,0.5641,
3.847316,-0.0384,1.0686,0.0752,-0.2994,0.7222,-0.3124,-1.0349,-0.1017,0.3579,
3.860086,-0.0384,1.0686,0.0752,-0.2994,0.7222,-0.3124,-0.7425,-0.0975,0.3830,
3.879878,-0.3235,1.2477,-0.0027,-0.2994,0.7222,-0.3124,-0.7425,-0.0975,0.3830,
3.882353,-0.3235,1.2477,-0.0027,-3.2420,2.5205,-1.4213,-0.7425,-0.0975,0.3830,
3.883817,-0.3235,1.2477,-0.0027,-3.2420,2.5205,-1.4213,-0.4778,-0.4048,0.5731,
3.900676,-0.3235,1.2477,-0.0027,-3.2420,2.5205,-1.4213,-0.2796,-0.5662,0.4368,
3.921133,-0.3601,1.3002,-0.1688,-3.2420,2.5205,-1.4213,-0.2796,-0.5662,0.4368,
3.923386,-0.3601,1.3002,-0.1688,-3.8253,3.0611,-3.1921,-0.2796,-0.5662,0.4368,
3.925127,-0.3601,1.3002,-0.1688,-3.8253,3.0611,-3.1921,-0.1545,-0.5603,0.0847,
3.940289,-0.3601,1.3002,-0.1688,-3.8253,3.0611,-3.1921,0.1475,-0.6546,-0.1683,
3.959413,-0.3398,1.3488,0.2272,-3.8253,3.0611,-3.1921,0.1475,-0.6546,-0.1683,
3.961646,-0.3398,1.3488,0.2272,-3.6480,3.5372,0.6953,0.1475,-0.6546,-0.1683,
3.962839,-0.3398,1.3488,0.2272,-3.6480,3.5372,0.6953,1.1404,0.0724,-0.3473,
3.979656,-0.3398,1.3488,0.2272,-3.6480,3.5372,0.6953,1.8424,0.7984,-0.6344,
3.999632,-0.2812,1.1057,0.3056,-3.6480,3.5372,0.6953,1.8424,0.7984,-0.6344,
4.002963,-0.2812,1.1057,0.3056,-2.8627,1.0767,2.0397,1.8424,0.7984,-0.6344,
4.005197,-0.2812,1.1057,0.3056,-2.8627,1.0767,2.0397,2.2360,0.9939,-0.5417,
4.019713,-0.2812,1.1057,0.3056,-2.8627,1.0767,2.0397,3.1915,1.0328,-0.3734,
4.040524,0.0994,1.1030,-0.1173,-2.8627,1.0767,2.0397,3.1915,1.0328,-0.3734,
4.042836,0.0994,1.1030,-0.1173,1.0652,1.0042,-1.0431,3.1915,1.0328,-0.3734,
4.044488,0.0994,1.1030,-0.1173,1.0652,1.0042,-1.0431,3.8850,1.5121,-0.2940,
4.059703,0.0994,1.1030,-0.1173,1.0652,1.0042,-1.0431,3.1393,2.0879,0.1742,
4.079995,-0.0948,1.4717,0.0789,1.0652,1.0042,-1.0431,3.1393,2.0879,0.1742,
4.083061,-0.0948,1.4717,0.0789,-0.8782,4.7288,2.2552,3.1393,2.0879,0.1742,
4.084954,-0.0948,1.4717,0.0789,-0.8782,4.7288,2.2552,2.2024,1.2836,0.8405,
4.100300,-0.0948,1.4717,0.0789,-0.8782,4.7288,2.2552,2.0432,0.8149,1.4189,
4.120366,0.1994,1.2843,-0.2301,-0.8782,4.7288,2.2552,2.0432,0.8149,1.4189,
4.122607,0.1994,1.2843,-0.2301,1.4935,3.0621,0.0356,2.0432,0.8149,1.4189,
4.124252,0.1994,1.2843,-0.2301,1.4935,3.0621,0.0356,2.4751,0.9236,1.4797,
4.139998,0.1994,1.2843,-0.2301,1.4935,3.0621,0.0356,2.4267,0.7100,0.9550,
4.159701,0.5277,1.0329,-0.0718,1.4935,3.0621,0.0356,2.4267,0.7100,0.9550,
4.162129,0.5277,1.0329,-0.0718,4.1659,0.9023,2.4810,2.4267,0.7100,0.9550,
4.163628,0.5277,1.0329,-0.0718,4.1659,0.9023,2.4810,2.0437,0.8027,0.1806,
4.179731,0.5277,1.0329,-0.0718,4.1659,0.9023,2.4810,2.1561,0.0953,-0.6445,
4.200867,-0.0039,0.6440,0.1735,4.1659,0.9023,2.4810,2.1561,0.0953,-0.6445,
4.202937,-0.0039,0.6440,0.1735,-1.0285,-2.6422,5.5766,2.1561,0.0953,-0.6445,
4.204142,-0.0039,0.6440,0.1735,-1.0285,-2.6422,5.5766,2.3010,-0.0863,-0.4804,
4.219088,-0.0039,0.6440,0.1735,-1.0285,-2.6422,5.5766,2.3697,0.6322,-0.3276,
4.238916,0.1222,0.5702,-0.0542,-1.0285,-2.6422,5.5766,2.3697,0.6322,-0.3276,
4.239781,0.1222,0.5702,-0.0542,0.3001,-2.9781,4.1575,2.3697,0.6322,-0.3276,
4.240278,0.1222,0.5702,-0.0542,0.3001,-2.9781,4.1575,2.2253,1.7785,-0.3015,
4.259426,0.1222,0.5702,-0.0542,0.3001,-2.9781,4.1575,1.9878,2.5588,-0.3734,
4.279842,0.2079,0.5993,-0.0914,0.3001,-2.9781,4.1575,1.9878,2.5588,-0.3734,
4.282076,0.2079,0.5993,-0.0914,0.8163,-2.2861,4.4063,1.9878,2.5588,-0.3734,
4.283810,0.2079,0.5993,-0.0914,0.8163,-2.2861,4.4063,1.7550,2.6568,-0.6354,
4.299986,0.2079,0.5993,-0.0914,0.8163,-2.2861,4.4063,1.3950,2.3420,-0.7686,
4.319496,0.3420,0.3970,-0.3476,0.8163,-2.2861,4.4063,1.3950,2.3420,-0.7686,
4.322308,0.3420,0.3970,-0.3476,1.8062,-3.9624,2.2597,1.3950,2.3420,-0.7686,
4.324460,0.3420,0.3970,-0.3476,1.8062,-3.9624,2.2597,0.6610,2.1508,-0.6796,
4.340336,0.3420,0.3970,-0.3476,1.8062,-3.9624,2.2597,-0.1209,1.4711,-0.7382,
4.360699,0.2218,0.2548,-0.5497,1.8062,-3.9624,2.2597,-0.1209,1.4711,-0.7382,
4.363054,0.2218,0.2548,-0.5497,0.4391,-5.3416,0.2447,-0.1209,1.4711,-0.7382,
4.364755,0.2218,0.2548,-0.5497,0.4391,-5.3416,0.2447,-0.9337,0.6546,-0.6802,
4.379761,0.2218,0.2548,-0.5497,0.4391,-5.3416,0.2447,-1.6490,-0.0831,-0.4485,
4.400016,0.1480,0.5155,-0.7747,0.4391,-5.3416,0.2447,-1.6490,-0.0831,-0.4485,
4.402360,0.1480,0.5155,-0.7747,-0.1681,-3.1042,-2.3930,-1.6490,-0.0831,-0.4485,
4.404263,0.1480,0.5155,-0.7747,-0.1681,-3.1042,-2.3930,-2.1790,-0.2461,-0.2296,
4.420352,0.1480,0.5155,-0.7747,-0.1681,-3.1042,-2.3930,-2.0533,0.5859,-0.2141,
4.440058,0.0772,1.7035,-0.8976,-0.1681,-3.1042,-2.3930,-2.0533,0.5859,-0.2141,
4.443259,0.0772,1.7035,-0.8976,-0.8180,8.1149,-4.3155,-2.0533,0.5859,-0.2141,
4.445028,0.0772,1.7035,-0.8976,-0.8180,8.1149,-4.3155,-1.0972,0.5380,0.1577,
4.461044,0.0772,1.7035,-0.8976,-0.8180,8.1149,-4.3155,0.3356,1.3103,0.1656,
4.479731,0.3166,1.4331,-0.7708,-0.8180,8.1149,-4.3155,0.3356,1.3103,0.1656,
4.482111,0.3166,1.4331,-0.7708,1.3135,5.4080,-3.2664,0.3356,1.3103,0.1656,
4.483875,0.3166,1.4331,-0.7708,1.3135,5.4080,-3.2664,2.2466,3.7353,-0.2498,
4.499719,0.3166,1.4331,-0.7708,1.3135,5.4080,-3.2664,1.7023,1.6959,-0.3228,
4.519764,0.0684,0.3411,-0.8502,1.3135,5.4080,-3.2664,1.7023,1.6959,-0.3228,
4.522560,0.0684,0.3411,-0.8502,-1.5083,-4.9622,-3.5926,1.7023,1.6959,-0.3228,
4.525535,0.0684,0.3411,-0.8502,-1.5083,-4.9622,-3.5926,0.3004,0.1268,-0.2999,
4.538899,0.0684,0.3411,-0.8502,-1.5083,-4.9622,-3.5926,-0.6067,0.3143,-0.0703,
4.558839,0.4080,1.5709,-0.3093,-1.5083,-4.9622,-3.5926,-0.6067,0.3143,-0.0703,
4.561791,0.4080,1.5709,-0.3093,1.8394,7.0457,1.6383,-0.6067,0.3143,-0.0703,
4.563470,0.4080,1.5709,-0.3093,1.8394,7.0457,1.6383,-1.4093,-0.8352,0.0517,
4.579366,0.4080,1.5709,-0.3093,1.8394,7.0457,1.6383,-1.8541,-3.2427,0.1135,
4.599199,0.6115,1.1846,0.4463,1.8394,7.0457,1.6383,-1.8541,-3.2427,0.1135,
4.602342,0.6115,1.1846,0.4463,4.1650,2.9765,8.6523,-1.8541,-3.2427,0.1135,
4.604112,0.6115,1.1846,0.4463,4.1650,2.9765,8.6523,-0.4261,-2.6514,0.1827,
4.619554,0.6115,1.1846,0.4463,4.1650,2.9765,8.6523,0.5497,-0.7025,0.1438,
4.640032,0.4483,0.3244,-0.7036,4.1650,2.9765,8.6523,0.5497,-0.7025,0.1438,
4.642103,0.4483,0.3244,-0.7036,2.7179,-5.4229,-2.4950,0.5497,-0.7025,0.1438,
4.644026,0.4483,0.3244,-0.7036,2.7179,-5.4229,-2.4950,-1.0013,1.6075,0.0927,
4.658762,0.4483,0.3244,-0.7036,2.7179,-5.4229,-2.4950,-2.7532,-0.0101,0.3643,
4.678671,0.1104,0.7305,0.4610,2.7179,-5.4229,-2.4950,-2.7532,-0.0101,0.3643,
4.679667,0.1104,0.7305,0.4610,-0.8101,-1.7287,8.2064,-2.7532,-0.0101,0.3643,
4.680279,0.1104,0.7305,0.4610,-0.8101,-1.7287,8.2064,-3.6666,-3.3716,0.3665,
4.700397,0.1104,0.7305,0.4610,-0.8101,-1.7287,8.2064,-3.0685,-4.5902,0.4192,
4.720572,-0.1261,1.4866,0.2868,-0.8101,-1.7287,8.2064,-3.0685,-4.5902,0.4192,
4.724839,-0.1261,1.4866,0.2868,-2.7695,5.2744,5.5372,-3.0685,-4.5902,0.4192,
4.726936,-0.1261,1.4866,0.2868,-2.7695,5.2744,5.5372,-1.4903,-2.6216,0.5332,
4.738593,-0.1261,1.4866,0.2868,-2.7695,5.2744,5.5372,-1.3630,0.8453,0.1465,
4.759250,0.0132,1.0647,-0.1446,-2.7695,5.2744,5.5372,-1.3630,0.8453,0.1465,
4.761500,0.0132,1.0647,-0.1446,-1.4253,1.0103,0.8073,-1.3630,0.8453,0.1465,
4.763260,0.0132,1.0647,-0.1446,-1.4253,1.0103,0.8073,-1.8786,1.0035,-0.5438,
4.779271,0.0132,1.0647,-0.1446,-1.4253,1.0103,0.8073,-2.0022,-0.7121,-0.6509,
4.799322,0.1600,0.6242,-0.0103,-1.4253,1.0103,0.8073,-2.0022,-0.7121,-0.6509,
4.801450,0.1600,0.6242,-0.0103,0.2235,-3.4839,1.3762,-2.0022,-0.7121,-0.6509,
4.803108,0.1600,0.6242,-0.0103,0.2235,-3.4839,1.3762,-2.0618,-1.5542,-0.6333,
4.820697,0.1600,0.6242,-0.0103,0.2235,-3.4839,1.3762,-1.9436,-1.0099,-0.3164,
4.839070,0.0999,0.7341,-0.0462,0.2235,-3.4839,1.3762,-1.9436,-1.0099,-0.3164,
4.842316,0.0999,0.7341,-0.0462,-0.1230,-2.5198,0.3134,-1.9436,-1.0099,-0.3164,
4.844205,0.0999,0.7341,-0.0462,-0.1230,-2.5198,0.3134,-1.7806,0.1699,0.0607,
4.858984,0.0999,0.7341,-0.0462,-0.1230,-2.5198,0.3134,-1.6224,0.3569,0.3089,
4.878895,-0.0511,0.8988,0.0811,-0.1230,-2.5198,0.3134,-1.6224,0.3569,0.3089,
4.881864,-0.0511,0.8988,0.0811,-1.6782,-0.9270,0.8875,-1.6224,0.3569,0.3089,
4.884217,-0.0511,0.8988,0.0811,-1.6782,-0.9270,0.8875,-1.1643,0.2104,0.4570,
4.899161,-0.0511,0.8988,0.0811,-1.6782,-0.9270,0.8875,-0.8389,-0.2855,0.4900,
4.918588,-0.0523,1.0122,-0.1520,-1.6782,-0.9270,0.8875,-0.8389,-0.2855,0.4900,
4.921376,-0.0523,1.0122,-0.1520,-1.8634,0.2103,-1.7757,-0.8389,-0.2855,0.4900,
4.923399,-0.0523,1.0122,-0.1520,-1.8634,0.2103,-1.7757,-0.9135,-0.3798,0.3526,
4.938895,-0.0523,1.0122,-0.1520,-1.8634,0.2103,-1.7757,-1.1910,-0.3979,0.2860,
4.959206,0.1121,0.9479,-0.0181,-1.8634,0.2103,-1.7757,-1.1910,-0.3979,0.2860,
4.961550,0.1121,0.9479,-0.0181,-0.3698,-0.3843,-0.8343,-1.1910,-0.3979,0.2860,
4.963547,0.1121,0.9479,-0.0181,-0.3698,-0.3843,-0.8343,-1.4536,-0.1449,0.2210,
4.978984,0.1121,0.9479,-0.0181,-0.3698,-0.3843,-0.8343,-1.6496,-0.2035,0.1577,
4.999187,0.2018,0.9936,-0.0613,-0.3698,-0.3843,-0.8343,-1.6496,-0.2035,0.1577,
5.001577,0.2018,0.9936,-0.0613,0.4390,0.1265,-1.7997,-1.6496,-0.2035,0.1577,
5.003360,0.2018,0.9936,-0.0613,0.4390,0.1265,-1.7997,-1.7385,0.0330,0.1880,
5.019014,0.2018,0.9936,-0.0613,0.4390,0.1265,-1.7997,-1.5303,0.7553,0.3228,
5.038779,-0.0594,1.2113,0.0371,0.4390,0.1265,-1.7997,-1.5303,0.7553,0.3228,
5.042003,-0.0594,1.2113,0.0371,-2.1755,2.3673,-1.4583,-1.5303,0.7553,0.3228,
5.043988,-0.0594,1.2113,0.0371,-2.1755,2.3673,-1.4583,-0.8155,0.3611,0.5380,
5.058773,-0.0594,1.2113,0.0371,-2.1755,2.3673,-1.4583,-0.0698,-0.6541,0.5726,
5.078298,0.0010,1.3850,-0.1239,-2.1755,2.3673,-1.4583,-0.0698,-0.6541,0.5726,
5.081276,0.0010,1.3850,-0.1239,-1.8061,4.1410,-3.1927,-0.0698,-0.6541,0.5726,
5.083267,0.0010,1.3850,-0.1239,-1.8061,4.1410,-3.1927,0.0948,-0.6487,0.2738,
5.099362,0.0010,1.3850,-0.1239,-1.8061,4.1410,-3.1927,-0.1044,-0.2109,-0.1806,
5.118000,-0.0420,1.3586,0.3237,-1.8061,4.1410,-3.1927,-0.1044,-0.2109,-0.1806,
5.120295,-0.0420,1.3586,0.3237,-2.2787,3.8861,1.2237,-0.1044,-0.2109,-0.1806,
5.121477,-0.0420,1.3586,0.3237,-2.2787,3.8861,1.2237,0.5609,-0.0378,-0.3361,
5.138307,-0.0420,1.3586,0.3237,-2.2787,3.8861,1.2237,1.7470,0.0985,-0.4698,
5.158399,0.0552,1.2213,0.2575,-2.2787,3.8861,1.2237,1.7470,0.0985,-0.4698,
5.161562,0.0552,1.2213,0.2575,-1.1715,2.4321,1.0097,1.7470,0.0985,-0.4698,
5.163529,0.0552,1.2213,0.2575,-1.1715,2.4321,1.0097,2.5103,0.0154,-0.4266,
5.178626,0.0552,1.2213,0.2575,-1.1715,2.4321,1.0097,3.0504,-0.1369,-0.1065,
5.198456,0.3127,1.0361,0.2069,-1.1715,2.4321,1.0097,3.0504,-0.1369,-0.1065,
5.200600,0.3127,1.0361,0.2069,1.4525,0.4907,1.5853,3.0504,-0.1369,-0.1065,
5.202141,0.3127,1.0361,0.2069,1.4525,0.4907,1.5853,3.7055,-0.3558,0.3047,
5.219006,0.3127,1.0361,0.2069,1.4525,0.4907,1.5853,3.8243,-0.4021,0.7159,
5.238665,0.5665,1.2787,-0.0950,1.4525,0.4907,1.5853,3.8243,-0.4021,0.7159,
5.240800,0.5665,1.2787,-0.0950,3.7484,2.9474,0.1017,3.8243,-0.4021,0.7159,
5.242341,0.5665,1.2787,-0.0950,3.7484,2.9474,0.1017,2.8379,-0.5156,0.7366,
5.258383,0.5665,1.2787,-0.0950,3.7484,2.9474,0.1017,2.2685,-0.2077,0.5822,
5.277425,0.5836,1.2633,-0.0359,3.7484,2.9474,0.1017,2.2685,-0.2077,0.5822,
5.278445,0.5836,1.2633,-0.0359,3.6873,3.0033,1.6754,2.2685,-0.2077,0.5822,
5.279227,0.5836,1.2633,-0.0359,3.6873,3.0033,1.6754,2.5939,0.3744,0.2908,
5.297840,0.5836,1.2633,-0.0359,3.6873,3.0033,1.6754,2.9215,0.2839,0.1960,
5.318068,0.2118,0.9416,-0.3718,3.6873,3.0033,1.6754,2.9215,0.2839,0.1960,
5.320469,0.2118,0.9416,-0.3718,-0.0792,0.1484,-0.6271,2.9215,0.2839,0.1960,
5.322502,0.2118,0.9416,-0.3718,-0.0792,0.1484,-0.6271,2.3915,0.1470,0.2189,
5.338467,0.2118,0.9416,-0.3718,-0.0792,0.1484,-0.6271,1.8605,0.0964,0.0240,
5.357899,0.0684,0.7107,0.1444,-0.0792,0.1484,-0.6271,1.8605,0.0964,0.0240,
5.360036,0.0684,0.7107,0.1444,-1.5481,-1.8385,5.1234,1.8605,0.0964,0.0240,
5.362197,0.0684,0.7107,0.1444,-1.5481,-1.8385,5.1234,1.8892,-0.8352,-0.0490,
5.401559,0.0684,0.7107,0.1444,-1.5481,-1.8385,5.1234,2.0810,-0.9566,-0.0815,
5.404343,0.1632,0.5360,0.0638,-1.5481,-1.8385,5.1234,2.0810,-0.9566,-0.0815,
5.406100,0.1632,0.5360,0.0638,-0.4501,-3.2314,5.0955,2.0810,-0.9566,-0.0815,
5.408197,0.1632,0.5360,0.0638,-0.4501,-3.2314,5.0955,2.2951,-0.2035,0.0671,
5.417357,0.1632,0.5360,0.0638,-0.4501,-3.2314,5.0955,2.1497,1.1931,-0.0511,
5.438090,0.2954,0.5524,-0.0235,-0.4501,-3.2314,5.0955,2.1497,1.1931,-0.0511,
5.441369,0.2954,0.5524,-0.0235,0.7419,-2.6416,4.9330,2.1497,1.1931,-0.0511,
5.443376,0.2954,0.5524,-0.0235,0.7419,-2.6416,4.9330,1.9047,2.2797,-0.2003,
5.458020,0.2954,0.5524,-0.0235,0.7419,-2.6416,4.9330,1.7337,2.4432,-0.4804,
5.478332,0.2660,0.4251,-0.4016,0.7419,-2.6416,4.9330,1.7337,2.4432,-0.4804,
5.480543,0.2660,0.4251,-0.4016,0.0561,-3.5330,1.5765,1.7337,2.4432,-0.4804,
5.482181,0.2660,0.4251,-0.4016,0.0561,-3.5330,1.5765,1.1872,2.1119,-0.6216,
5.497916,0.2660,0.4251,-0.4016,0.0561,-3.5330,1.5765,0.3473,1.7454,-0.7420,
5.518754,0.2409,0.2367,-0.4940,0.0561,-3.5330,1.5765,0.3473,1.7454,-0.7420,
5.520909,0.2409,0.2367,-0.4940,-0.4109,-5.2817,0.6999,0.3473,1.7454,-0.7420,
5.523337,0.2409,0.2367,-0.4940,-0.4109,-5.2817,0.6999,-0.4639,1.3406,-0.8868,
5.538141,0.2409,0.2367,-0.4940,-0.4109,-5.2817,0.6999,-1.3087,0.8783,-0.8389,
5.557324,0.2441,0.4625,-0.8260,-0.4109,-5.2817,0.6999,-1.3087,0.8783,-0.8389,
5.559594,0.2441,0.4625,-0.8260,-0.3526,-3.3533,-2.9512,-1.3087,0.8783,-0.8389,
5.560712,0.2441,0.4625,-0.8260,-0.3526,-3.3533,-2.9512,-2.1039,0.5071,-0.6972,
5.577444,0.2441,0.4625,-0.8260,-0.3526,-3.3533,-2.9512,-2.3564,0.6679,-0.6306,
5.597339,0.2316,1.7617,-0.9621,-0.3526,-3.3533,-2.9512,-2.3564,0.6679,-0.6306,
5.600540,0.2316,1.7617,-0.9621,-0.3703,8.8842,-5.0728,-2.3564,0.6679,-0.6306,
5.602354,0.2316,1.7617,-0.9621,-0.3703,8.8842,-5.0728,-1.2671,0.2013,-0.2823,
5.617717,0.6828,2.0925,-0.4627,-0.3703,8.8842,-5.0728,-1.2671,0.2013,-0.2823,
5.619804,0.6828,2.0925,-0.4627,4.0825,12.0032,-0.4045,-1.2671,0.2013,-0.2823,
5.621577,0.6828,2.0925,-0.4627,4.0825,12.0032,-0.4045,0.1646,1.3785,0.1523,
5.637945,0.6933,1.4267,-0.4989,4.0825,12.0032,-0.4045,0.1646,1.3785,0.1523,
5.640123,0.6933,1.4267,-0.4989,4.0450,5.5009,-0.8052,0.1646,1.3785,0.1523,
5.641785,0.6933,1.4267,-0.4989,4.0450,5.5009,-0.8052,2.4528,3.7828,-0.2232,
5.657578,0.3789,0.6867,-1.0808,4.0450,5.5009,-0.8052,2.4528,3.7828,-0.2232,
5.659454,0.3789,0.6867,-1.0808,0.6850,-1.5591,-6.3155,2.4528,3.7828,-0.2232,
5.661121,0.3789,0.6867,-1.0808,0.6850,-1.5591,-6.3155,2.5684,2.5391,-0.3238,
5.678155,0.4234,0.7510,-1.0781,0.6850,-1.5591,-6.3155,2.5684,2.5391,-0.3238,
5.680410,0.4234,0.7510,-1.0781,0.9503,-0.7237,-6.0274,2.5684,2.5391,-0.3238,
5.682140,0.4234,0.7510,-1.0781,0.9503,-0.7237,-6.0274,0.4538,-0.2834,-0.3132,
5.697311,0.6555,1.1341,-0.3345,0.9503,-0.7237,-6.0274,0.4538,-0.2834,-0.3132,
5.699488,0.6555,1.1341,-0.3345,3.3013,3.0522,1.3517,0.4538,-0.2834,-0.3132,
5.700990,0.6555,1.1341,-0.3345,3.3013,3.0522,1.3517,-1.1255,-1.2757,0.4836,
5.718420,0.7322,1.1057,0.1681,3.3013,3.0522,1.3517,-1.1255,-1.2757,0.4836,
5.720049,0.7322,1.1057,0.1681,4.0914,2.7016,6.1737,-1.1255,-1.2757,0.4836,
5.721592,0.7322,1.1057,0.1681,4.0914,2.7016,6.1737,-1.2863,-1.8498,0.3569,
5.738323,0.4920,0.7060,0.3293,4.0914,2.7016,6.1737,-1.2863,-1.8498,0.3569,
5.740346,0.4920,0.7060,0.3293,1.8450,-1.3086,7.6557,-1.2863,-1.8498,0.3569,
5.742098,0.4920,0.7060,0.3293,1.8450,-1.3086,7.6557,-1.2272,-2.9668,-0.2487,
5.757891,0.5155,0.6262,0.0318,1.8450,-1.3086,7.6557,-1.2272,-2.9668,-0.2487,
5.759996,0.5155,0.6262,0.0318,2.3776,-2.2138,4.7038,-1.2272,-2.9668,-0.2487,
5.761833,0.5155,0.6262,0.0318,2.3776,-2.2138,4.7038,-0.8884,-1.4631,-0.4389,
5.778073,0.3684,0.5262,-0.5060,2.3776,-2.2138,4.7038,-0.8884,-1.4631,-0.4389,
5.780138,0.3684,0.5262,-0.5060,1.1370,-3.2928,-0.6396,-0.8884,-1.4631,-0.4389,
5.781922,0.3684,0.5262,-0.5060,1.1370,-3.2928,-0.6396,-0.9465,0.1976,-0.0218,
5.798849,0.1891,0.7471,-0.4368,1.1370,-3.2928,-0.6396,-0.9465,0.1976,-0.0218,
5.800338,0.1891,0.7471,-0.4368,-0.6333,-1.2095,-0.1322,-0.9465,0.1976,-0.0218,
5.801697,0.1891,0.7471,-0.4368,-0.6333,-1.2095,-0.1322,-2.3782,-0.1800,0.7036,
5.818082,0.3025,0.8512,0.0850,-0.6333,-1.2095,-0.1322,-2.3782,-0.1800,0.7036,
5.820988,0.3025,0.8512,0.0850,0.3708,-0.3415,4.5818,-2.3782,-0.1800,0.7036,
5.823133,0.3025,0.8512,0.0850,0.3708,-0.3415,4.5818,-3.6219,-2.4080,0.6397,
5.837887,0.2118,0.9196,0.4986,0.3708,-0.3415,4.5818,-3.6219,-2.4080,0.6397,
5.839883,0.2118,0.9196,0.4986,-0.4619,0.1091,8.1229,-3.6219,-2.4080,0.6397,
5.841612,0.2118,0.9196,0.4986,-0.4619,0.1091,8.1229,-3.7870,-3.7396,0.3137,
5.857544,-0.0210,1.2723,0.6760,-0.4619,0.1091,8.1229,-3.7870,-3.7396,0.3137,
5.859415,-0.0210,1.2723,0.6760,-2.5768,3.3556,9.3626,-3.7870,-3.7396,0.3137,
5.861119,-0.0210,1.2723,0.6760,-2.5768,3.3556,9.3626,-2.4373,-2.2813,-0.0181,
5.878066,-0.2209,1.3916,0.0051,-2.5768,3.3556,9.3626,-2.4373,-2.2813,-0.0181,
5.880354,-0.2209,1.3916,0.0051,-4.4150,4.3983,2.4470,-2.4373,-2.2813,-0.0181,
5.882312,-0.2209,1.3916,0.0051,-4.4150,4.3983,2.4470,-1.4035,0.3894,-0.1981,
5.897554,0.0073,1.0640,-0.2673,-4.4150,4.3983,2.4470,-1.4035,0.3894,-0.1981,
5.899801,0.0073,1.0640,-0.2673,-2.1597,1.1154,-0.5002,-1.4035,0.3894,-0.1981,
5.901571,0.0073,1.0640,-0.2673,-2.1597,1.1154,-0.5002,-1.7401,1.8179,-0.4282,
5.918096,0.1200,0.7894,-0.1522,-2.1597,1.1154,-0.5002,-1.7401,1.8179,-0.4282,
5.920357,0.1200,0.7894,-0.1522,-1.0455,-1.6612,0.2218,-1.7401,1.8179,-0.4282,
5.922120,0.1200,0.7894,-0.1522,-1.0455,-1.6612,0.2218,-1.8189,0.7372,-0.5635,
5.937709,0.2443,0.7166,-0.0774,-1.0455,-1.6612,0.2218,-1.8189,0.7372,-0.5635,
5.939848,0.2443,0.7166,-0.0774,0.2569,-2.4547,0.5792,-1.8189,0.7372,-0.5635,
5.941526,0.2443,0.7166,-0.0774,0.2569,-2.4547,0.5792,-1.8328,-0.3712,-0.6008,
5.957667,0.2541,0.7124,-0.0237,0.2569,-2.4547,0.5792,-1.8328,-0.3712,-0.6008,
5.959585,0.2541,0.7124,-0.0237,0.4754,-2.5632,0.7734,-1.8328,-0.3712,-0.6008,
5.961244,0.2541,0.7124,-0.0237,0.4754,-2.5632,0.7734,-1.7486,-1.0290,-0.5896,
5.977291,0.2399,0.7464,-0.0208,0.4754,-2.5632,0.7734,-1.7486,-1.0290,-0.5896,
5.979432,0.2399,0.7464,-0.0208,0.4670,-2.2834,0.5077,-1.7486,-1.0290,-0.5896,
5.981122,0.2399,0.7464,-0.0208,0.4670,-2.2834,0.5077,-1.7801,-0.8442,-0.3579,
5.997786,0.1561,0.7617,0.0408,0.4670,-2.2834,0.5077,-1.7801,-0.8442,-0.3579,
5.999953,0.1561,0.7617,0.0408,-0.2761,-2.1655,0.8006,-1.7801,-0.8442,-0.3579,
6.001709,0.1561,0.7617,0.0408,-0.2761,-2.1655,0.8006,-1.6309,-0.5811,-0.0639,
6.017715,0.0647,0.8238,0.1317,-0.2761,-2.1655,0.8006,-1.6309,-0.5811,-0.0639,
6.019884,0.0647,0.8238,0.1317,-1.1563,-1.5679,1.3980,-1.6309,-0.5811,-0.0639,
6.021678,0.0647,0.8238,0.1317,-1.1563,-1.5679,1.3980,-0.9023,-0.1129,0.1795,
6.037221,0.0393,1.0119,-0.0239,-1.1563,-1.5679,1.3980,-0.9023,-0.1129,0.1795,
6.039498,0.0393,1.0119,-0.0239,-1.4398,0.2817,-0.2966,-0.9023,-0.1129,0.1795,
6.041316,0.0393,1.0119,-0.0239,-1.4398,0.2817,-0.2966,-0.4639,-0.0985,0.3734,
6.057199,0.0386,1.0503,-0.2766,-1.4398,0.2817,-0.2966,-0.4639,-0.0985,0.3734,
6.059325,0.0386,1.0503,-0.2766,-1.5189,0.6724,-2.8577,-0.4639,-0.0985,0.3734,
6.061078,0.0386,1.0503,-0.2766,-1.5189,0.6724,-2.8577,-0.7191,-0.0357,0.3025,
6.077924,0.0269,0.9794,-0.2436,-1.5189,0.6724,-2.8577,-0.7191,-0.0357,0.3025,
6.080203,0.0269,0.9794,-0.2436,-1.6921,-0.0071,-2.6713,-0.7191,-0.0357,0.3025,
6.082080,0.0269,0.9794,-0.2436,-1.6921,-0.0071,-2.6713,-1.4168,-0.1875,0.1619,
6.096604,0.0459,0.8998,0.0269,-1.6921,-0.0071,-2.6713,-1.4168,-0.1875,0.1619,
6.098790,0.0459,0.8998,0.0269,-1.5379,-0.7695,-0.2849,-1.4168,-0.1875,0.1619,
6.100615,0.0459,0.8998,0.0269,-1.5379,-0.7695,-0.2849,-1.9313,-0.6706,0.0905,
6.116959,0.1153,0.8727,0.1913,-1.5379,-0.7695,-0.2849,-1.9313,-0.6706,0.0905,
6.119355,0.1153,0.8727,0.1913,-0.8849,-1.0039,0.9843,-1.9313,-0.6706,0.0905,
6.121103,0.1153,0.8727,0.1913,-0.8849,-1.0039,0.9843,-1.7625,-0.6866,0.1891,
6.137618,0.2433,0.9325,0.0042,-0.8849,-1.0039,0.9843,-1.7625,-0.6866,0.1891,
6.139665,0.2433,0.9325,0.0042,0.3193,-0.3728,-1.1576,-1.7625,-0.6866,0.1891,
6.141327,0.2433,0.9325,0.0042,0.3193,-0.3728,-1.1576,-1.5974,-0.0341,0.2429,
6.157261,0.2966,1.0210,-0.1004,0.3193,-0.3728,-1.1576,-1.5974,-0.0341,0.2429,
6.159272,0.2966,1.0210,-0.1004,0.7943,0.5470,-2.4832,-1.5974,-0.0341,0.2429,
6.160885,0.2966,1.0210,-0.1004,0.7943,0.5470,-2.4832,-1.6022,0.6706,0.2541,
6.177239,0.1263,1.0918,0.0794,0.7943,0.5470,-2.4832,-1.6022,0.6706,0.2541,
6.179243,0.1263,1.0918,0.0794,-0.9000,1.3054,-1.0515,-1.6022,0.6706,0.2541,
6.180985,0.1263,1.0918,0.0794,-0.9000,1.3054,-1.0515,-1.0882,0.2264,0.3973,
6.197476,-0.0027,1.2819,0.1043,-0.9000,1.3054,-1.0515,-1.0882,0.2264,0.3973,
6.200284,-0.0027,1.2819,0.1043,-2.2296,3.2273,-1.0205,-1.0882,0.2264,0.3973,
6.201926,-0.0027,1.2819,0.1043,-2.2296,3.2273,-1.0205,-0.2903,-0.8203,0.5971,
6.216834,0.0276,1.4270,-0.0213,-2.2296,3.2273,-1.0205,-0.2903,-0.8203,0.5971,
6.219389,0.0276,1.4270,-0.0213,-2.0776,4.6886,-2.2678,-0.2903,-0.8203,0.5971,
6.221118,0.0276,1.4270,-0.0213,-2.0776,4.6886,-2.2678,-0.0586,-0.8581,0.5145,
6.236684,-0.0396,1.4094,-0.1600,-2.0776,4.6886,-2.2678,-0.0586,-0.8581,0.5145,
6.239216,-0.0396,1.4094,-0.1600,-2.8663,4.5434,-3.5972,-0.0586,-0.8581,0.5145,
6.240431,-0.0396,1.4094,-0.1600,-2.8663,4.5434,-3.5972,-0.3015,0.0485,0.1465,
6.257052,-0.1222,1.3686,0.1361,-2.8663,4.5434,-3.5972,-0.3015,0.0485,0.1465,
6.259275,-0.1222,1.3686,0.1361,-3.7007,4.1632,-0.7537,-0.3015,0.0485,0.1465,
6.260888,-0.1222,1.3686,0.1361,-3.7007,4.1632,-0.7537,0.0208,0.4069,-0.1369,
6.277207,-0.0198,1.5865,0.1705,-3.7007,4.1632,-0.7537,0.0208,0.4069,-0.1369,
6.279472,-0.0198,1.5865,0.1705,-2.6552,6.2912,-0.4324,0.0208,0.4069,-0.1369,
6.281252,-0.0198,1.5865,0.1705,-2.6552,6.2912,-0.4324,1.1414,0.1337,-0.3574,
6.296596,0.0994,1.2851,0.2074,-2.6552,6.2912,-0.4324,1.1414,0.1337,-0.3574,
6.298258,0.0994,1.2851,0.2074,-1.4152,3.2739,0.1342,1.1414,0.1337,-0.3574,
6.299141,0.0994,1.2851,0.2074,-1.4152,3.2739,0.1342,2.1343,0.0330,-0.4677,
6.319331,0.1783,1.0083,0.3420,-1.4152,3.2739,0.1342,2.1343,0.0330,-0.4677,
6.321155,0.1783,1.0083,0.3420,-0.5532,0.4668,1.8515,2.1343,0.0330,-0.4677,
6.322940,0.1783,1.0083,0.3420,-0.5532,0.4668,1.8515,2.7154,-0.3489,-0.2988,
6.336707,0.2436,0.9369,0.3472,-0.5532,0.4668,1.8515,2.7154,-0.3489,-0.2988,
6.338908,0.2436,0.9369,0.3472,0.1338,-0.3129,2.4300,2.7154,-0.3489,-0.2988,
6.340512,0.2436,0.9369,0.3472,0.1338,-0.3129,2.4300,3.2182,-0.1827,0.0389,
6.356759,0.4718,0.9787,0.1793,0.1338,-0.3129,2.4300,3.2182,-0.1827,0.0389,
6.358519,0.4718,0.9787,0.1793,2.3602,0.0557,1.4055,3.2182,-0.1827,0.0389,
6.360016,0.4718,0.9787,0.1793,2.3602,0.0557,1.4055,3.9772,-0.1385,0.3270,
6.376871,0.5692,1.0222,-0.0342,2.3602,0.0557,1.4055,3.9772,-0.1385,0.3270,
6.378904,0.5692,1.0222,-0.0342,3.2534,0.4992,0.0755,3.9772,-0.1385,0.3270,
6.380437,0.5692,1.0222,-0.0342,3.2534,0.4992,0.0755,3.7604,-0.5246,0.4900,
6.397505,0.6103,1.2772,-0.0726,3.2534,0.4992,0.0755,3.7604,-0.5246,0.4900,
6.399768,0.6103,1.2772,-0.0726,3.5710,3.0803,0.4357,3.7604,-0.5246,0.4900,
6.401303,0.6103,1.2772,-0.0726,3.5710,3.0803,0.4357,2.7468,-0.8810,0.4139,
6.417823,0.6516,1.3750,-0.0870,3.5710,3.0803,0.4357,2.7468,-0.8810,0.4139,
6.420382,0.6516,1.3750,-0.0870,3.9231,4.1364,0.8527,2.7468,-0.8810,0.4139,
6.421885,0.6516,1.3750,-0.0870,3.9231,4.1364,0.8527,2.3271,0.1475,0.4064,
6.436955,0.5768,1.1842,-0.1400,3.9231,4.1364,0.8527,2.3271,0.1475,0.4064,
6.439564,0.5768,1.1842,-0.1400,3.1095,2.3759,0.7570,2.3271,0.1475,0.4064,
6.441056,0.5768,1.1842,-0.1400,3.1095,2.3759,0.7570,2.8746,0.4336,0.3244,
6.457039,0.3286,1.0197,-0.3789,3.1095,2.3759,0.7570,2.8746,0.4336,0.3244,
6.459613,0.3286,1.0197,-0.3789,0.5972,0.9179,-1.0818,2.8746,0.4336,0.3244,
6.461228,0.3286,1.0197,-0.3789,0.5972,0.9179,-1.0818,2.8517,-0.1529,0.1832,
6.477106,0.1903,0.9594,-0.0787,0.5972,0.9179,-1.0818,2.8517,-0.1529,0.1832,
6.479198,0.1903,0.9594,-0.0787,-0.7820,0.5010,2.3811,2.8517,-0.1529,0.1832,
6.480940,0.1903,0.9594,-0.0787,-0.7820,0.5010,2.3811,2.1694,0.2392,0.0746,
6.497932,0.0625,0.7659,0.1732,-0.7820,0.5010,2.3811,2.1694,0.2392,0.0746,
6.500300,0.0625,0.7659,0.1732,-2.0632,-1.2468,5.2190,2.1694,0.2392,0.0746,
6.502150,0.0625,0.7659,0.1732,-2.0632,-1.2468,5.2190,2.1465,-0.6642,-0.0325,
6.517075,-0.0083,0.6525,0.1532,-2.0632,-1.2468,5.2190,2.1465,-0.6642,-0.0325,
6.519292,-0.0083,0.6525,0.1532,-2.7026,-2.1998,5.4293,2.1465,-0.6642,-0.0325,
6.521208,-0.0083,0.6525,0.1532,-2.7026,-2.1998,5.4293,2.3356,-1.1888,0.0053,
6.536233,0.1077,0.5514,0.0591,-2.7026,-2.1998,5.4293,2.3356,-1.1888,0.0053,
6.537800,0.1077,0.5514,0.0591,-1.4674,-2.9967,4.9654,2.3356,-1.1888,0.0053,
6.538512,0.1077,0.5514,0.0591,-1.4674,-2.9967,4.9654,2.4576,-0.4975,0.1438,
6.556871,0.2829,0.5793,-0.0533,-1.4674,-2.9967,4.9654,2.4576,-0.4975,0.1438,
6.558747,0.2829,0.5793,-0.0533,0.2711,-2.4908,4.2953,2.4576,-0.4975,0.1438,
6.560026,0.2829,0.5793,-0.0533,0.2711,-2.4908,4.2953,2.2930,0.9390,0.0197,
6.577022,0.2858,0.6091,0.0381,0.2711,-2.4908,4.2953,2.2930,0.9390,0.0197,
6.578916,0.2858,0.6091,0.0381,0.2032,-1.9696,5.5120,2.2930,0.9390,0.0197,
6.580097,0.2858,0.6091,0.0381,0.2032,-1.9696,5.5120,2.2371,2.1492,-0.2871,
6.596569,0.2714,0.5582,-0.1378,0.2032,-1.9696,5.5120,2.2371,2.1492,-0.2871,
6.598798,0.2714,0.5582,-0.1378,-0.1186,-2.2483,4.0224,2.2371,2.1492,-0.2871,
6.600603,0.2714,0.5582,-0.1378,-0.1186,-2.2483,4.0224,2.1508,2.4474,-0.5779,
6.617267,0.2783,0.4417,-0.3498,-0.1186,-2.2483,4.0224,2.1508,2.4474,-0.5779,
6.619400,0.2783,0.4417,-0.3498,-0.2310,-3.1885,2.1314,2.1508,2.4474,-0.5779,
6.620943,0.2783,0.4417,-0.3498,-0.2310,-3.1885,2.1314,1.5878,2.3196,-0.6589,
6.637210,0.3457,0.2665,-0.4361,-0.2310,-3.1885,2.1314,1.5878,2.3196,-0.6589,
6.639479,0.3457,0.2665,-0.4361,0.2682,-4.7674,1.3816,1.5878,2.3196,-0.6589,
6.641147,0.3457,0.2665,-0.4361,0.2682,-4.7674,1.3816,0.7531,1.9766,-0.7372,
6.656675,0.3181,0.1986,-0.5345,0.2682,-4.7674,1.3816,0.7531,1.9766,-0.7372,
6.658632,0.3181,0.1986,-0.5345,-0.1171,-5.3947,0.4021,0.7531,1.9766,-0.7372,
6.660265,0.3181,0.1986,-0.5345,-0.1171,-5.3947,0.4021,-0.2487,1.3763,-0.8682,
6.676785,0.2231,0.1539,-0.6323,-0.1171,-5.3947,0.4021,-0.2487,1.3763,-0.8682,
6.678884,0.2231,0.1539,-0.6323,-1.0737,-5.9168,-0.6815,-0.2487,1.3763,-0.8682,
6.680803,0.2231,0.1539,-0.6323,-1.0737,-5.9168,-0.6815,-1.2192,0.8298,-0.9167,
6.696463,0.2416,0.2238,-0.7906,-1.0737,-5.9168,-0.6815,-1.2192,0.8298,-0.9167,
6.698743,0.2416,0.2238,-0.7906,-0.8435,-5.4226,-2.4695,-1.2192,0.8298,-0.9167,
6.700644,0.2416,0.2238,-0.7906,-0.8435,-5.4226,-2.4695,-2.0187,0.3590,-0.7862,
6.716808,0.3560,0.5990,-0.8885,-0.8435,-5.4226,-2.4695,-2.0187,0.3590,-0.7862,
6.719355,0.3560,0.5990,-0.8885,0.3620,-2.0011,-3.7648,-2.0187,0.3590,-0.7862,
6.721294,0.3560,0.5990,-0.8885,0.3620,-2.0011,-3.7648,-2.4490,0.4075,-0.7228,
6.737081,0.2331,1.2140,-0.8856,0.3620,-2.0011,-3.7648,-2.4490,0.4075,-0.7228,
6.739299,0.2331,1.2140,-0.8856,-0.7653,3.7491,-4.1527,-2.4490,0.4075,-0.7228,
6.741091,0.2331,1.2140,-0.8856,-0.7653,3.7491,-4.1527,-2.0112,0.6871,-0.6029,
6.756461,0.5687,2.0258,-0.5641,-0.7653,3.7491,-4.1527,-2.0112,0.6871,-0.6029,
6.758455,0.5687,2.0258,-0.5641,2.5642,11.4941,-1.3753,-2.0112,0.6871,-0.6029,
6.760267,0.5687,2.0258,-0.5641,2.5642,11.4941,-1.3753,-0.5918,0.9428,0.3025,
6.776405,1.0012,1.7917,-0.0007,2.5642,11.4941,-1.3753,-0.5918,0.9428,0.3025,
6.778572,1.0012,1.7917,-0.0007,6.6747,9.1709,3.9890,-0.5918,0.9428,0.3025,
6.780097,1.0012,1.7917,-0.0007,6.6747,9.1709,3.9890,1.9164,2.7100,0.0394,
6.796514,0.4725,1.0019,-0.9227,6.6747,9.1709,3.9890,1.9164,2.7100,0.0394,
6.798690,0.4725,1.0019,-0.9227,1.2672,1.5885,-4.9047,1.9164,2.7100,0.0394,
6.800359,0.4725,1.0019,-0.9227,1.2672,1.5885,-4.9047,3.2565,3.2842,-0.2354,
6.816080,0.4837,0.6073,-1.4319,1.2672,1.5885,-4.9047,3.2565,3.2842,-0.2354,
6.818073,0.4837,0.6073,-1.4319,1.1340,-2.0154,-9.5958,3.2565,3.2842,-0.2354,
6.819743,0.4837,0.6073,-1.4319,1.1340,-2.0154,-9.5958,1.1745,0.2993,-0.2194,
6.836634,0.5797,1.0879,-0.6530,1.1340,-2.0154,-9.5958,1.1745,0.2993,-0.2194,
6.838925,0.5797,1.0879,-0.6530,2.0826,2.7841,-1.7989,1.1745,0.2993,-0.2194,
6.840594,0.5797,1.0879,-0.6530,2.0826,2.7841,-1.7989,-1.0855,-1.3753,0.5816,
6.856599,0.7813,1.3124,0.1813,2.0826,2.7841,-1.7989,-1.0855,-1.3753,0.5816,
6.858725,0.7813,1.3124,0.1813,4.0914,4.9270,6.3042,-1.0855,-1.3753,0.5816,
6.860179,0.7813,1.3124,0.1813,4.0914,4.9270,6.3042,-1.5105,-1.8264,0.6764,
6.876348,0.7337,0.8409,0.6535,4.0914,4.9270,6.3042,-1.5105,-1.8264,0.6764,
6.878376,0.7337,0.8409,0.6535,3.6798,0.2191,10.8207,-1.5105,-1.8264,0.6764,
6.880492,0.7337,0.8409,0.6535,3.6798,0.2191,10.8207,-1.2352,-3.9148,-0.2514,
6.896444,0.4449,0.5099,0.2057,3.6798,0.2191,10.8207,-1.2352,-3.9148,-0.2514,
6.897788,0.4449,0.5099,0.2057,1.2384,-3.1514,6.4919,-1.2352,-3.9148,-0.2514,
6.898583,0.4449,0.5099,0.2057,1.2384,-3.1514,6.4919,-0.8959,-2.2855,-0.6115,
6.915876,0.1493,0.4700,-0.4136,1.2384,-3.1514,6.4919,-0.8959,-2.2855,-0.6115,
6.917449,0.1493,0.4700,-0.4136,-1.3545,-3.6579,0.4114,-0.8959,-2.2855,-0.6115,
6.918953,0.1493,0.4700,-0.4136,-1.3545,-3.6579,0.4114,-0.8554,0.1784,-0.4037,
6.936377,0.0430,0.7302,-0.4327,-1.3545,-3.6579,0.4114,-0.8554,0.1784,-0.4037,
6.938507,0.0430,0.7302,-0.4327,-2.3447,-1.2055,0.0727,-0.8554,0.1784,-0.4037,
6.939978,0.0430,0.7302,-0.4327,-2.3447,-1.2055,0.0727,-2.1193,0.2509,0.3654,
6.956020,0.3430,0.8372,0.1075,-2.3447,-1.2055,0.0727,-2.1193,0.2509,0.3654,
6.957956,0.3430,0.8372,0.1075,0.5131,-0.3111,4.9948,-2.1193,0.2509,0.3654,
6.959282,0.3430,0.8372,0.1075,0.5131,-0.3111,4.9948,-3.3162,-1.7518,0.6487,
6.976067,0.3613,0.9626,0.4459,0.5131,-0.3111,4.9948,-3.3162,-1.7518,0.6487,
6.977952,0.3613,0.9626,0.4459,0.7106,0.7086,7.8395,-3.3162,-1.7518,0.6487,
6.979637,0.3613,0.9626,0.4459,0.7106,0.7086,7.8395,-3.4648,-3.1761,0.4410,
6.996135,0.1881,1.3146,0.4876,0.7106,0.7086,7.8395,-3.4648,-3.1761,0.4410,
6.997521,0.1881,1.3146,0.4876,-0.8584,3.9581,7.8140,-3.4648,-3.1761,0.4410,
6.998798,0.1881,1.3146,0.4876,-0.8584,3.9581,7.8140,-2.3585,-2.1524,0.2381,
7.016249,0.1329,1.3461,-0.0132,-0.8584,3.9581,7.8140,-2.3585,-2.1524,0.2381,
7.018656,0.1329,1.3461,-0.0132,-1.3184,4.1440,2.5972,-2.3585,-2.1524,0.2381,
7.020290,0.1329,1.3461,-0.0132,-1.3184,4.1440,2.5972,-1.3268,0.3776,-0.0266,
7.036140,0.1862,1.0295,-0.2932,-1.3184,4.1440,2.5972,-1.3268,0.3776,-0.0266,
7.039194,0.1862,1.0295,-0.2932,-0.8112,0.9709,-0.4069,-1.3268,0.3776,-0.0266,
7.040758,0.1862,1.0295,-0.2932,-0.8112,0.9709,-0.4069,-1.5350,1.8722,-0.4495,
7.055998,0.1676,0.7952,-0.2761,-0.8112,0.9709,-0.4069,-1.5350,1.8722,-0.4495,
7.058027,0.1676,0.7952,-0.2761,-0.9960,-1.4186,-0.6192,-1.5350,1.8722,-0.4495,
7.059959,0.1676,0.7952,-0.2761,-0.9960,-1.4186,-0.6192,-1.8552,0.9998,-0.6642,
7.075458,0.1625,0.7537,-0.1608,-0.9960,-1.4186,-0.6192,-1.8552,0.9998,-0.6642,
7.077777,0.1625,0.7537,-0.1608,-0.9612,-1.9300,0.1160,-1.8552,0.9998,-0.6642,
7.079706,0.1625,0.7537,-0.1608,-0.9612,-1.9300,0.1160,-2.0943,-0.6141,-0.6487,
7.095616,0.1776,0.7495,-0.0408,-0.9612,-1.9300,0.1160,-2.0943,-0.6141,-0.6487,
7.097811,0.1776,0.7495,-0.0408,-0.6730,-2.0660,0.9306,-2.0943,-0.6141,-0.6487,
7.099683,0.1776,0.7495,-0.0408,-0.6730,-2.0660,0.9306,-2.1699,-1.5244,-0.5694,
7.116434,0.0928,0.7283,-0.0296,-0.6730,-2.0660,0.9306,-2.1699,-1.5244,-0.5694,
7.118778,0.0928,0.7283,-0.0296,-1.3608,-2.3513,0.7022,-2.1699,-1.5244,-0.5694,
7.120544,0.0928,0.7283,-0.0296,-1.3608,-2.3513,0.7022,-2.0304,-1.3087,-0.3803,
7.136599,0.1178,0.7112,0.0281,-1.3608,-2.3513,0.7022,-2.0304,-1.3087,-0.3803,
7.139167,0.1178,0.7112,0.0281,-1.0228,-2.5694,0.9398,-2.0304,-1.3087,-0.3803,
7.140917,0.1178,0.7112,0.0281,-1.0228,-2.5694,0.9398,-1.9947,-0.7776,0.0075,
7.156138,0.0772,0.7969,0.2025,-1.0228,-2.5694,0.9398,-1.9947,-0.7776,0.0075,
7.158499,0.0772,0.7969,0.2025,-1.4140,-1.7482,2.3029,-1.9947,-0.7776,0.0075,
7.160316,0.0772,0.7969,0.2025,-1.4140,-1.7482,2.3029,-1.4243,-0.1055,0.2099,
7.176245,0.0037,0.9088,0.0814,-1.4140,-1.7482,2.3029,-1.4243,-0.1055,0.2099,
7.178501,0.0037,0.9088,0.0814,-2.1744,-0.6478,0.8479,-1.4243,-0.1055,0.2099,
7.180179,0.0037,0.9088,0.0814,-2.1744,-0.6478,0.8479,-0.7345,0.2690,0.3563,
7.196359,0.1346,1.0021,-0.2282,-2.1744,-0.6478,0.8479,-0.7345,0.2690,0.3563,
7.198876,0.1346,1.0021,-0.2282,-0.9588,0.2832,-2.3375,-0.7345,0.2690,0.3563,
7.200680,0.1346,1.0021,-0.2282,-0.9588,0.2832,-2.3375,-0.7601,0.2583,0.3771,
7.216819,0.1857,0.9916,-0.3003,-0.9588,0.2832,-2.3375,-0.7601,0.2583,0.3771,
7.219361,0.1857,0.9916,-0.3003,-0.5292,0.2003,-3.2003,-0.7601,0.2583,0.3771,
7.221081,0.1857,0.9916,-0.3003,-0.5292,0.2003,-3.2003,-1.4338,0.0937,0.1880,
7.236007,0.1962,0.8944,-0.0545,-0.5292,0.2003,-3.2003,-1.4338,0.0937,0.1880,
7.238175,0.1962,0.8944,-0.0545,-0.4613,-0.7323,-1.0686,-1.4338,0.0937,0.1880,
7.240186,0.1962,0.8944,-0.0545,-0.4613,-0.7323,-1.0686,-2.0474,-0.5465,0.0794,
7.256229,0.2509,0.8802,0.1131,-0.4613,-0.7323,-1.0686,-2.0474,-0.5465,0.0794,
7.258475,0.2509,0.8802,0.1131,0.0522,-0.8381,0.2125,-2.0474,-0.5465,0.0794,
7.260083,0.2509,0.8802,0.1131,0.0522,-0.8381,0.2125,-1.9862,-0.8123,0.1364,
7.275963,0.2617,0.9596,0.0007,0.0522,-0.8381,0.2125,-1.9862,-0.8123,0.1364,
7.277825,0.2617,0.9596,0.0007,0.1146,-0.0112,-1.2242,-1.9862,-0.8123,0.1364,
7.279614,0.2617,0.9596,0.0007,0.1146,-0.0112,-1.2242,-1.6799,-0.4107,0.2637,
7.295946,0.1947,1.0627,0.0020,0.1146,-0.0112,-1.2242,-1.6799,-0.4107,0.2637,
7.298071,0.1947,1.0627,0.0020,-0.6021,1.0585,-1.5066,-1.6799,-0.4107,0.2637,
7.299934,0.1947,1.0627,0.0020,-0.6021,1.0585,-1.5066,-1.3396,0.6205,0.3899,
7.315441,0.1043,1.2181,-0.0669,-0.6021,1.0585,-1.5066,-1.3396,0.6205,0.3899,
7.317068,0.1043,1.2181,-0.0669,-1.5400,2.6455,-2.4629,-1.3396,0.6205,0.3899,
7.318352,0.1043,1.2181,-0.0669,-1.5400,2.6455,-2.4629,-0.6461,0.7926,0.4053,
7.335646,-0.0183,1.3664,-0.1048,-1.5400,2.6455,-2.4629,-0.6461,0.7926,0.4053,
7.337889,-0.0183,1.3664,-0.1048,-2.7870,4.1441,-2.9944,-0.6461,0.7926,0.4053,
7.339738,-0.0183,1.3664,-0.1048,-2.7870,4.1441,-2.9944,-0.0378,-0.3127,0.3665,
7.355257,-0.0572,1.4331,-0.1107,-2.7870,4.1441,-2.9944,-0.0378,-0.3127,0.3665,
7.357507,-0.0572,1.4331,-0.1107,-3.2475,4.8185,-3.0423,-0.0378,-0.3127,0.3665,
7.359634,-0.0572,1.4331,-0.1107,-3.2475,4.8185,-3.0423,0.1076,-1.2176,0.1577,
7.375289,-0.0503,1.4013,-0.0371,-3.2475,4.8185,-3.0423,0.1076,-1.2176,0.1577,
7.376738,-0.0503,1.4013,-0.0371,-3.2560,4.5117,-2.2356,0.1076,-1.2176,0.1577,
7.377824,-0.0503,1.4013,-0.0371,-3.2560,4.5117,-2.2356,0.0772,-0.5582,-0.1838,
7.395925,0.0572,1.2990,0.2260,-3.2560,4.5117,-2.2356,0.0772,-0.5582,-0.1838,
7.398389,0.0572,1.2990,0.2260,-2.1893,3.4956,0.3879,0.0772,-0.5582,-0.1838,
7.400049,0.0572,1.2990,0.2260,-2.1893,3.4956,0.3879,0.7505,0.2743,-0.3036,
7.415917,0.1813,1.3713,0.1009,-2.1893,3.4956,0.3879,0.7505,0.2743,-0.3036,
7.417714,0.1813,1.3713,0.1009,-0.9073,4.1614,-0.7141,0.7505,0.2743,-0.3036,
7.419371,0.1813,1.3713,0.1009,-0.9073,4.1614,-0.7141,1.8605,0.5294,-0.4112,
7.435843,0.0880,1.1561,0.1737,-0.9073,4.1614,-0.7141,1.8605,0.5294,-0.4112,
7.438082,0.0880,1.1561,0.1737,-1.7290,1.9730,0.3179,1.8605,0.5294,-0.4112,
7.439604,0.0880,1.1561,0.1737,-1.7290,1.9730,0.3179,2.5183,0.3228,-0.3483,
7.455219,0.1842,0.9970,0.3789,-1.7290,1.9730,0.3179,2.5183,0.3228,-0.3483,
7.457277,0.1842,0.9970,0.3789,-0.7129,0.3385,2.7847,2.5183,0.3228,-0.3483,
7.459022,0.1842,0.9970,0.3789,-0.7129,0.3385,2.7847,3.3369,-0.4432,0.1710,
7.475937,0.4153,1.0344,0.2748,-0.7129,0.3385,2.7847,3.3369,-0.4432,0.1710,
7.478030,0.4153,1.0344,0.2748,1.5145,0.6733,2.4165,3.3369,-0.4432,0.1710,
7.479731,0.4153,1.0344,0.2748,1.5145,0.6733,2.4165,3.9899,-0.7297,0.3686,
7.495938,0.5206,1.0874,0.1007,1.5145,0.6733,2.4165,3.9899,-0.7297,0.3686,
7.497907,0.5206,1.0874,0.1007,2.4785,1.2214,1.5008,3.9899,-0.7297,0.3686,
7.499574,0.5206,1.0874,0.1007,2.4785,1.2214,1.5008,3.7023,-0.9790,0.2354,
7.515301,0.5773,1.2706,-0.0002,2.4785,1.2214,1.5008,3.7023,-0.9790,0.2354,
7.517506,0.5773,1.2706,-0.0002,3.0071,3.0950,1.2578,3.7023,-0.9790,0.2354,
7.519097,0.5773,1.2706,-0.0002,3.0071,3.0950,1.2578,2.7718,-0.9683,0.2285,
7.535777,0.7442,1.3596,-0.0191,3.0071,3.0950,1.2578,2.7718,-0.9683,0.2285,
7.537838,0.7442,1.3596,-0.0191,4.6297,4.0640,1.6398,2.7718,-0.9683,0.2285,
7.539412,0.7442,1.3596,-0.0191,4.6297,4.0640,1.6398,2.6264,0.8442,0.5220,
7.555107,0.7004,1.2421,-0.1451,4.6297,4.0640,1.6398,2.6264,0.8442,0.5220,
7.557166,0.7004,1.2421,-0.1451,4.0708,3.0482,0.8409,2.6264,0.8442,0.5220,
7.558744,0.7004,1.2421,-0.1451,4.0708,3.0482,0.8409,3.2262,1.4141,0.6392,
7.575738,0.5709,0.9672,-0.4569,4.0708,3.0482,0.8409,3.2262,1.4141,0.6392,
7.577876,0.5709,0.9672,-0.4569,2.6158,0.5533,-1.7145,3.2262,1.4141,0.6392,
7.579620,0.5709,0.9672,-0.4569,2.6158,0.5533,-1.7145,3.4014,0.4165,0.5886,
7.595082,0.4007,0.8795,-0.4940,2.6158,0.5533,-1.7145,3.4014,0.4165,0.5886,
7.596748,0.4007,0.8795,-0.4940,0.8183,-0.0634,-1.5061,3.4014,0.4165,0.5886,
7.597906,0.4007,0.8795,-0.4940,0.8183,-0.0634,-1.5061,2.5992,-0.5113,0.4778,
7.614758,0.1632,0.7964,-0.1151,0.8183,-0.0634,-1.5061,2.5992,-0.5113,0.4778,
7.616808,0.1632,0.7964,-0.1151,-1.5543,-0.6619,2.6849,2.5992,-0.5113,0.4778,
7.618653,0.1632,0.7964,-0.1151,-1.5543,-0.6619,2.6849,1.7966,-0.5683,0.1949,
7.635356,-0.0393,0.6626,0.0931,-1.5543,-0.6619,2.6849,1.7966,-0.5683,0.1949,
7.637421,-0.0393,0.6626,0.0931,-3.5265,-1.8189,5.0612,1.7966,-0.5683,0.1949,
7.639259,-0.0393,0.6626,0.0931,-3.5265,-1.8189,5.0612,1.6805,-1.1963,0.0517,
7.655656,-0.0103,0.5692,0.1759,-3.5265,-1.8189,5.0612,1.6805,-1.1963,0.0517,
7.657885,-0.0103,0.5692,0.1759,-3.1469,-2.5853,6.2230,1.6805,-1.1963,0.0517,
7.659822,-0.0103,0.5692,0.1759,-3.1469,-2.5853,6.2230,1.9361,-1.0642,0.1747,
7.675501,0.2125,0.5849,0.0950,-3.1469,-2.5853,6.2230,1.9361,-1.0642,0.1747,
7.677044,0.2125,0.5849,0.0950,-0.8920,-2.2405,5.8063,1.9361,-1.0642,0.1747,
7.678070,0.2125,0.5849,0.0950,-0.8920,-2.2405,5.8063,2.1827,0.1630,0.2104,
7.694860,0.3264,0.5653,0.0897,-0.8920,-2.2405,5.8063,2.1827,0.1630,0.2104,
7.697201,0.3264,0.5653,0.0897,0.1743,-2.1994,6.0866,2.1827,0.1630,0.2104,
7.698918,0.3264,0.5653,0.0897,0.1743,-2.1994,6.0866,2.1806,1.5489,-0.1017,
7.715741,0.3083,0.4986,-0.0413,0.1743,-2.1994,6.0866,2.1806,1.5489,-0.1017,
7.717512,0.3083,0.4986,-0.0413,-0.1520,-2.6275,5.0394,2.1806,1.5489,-0.1017,
7.719371,0.3083,0.4986,-0.0413,-0.1520,-2.6275,5.0394,2.1529,1.9548,-0.3968,
7.735339,0.3699,0.4058,-0.2399,-0.1520,-2.6275,5.0394,2.1529,1.9548,-0.3968,
7.737450,0.3699,0.4058,-0.2399,0.2936,-3.3247,3.2846,2.1529,1.9548,-0.3968,
7.739198,0.3699,0.4058,-0.2399,0.2936,-3.3247,3.2846,1.7156,2.1747,-0.5657,
7.755231,0.3941,0.2626,-0.4048,0.2936,-3.3247,3.2846,1.7156,2.1747,-0.5657,
7.757028,0.3941,0.2626,-0.4048,0.3654,-4.5716,1.7677,1.7156,2.1747,-0.5657,
7.758699,0.3941,0.2626,-0.4048,0.3654,-4.5716,1.7677,0.9960,2.1518,-0.7377,
7.774689,0.3323,0.2055,-0.5727,0.3654,-4.5716,1.7677,0.9960,2.1518,-0.7377,
7.776872,0.3323,0.2055,-0.5727,-0.3816,-5.0705,0.1111,0.9960,2.1518,-0.7377,
7.778738,0.3323,0.2055,-0.5727,-0.3816,-5.0705,0.1111,0.0181,1.8456,-0.9316,
7.795668,0.2602,0.1730,-0.7146,-0.3816,-5.0705,0.1111,0.0181,1.8456,-0.9316,
7.797998,0.2602,0.1730,-0.7146,-1.1641,-5.4553,-1.4129,0.0181,1.8456,-0.9316,
7.800188,0.2602,0.1730,-0.7146,-1.1641,-5.4553,-1.4129,-1.0887,1.3199,-1.0115,
7.814522,0.2709,0.2094,-0.8585,-1.1641,-5.4553,-1.4129,-1.0887,1.3199,-1.0115,
7.816195,0.2709,0.2094,-0.8585,-1.0563,-5.2922,-3.0784,-1.0887,1.3199,-1.0115,
7.817795,0.2709,0.2094,-0.8585,-1.0563,-5.2922,-3.0784,-2.0810,0.6653,-0.9444,
7.834861,0.4239,0.5614,-0.8722,-1.0563,-5.2922,-3.0784,-2.0810,0.6653,-0.9444,
7.837329,0.4239,0.5614,-0.8722,0.5152,-2.1260,-3.5727,-2.0810,0.6653,-0.9444,
7.839187,0.4239,0.5614,-0.8722,0.5152,-2.1260,-3.5727,-2.6392,0.4378,-0.8059,
7.854259,0.4363,1.2548,-0.8192,0.5152,-2.1260,-3.5727,-2.6392,0.4378,-0.8059,
7.856220,0.4363,1.2548,-0.8192,0.7210,4.3605,-3.4945,-2.6392,0.4378,-0.8059,
7.857884,0.4363,1.2548,-0.8192,0.7210,4.3605,-3.4945,-2.2834,0.3505,-0.7318,
7.874295,0.7019,2.0983,-0.5148,0.7210,4.3605,-3.4945,-2.2834,0.3505,-0.7318,
7.876298,0.7019,2.0983,-0.5148,3.4110,12.3784,-0.9039,-2.2834,0.3505,-0.7318,
7.878565,0.7019,2.0983,-0.5148,3.4110,12.3784,-0.9039,-0.8490,-0.0234,0.2077,
7.894185,1.1856,1.7585,0.0511,3.4110,12.3784,-0.9039,-0.8490,-0.0234,0.2077,
7.895679,1.1856,1.7585,0.0511,8.1194,8.9935,4.5036,-0.8490,-0.0234,0.2077,
7.896526,1.1856,1.7585,0.0511,8.1194,8.9935,4.5036,1.6522,2.1476,0.2802,
7.914803,0.6083,0.9921,-0.8990,8.1194,8.9935,4.5036,1.6522,2.1476,0.2802,
7.916706,0.6083,0.9921,-0.8990,2.2418,1.6372,-4.6929,1.6522,2.1476,0.2802,
7.918411,0.6083,0.9921,-0.8990,2.2418,1.6372,-4.6929,3.8179,3.5079,-0.1198,
7.934000,0.4994,0.5008,-1.6254,2.2418,1.6372,-4.6929,3.8179,3.5079,-0.1198,
7.935815,0.4994,0.5008,-1.6254,0.8930,-2.8603,-11.4770,3.8179,3.5079,-0.1198,
7.936654,0.4994,0.5008,-1.6254,0.8930,-2.8603,-11.4770,1.6006,0.9561,-0.2727,
7.954346,0.5724,0.9183,-0.7085,0.8930,-2.8603,-11.4770,1.6006,0.9561,-0.2727,
7.955428,0.5724,0.9183,-0.7085,1.5642,1.3546,-2.3219,1.6006,0.9561,-0.2727,
7.956129,0.5724,0.9183,-0.7085,1.5642,1.3546,-2.3219,-1.1867,-0.8740,0.2748,
7.974627,0.6696,1.1854,0.0513,1.5642,1.3546,-2.3219,-1.1867,-0.8740,0.2748,
7.976230,0.6696,1.1854,0.0513,2.5546,3.8854,5.0122,-1.1867,-0.8740,0.2748,
7.977493,0.6696,1.1854,0.0513,2.5546,3.8854,5.0122,-1.9532,-2.0624,0.5300,
7.994153,0.8321,0.7058,0.6994,2.5546,3.8854,5.0122,-1.9532,-2.0624,0.5300,
7.995909,0.8321,0.7058,0.6994,4.2469,-0.9456,11.2230,-1.9532,-2.0624,0.5300,
7.997322,0.8321,0.7058,0.6994,4.2469,-0.9456,11.2230,-1.9814,-4.1929,0.0378,
8.014320,0.5802,0.5595,0.0669,4.2469,-0.9456,11.2230,-1.9814,-4.1929,0.0378,
8.015943,0.5802,0.5595,0.0669,2.1385,-2.5498,5.0221,-1.9814,-4.1929,0.0378,
8.017261,0.5802,0.5595,0.0669,2.1385,-2.5498,5.0221,-1.3247,-3.2933,-0.3489,
8.034635,0.3643,0.5001,-0.2660,2.1385,-2.5498,5.0221,-1.3247,-3.2933,-0.3489,
8.036649,0.3643,0.5001,-0.2660,0.3657,-3.2707,1.7664,-1.3247,-3.2933,-0.3489,
8.038345,0.3643,0.5001,-0.2660,0.3657,-3.2707,1.7664,-0.9609,-0.5204,-0.3393,
8.054307,0.1158,0.7845,-0.3779,0.3657,-3.2707,1.7664,-0.9609,-0.5204,-0.3393,
8.056462,0.1158,0.7845,-0.3779,-1.9686,-0.5880,0.5448,-0.9609,-0.5204,-0.3393,
8.058113,0.1158,0.7845,-0.3779,-1.9686,-0.5880,0.5448,-1.7172,0.5401,0.2439,
8.074404,0.3452,0.9254,-0.0261,-1.9686,-0.5880,0.5448,-1.7172,0.5401,0.2439,
8.076349,0.3452,0.9254,-0.0261,0.1949,0.6686,3.6727,-1.7172,0.5401,0.2439,
8.077798,0.3452,0.9254,-0.0261,0.1949,0.6686,3.6727,-3.0461,-0.9763,0.5928,
8.094989,0.3415,0.9186,0.4874,0.1949,0.6686,3.6727,-3.0461,-0.9763,0.5928,
8.097040,0.3415,0.9186,0.4874,0.1306,0.4142,8.2506,-3.0461,-0.9763,0.5928,
8.098790,0.3415,0.9186,0.4874,0.1306,0.4142,8.2506,-3.6597,-2.7324,0.1641,
8.114042,0.0503,1.2914,0.5648,0.1306,0.4142,8.2506,-3.6597,-2.7324,0.1641,
8.116369,0.0503,1.2914,0.5648,-2.5750,3.8412,8.5454,-3.6597,-2.7324,0.1641,
8.118160,0.0503,1.2914,0.5648,-2.5750,3.8412,8.5454,-2.8230,-3.0264,-0.1784,
8.134671,-0.1300,1.3149,-0.0730,-2.5750,3.8412,8.5454,-2.8230,-3.0264,-0.1784,
8.136924,-0.1300,1.3149,-0.0730,-4.1379,3.8997,1.9714,-2.8230,-3.0264,-0.1784,
8.138616,-0.1300,1.3149,-0.0730,-4.1379,3.8997,1.9714,-1.6506,-0.7611,-0.2258,
8.154658,0.2091,1.0459,-0.1920,-4.1379,3.8997,1.9714,-1.6506,-0.7611,-0.2258,
8.156854,0.2091,1.0459,-0.1920,-0.7351,1.1666,0.5507,-1.6506,-0.7611,-0.2258,
8.158531,0.2091,1.0459,-0.1920,-0.7351,1.1666,0.5507,-1.5281,1.8733,-0.4144,
8.174693,0.2746,0.8121,-0.1446,-0.7351,1.1666,0.5507,-1.5281,1.8733,-0.4144,
8.176780,0.2746,0.8121,-0.1446,-0.1018,-1.2160,0.6325,-1.5281,1.8733,-0.4144,
8.178621,0.2746,0.8121,-0.1446,-0.1018,-1.2160,0.6325,-1.6149,1.0828,-0.6099,
8.194918,0.2573,0.7317,-0.1212,-0.1018,-1.2160,0.6325,-1.6149,1.0828,-0.6099,
8.197225,0.2573,0.7317,-0.1212,-0.1998,-2.0977,0.5050,-1.6149,1.0828,-0.6099,
8.199048,0.2573,0.7317,-0.1212,-0.1998,-2.0977,0.5050,-1.7295,-0.3627,-0.6221,
8.214998,0.2648,0.7200,-0.1180,-0.1998,-2.0977,0.5050,-1.7295,-0.3627,-0.6221,
8.218128,0.2648,0.7200,-0.1180,0.0012,-2.2988,0.2339,-1.7295,-0.3627,-0.6221,
8.219878,0.2648,0.7200,-0.1180,0.0012,-2.2988,0.2339,-1.8940,-1.0855,-0.5135,
8.234564,0.2033,0.6982,-0.0491,0.0012,-2.2988,0.2339,-1.8940,-1.0855,-0.5135,
8.236588,0.2033,0.6982,-0.0491,-0.4791,-2.5848,0.6090,-1.8940,-1.0855,-0.5135,
8.238469,0.2033,0.6982,-0.0491,-0.4791,-2.5848,0.6090,-1.9979,-0.7334,-0.3222,
8.254332,0.1244,0.7271,-0.0496,-0.4791,-2.5848,0.6090,-1.9979,-0.7334,-0.3222,
8.256331,0.1244,0.7271,-0.0496,-1.1780,-2.3546,0.2623,-1.9979,-0.7334,-0.3222,
8.258150,0.1244,0.7271,-0.0496,-1.1780,-2.3546,0.2623,-1.8317,-0.5108,-0.0368,
8.274109,0.1094,0.8228,0.0909,-1.1780,-2.3546,0.2623,-1.8317,-0.5108,-0.0368,
8.276541,0.1094,0.8228,0.0909,-1.3111,-1.4393,1.3164,-1.8317,-0.5108,-0.0368,
8.278318,0.1094,0.8228,0.0909,-1.3111,-1.4393,1.3164,-1.3316,-0.4863,0.2381,
8.294605,0.0366,1.0031,-0.0181,-1.3111,-1.4393,1.3164,-1.3316,-0.4863,0.2381,
8.296959,0.0366,1.0031,-0.0181,-2.0668,0.3308,0.0190,-1.3316,-0.4863,0.2381,
8.298826,0.0366,1.0031,-0.0181,-2.0668,0.3308,0.0190,-0.6051,-0.5183,0.3659,
8.314824,0.0872,1.0669,-0.2521,-2.0668,0.3308,0.0190,-0.6051,-0.5183,0.3659,
8.316865,0.0872,1.0669,-0.2521,-1.6389,0.9718,-2.3638,-0.6051,-0.5183,0.3659,
8.318793,0.0872,1.0669,-0.2521,-1.6389,0.9718,-2.3638,-0.5364,-0.4895,0.3318,
8.334109,0.1109,0.9789,-0.3200,-1.6389,0.9718,-2.3638,-0.5364,-0.4895,0.3318,
8.336141,0.1109,0.9789,-0.3200,-1.4689,0.1259,-3.1063,-0.5364,-0.4895,0.3318,
8.337930,0.1109,0.9789,-0.3200,-1.4689,0.1259,-3.1063,-1.0855,-0.1619,0.2439,
8.354052,0.1876,0.9010,-0.0953,-1.4689,0.1259,-3.1063,-1.0855,-0.1619,0.2439,
8.356359,0.1876,0.9010,-0.0953,-0.7634,-0.6238,-1.1002,-1.0855,-0.1619,0.2439,
8.358370,0.1876,0.9010,-0.0953,-0.7634,-0.6238,-1.1002,-1.7119,-0.0554,0.2232,
8.373626,0.2663,0.8514,0.0621,-0.7634,-0.6238,-1.1002,-1.7119,-0.0554,0.2232,
8.376005,0.2663,0.8514,0.0621,-0.0349,-1.0870,0.1219,-1.7119,-0.0554,0.2232,
8.377669,0.2663,0.8514,0.0621,-0.0349,-1.0870,0.1219,-1.8530,-0.2913,0.2322,
8.393973,0.2621,0.8543,-0.0401,-0.0349,-1.0870,0.1219,-1.8530,-0.2913,0.2322,
8.396152,0.2621,0.8543,-0.0401,-0.1231,-1.0217,-1.2119,-1.8530,-0.2913,0.2322,
8.398040,0.2621,0.8543,-0.0401,-0.1231,-1.0217,-1.2119,-1.8131,-0.1198,0.2077,
8.413774,0.2016,0.9042,0.0381,-0.1231,-1.0217,-1.2119,-1.8131,-0.1198,0.2077,
8.416303,0.2016,0.9042,0.0381,-0.7580,-0.4864,-0.7784,-1.8131,-0.1198,0.2077,
8.418133,0.2016,0.9042,0.0381,-0.7580,-0.4864,-0.7784,-1.6346,0.6205,0.2653,
8.434086,0.2108,1.0508,0.0227,-0.7580,-0.4864,-0.7784,-1.6346,0.6205,0.2653,
8.436695,0.2108,1.0508,0.0227,-0.7000,1.0078,-1.2673,-1.6346,0.6205,0.2653,
8.438544,0.2108,1.0508,0.0227,-0.7000,1.0078,-1.2673,-0.8922,0.6993,0.4740,
8.453553,0.2169,1.2733,-0.1014,-0.7000,1.0078,-1.2673,-0.8922,0.6993,0.4740,
8.455881,0.2169,1.2733,-0.1014,-0.7056,3.2437,-2.6876,-0.8922,0.6993,0.4740,
8.457689,0.2169,1.2733,-0.1014,-0.7056,3.2437,-2.6876,-0.2413,-0.0149,0.5380,
8.473727,0.1112,1.3593,-0.0735,-0.7056,3.2437,-2.6876,-0.2413,-0.0149,0.5380,
8.476141,0.1112,1.3593,-0.0735,-1.8419,4.1257,-2.4582,-0.2413,-0.0149,0.5380,
8.477867,0.1112,1.3593,-0.0735,-1.8419,4.1257,-2.4582,-0.2216,-0.9209,0.3409,
8.493755,0.0989,1.3903,-0.0002,-1.8419,4.1257,-2.4582,-0.2216,-0.9209,0.3409,
8.496005,0.0989,1.3903,-0.0002,-2.0559,4.4577,-1.7258,-0.2216,-0.9209,0.3409,
8.497694,0.0989,1.3903,-0.0002,-2.0559,4.4577,-1.7258,-0.3041,-0.8639,0.0123,
8.513417,0.1498,1.3576,0.2844,-2.0559,4.4577,-1.7258,-0.3041,-0.8639,0.0123,
8.515717,0.1498,1.3576,0.2844,-1.5899,4.1481,1.0603,-0.3041,-0.8639,0.0123,
8.517344,0.1498,1.3576,0.2844,-1.5899,4.1481,1.0603,0.0916,-0.1827,-0.3494,
8.533912,0.1478,1.4348,0.2094,-1.5899,4.1481,1.0603,0.0916,-0.1827,-0.3494,
8.535855,0.1478,1.4348,0.2094,-1.5514,4.8804,0.3531,0.0916,-0.1827,-0.3494,
8.537400,0.1478,1.4348,0.2094,-1.5514,4.8804,0.3531,1.1175,0.1065,-0.5459,
8.554016,0.1566,1.3144,0.1942,-1.5514,4.8804,0.3531,1.1175,0.1065,-0.5459,
8.556162,0.1566,1.3144,0.1942,-1.3614,3.6323,0.4039,1.1175,0.1065,-0.5459,
8.557785,0.1566,1.3144,0.1942,-1.3614,3.6323,0.4039,2.0794,0.4501,-0.5438,
8.574063,0.1717,1.1143,0.3599,-1.3614,3.6323,0.4039,2.0794,0.4501,-0.5438,
8.576296,0.1717,1.1143,0.3599,-1.1001,1.5858,2.3878,2.0794,0.4501,-0.5438,
8.577942,0.1717,1.1143,0.3599,-1.1001,1.5858,2.3878,2.9593,-0.4985,-0.0218,
8.593705,0.3933,1.0332,0.2966,-1.1001,1.5858,2.3878,2.9593,-0.4985,-0.0218,
8.595126,0.3933,1.0332,0.2966,1.0671,0.7395,2.3482,2.9593,-0.4985,-0.0218,
8.595942,0.3933,1.0332,0.2966,1.0671,0.7395,2.3482,3.8078,-1.2634,0.4442,
8.614102,0.5653,0.8727,-0.0513,1.0671,0.7395,2.3482,3.8078,-1.2634,0.4442,
8.616161,0.5653,0.8727,-0.0513,2.6653,-0.8210,-0.2769,3.8078,-1.2634,0.4442,
8.617947,0.5653,0.8727,-0.0513,2.6653,-0.8210,-0.2769,3.8451,-1.4626,0.5768,
8.633696,0.7972,0.9753,-0.1116,2.6653,-0.8210,-0.2769,3.8451,-1.4626,0.5768,
8.636051,0.7972,0.9753,-0.1116,4.8482,0.2663,-0.0669,3.8451,-1.4626,0.5768,
8.637583,0.7972,0.9753,-0.1116,4.8482,0.2663,-0.0669,2.8778,-0.9843,0.4911,
8.653463,1.0884,1.1824,-0.0476,4.8482,0.2663,-0.0669,2.8778,-0.9843,0.4911,
8.655513,1.0884,1.1824,-0.0476,7.6375,2.4020,1.1507,2.8778,-0.9843,0.4911,
8.657065,1.0884,1.1824,-0.0476,7.6375,2.4020,1.1507,2.1193,-0.4123,0.0889,
8.673482,0.5257,1.2474,-0.0076,7.6375,2.4020,1.1507,2.1193,-0.4123,0.0889,
8.675612,0.5257,1.2474,-0.0076,2.1224,3.1214,1.9551,2.1193,-0.4123,0.0889,
8.677184,0.5257,1.2474,-0.0076,2.1224,3.1214,1.9551,2.4309,0.4442,0.1827,
8.693862,0.3865,1.1062,-0.3049,2.1224,3.1214,1.9551,2.4309,0.4442,0.1827,
8.696048,0.3865,1.1062,-0.3049,0.7049,1.8572,-0.5469,2.4309,0.4442,0.1827,
8.697769,0.3865,1.1062,-0.3049,0.7049,1.8572,-0.5469,3.0083,0.0399,0.4357,
8.714345,0.2599,1.0537,-0.4637,0.7049,1.8572,-0.5469,3.0083,0.0399,0.4357,
8.716318,0.2599,1.0537,-0.4637,-0.6148,1.5321,-1.5720,3.0083,0.0399,0.4357,
8.718197,0.2599,1.0537,-0.4637,-0.6148,1.5321,-1.5720,2.6786,-0.0453,0.3404,
8.733574,0.2221,1.0061,-0.1007,-0.6148,1.5321,-1.5720,2.6786,-0.0453,0.3404,
8.735523,0.2221,1.0061,-0.1007,-1.0421,1.2586,2.4544,2.6786,-0.0453,0.3404,
8.737278,0.2221,1.0061,-0.1007,-1.0421,1.2586,2.4544,2.1076,0.2115,0.2035,
8.753442,0.0796,0.8006,0.0618,-1.0421,1.2586,2.4544,2.1076,0.2115,0.2035,
8.755486,0.0796,0.8006,0.0618,-2.4878,-0.5898,4.3912,2.1076,0.2115,0.2035,
8.757256,0.0796,0.8006,0.0618,-2.4878,-0.5898,4.3912,2.0240,-0.7414,-0.0165,
8.772922,0.0721,0.6393,0.0779,-2.4878,-0.5898,4.3912,2.0240,-0.7414,-0.0165,
8.775242,0.0721,0.6393,0.0779,-2.5004,-2.0103,4.9346,2.0240,-0.7414,-0.0165,
8.777007,0.0721,0.6393,0.0779,-2.5004,-2.0103,4.9346,2.0533,-1.2927,0.0442,
8.793131,0.2446,0.5421,0.0794,-2.5004,-2.0103,4.9346,2.0533,-1.2927,0.0442,
8.795522,0.2446,0.5421,0.0794,-0.7042,-2.7807,5.3664,2.0533,-1.2927,0.0442,
8.797249,0.2446,0.5421,0.0794,-0.7042,-2.7807,5.3664,2.2291,-0.5486,0.1534,
8.813499,0.4390,0.5275,-0.0188,-0.7042,-2.7807,5.3664,2.2291,-0.5486,0.1534,
8.815926,0.4390,0.5275,-0.0188,1.2296,-2.7021,4.7928,2.2291,-0.5486,0.1534,
8.817566,0.4390,0.5275,-0.0188,1.2296,-2.7021,4.7928,2.2243,0.9273,-0.0202,
8.833377,0.4273,0.5060,-0.0247,1.2296,-2.7021,4.7928,2.2243,0.9273,-0.0202,
8.835430,0.4273,0.5060,-0.0247,1.0229,-2.6864,5.0225,2.2243,0.9273,-0.0202,
8.837115,0.4273,0.5060,-0.0247,1.0229,-2.6864,5.0225,2.1231,1.8834,-0.1886,
8.853728,0.3384,0.4942,-0.1463,1.0229,-2.6864,5.0225,2.1231,1.8834,-0.1886,
8.855964,0.3384,0.4942,-0.1463,-0.0219,-2.5863,4.0274,2.1231,1.8834,-0.1886,
8.857800,0.3384,0.4942,-0.1463,-0.0219,-2.5863,4.0274,1.9526,1.8472,-0.4959,
8.873642,0.3589,0.4033,-0.3166,-0.0219,-2.5863,4.0274,1.9526,1.8472,-0.4959,
8.875861,0.3589,0.4033,-0.3166,0.0474,-3.2944,2.5193,1.9526,1.8472,-0.4959,
8.877736,0.3589,0.4033,-0.3166,0.0474,-3.2944,2.5193,1.3848,1.7891,-0.6296,
8.893046,0.3371,0.2436,-0.4410,0.0474,-3.2944,2.5193,1.3848,1.7891,-0.6296,
8.895019,0.3371,0.2436,-0.4410,-0.2774,-4.7481,1.3736,1.3848,1.7891,-0.6296,
8.896713,0.3371,0.2436,-0.4410,-0.2774,-4.7481,1.3736,0.5689,1.4312,-0.7436,
8.912620,0.2626,0.1644,-0.5226,-0.2774,-4.7481,1.3736,0.5689,1.4312,-0.7436,
8.913863,0.2626,0.1644,-0.5226,-1.0642,-5.5128,0.5517,0.5689,1.4312,-0.7436,
8.915042,0.2626,0.1644,-0.5226,-1.0642,-5.5128,0.5517,-0.3941,1.0008,-0.7989,
8.933494,0.1969,0.1461,-0.6325,-1.0642,-5.5128,0.5517,-0.3941,1.0008,-0.7989,
8.936620,0.1969,0.1461,-0.6325,-1.7058,-5.7947,-0.6549,-0.3941,1.0008,-0.7989,
8.938083,0.1969,0.1461,-0.6325,-1.7058,-5.7947,-0.6549,-1.3827,0.4799,-0.7340,
8.953042,0.1959,0.2016,-0.7024,-1.7058,-5.7947,-0.6549,-1.3827,0.4799,-0.7340,
8.955409,0.1959,0.2016,-0.7024,-1.6600,-5.4538,-1.5765,-1.3827,0.4799,-0.7340,
8.957243,0.1959,0.2016,-0.7024,-1.6600,-5.4538,-1.5765,-2.2951,0.0096,-0.5571,
8.973505,0.4285,0.4676,-0.8067,-1.6600,-5.4538,-1.5765,-2.2951,0.0096,-0.5571,
8.976006,0.4285,0.4676,-0.8067,0.7024,-3.1210,-2.9460,-2.2951,0.0096,-0.5571,
8.977842,0.4285,0.4676,-0.8067,0.7024,-3.1210,-2.9460,-2.7622,0.1917,-0.5513,
8.993362,0.5450,1.1033,-0.8094,0.7024,-3.1210,-2.9460,-2.7622,0.1917,-0.5513,
8.995481,0.5450,1.1033,-0.8094,1.9127,2.8095,-3.4186,-2.7622,0.1917,-0.5513,
8.997075,0.5450,1.1033,-0.8094,1.9127,2.8095,-3.4186,-2.4485,0.1704,-0.7702,
9.012786,0.6164,1.9928,-0.8003,1.9127,2.8095,-3.4186,-2.4485,0.1704,-0.7702,
9.015007,0.6164,1.9928,-0.8003,2.7224,11.2640,-3.7396,-2.4485,0.1704,-0.7702,
9.016668,0.6164,1.9928,-0.8003,2.7224,11.2640,-3.7396,-1.1356,-0.2178,-0.0639,
9.033258,1.1113,1.9755,-0.2128,2.7224,11.2640,-3.7396,-1.1356,-0.2178,-0.0639,
9.035650,1.1113,1.9755,-0.2128,7.6011,10.9988,1.8444,-1.1356,-0.2178,-0.0639,
9.037378,1.1113,1.9755,-0.2128,7.6011,10.9988,1.8444,1.3811,1.8109,0.1539,
9.052419,1.1113,1.9755,-0.2128,7.6011,10.9988,1.8444,3.3540,2.9092,-0.0543,
9.072398,0.2577,0.4024,-1.4172,7.6011,10.9988,1.8444,3.3540,2.9092,-0.0543,
9.073950,0.2577,0.4024,-1.4172,-1.1689,-4.0200,-9.5179,3.3540,2.9092,-0.0543,
9.075308,0.2577,0.4024,-1.4172,-1.1689,-4.0200,-9.5179,1.6682,0.4783,-0.1087,
9.092890,0.2577,0.4024,-1.4172,-1.1689,-4.0200,-9.5179,-0.6349,-0.1523,-0.0362,
9.113044,0.8514,0.9777,-0.1055,-1.1689,-4.0200,-9.5179,-0.6349,-0.1523,-0.0362,
9.115448,0.8514,0.9777,-0.1055,4.6428,1.6994,3.4761,-0.6349,-0.1523,-0.0362,
9.116993,0.8514,0.9777,-0.1055,4.6428,1.6994,3.4761,-1.4727,-0.9774,0.4623,
9.132716,0.8514,0.9777,-0.1055,4.6428,1.6994,3.4761,-1.8062,-2.9875,0.2674,
9.152972,1.0666,0.7610,0.5988,4.6428,1.6994,3.4761,-1.8062,-2.9875,0.2674,
9.155139,1.0666,0.7610,0.5988,6.9797,-0.6569,10.1409,-1.8062,-2.9875,0.2674,
9.156939,1.0666,0.7610,0.5988,6.9797,-0.6569,10.1409,-1.6501,-4.2749,-0.1992,
9.173287,1.0666,0.7610,0.5988,6.9797,-0.6569,10.1409,-0.5273,-0.5081,-0.1390,
9.192617,0.1590,0.5954,-0.3579,6.9797,-0.6569,10.1409,-0.5273,-0.5081,-0.1390,
9.195115,0.1590,0.5954,-0.3579,-1.4772,-2.4870,0.7000,-0.5273,-0.5081,-0.1390,
9.196942,0.1590,0.5954,-0.3579,-1.4772,-2.4870,0.7000,-0.9167,0.2322,0.1619,
9.213500,0.1590,0.5954,-0.3579,-1.4772,-2.4870,0.7000,-2.3015,-0.3148,0.2589,
9.232551,0.2446,0.8404,0.1451,-1.4772,-2.4870,0.7000,-2.3015,-0.3148,0.2589,
9.235773,0.2446,0.8404,0.1451,-0.7049,-0.3123,5.0931,-2.3015,-0.3148,0.2589,
9.237702,0.2446,0.8404,0.1451,-0.7049,-0.3123,5.0931,-3.3146,-2.3228,0.1529,
9.252282,0.2446,0.8404,0.1451,-0.7049,-0.3123,5.0931,-3.2421,-3.1633,-0.1635,
9.273102,0.0611,1.4336,0.2375,-0.7049,-0.3123,5.0931,-3.2421,-3.1633,-0.1635,
9.276720,0.0611,1.4336,0.2375,-2.1478,5.0738,5.1681,-3.2421,-3.1633,-0.1635,
9.278670,0.0611,1.4336,0.2375,-2.1478,5.0738,5.1681,-2.3143,-1.8562,-0.3798,
9.293066,0.0611,1.4336,0.2375,-2.1478,5.0738,5.1681,-1.7934,0.2296,-0.6493,
9.313256,0.3371,0.9183,-0.2548,-2.1478,5.0738,5.1681,-1.7934,0.2296,-0.6493,
9.315381,0.3371,0.9183,-0.2548,0.8270,-0.2428,-0.3501,-1.7934,0.2296,-0.6493,
9.317105,0.3371,0.9183,-0.2548,0.8270,-0.2428,-0.3501,-1.8488,0.1135,-1.0163,
9.332370,0.3371,0.9183,-0.2548,0.8270,-0.2428,-0.3501,-2.1540,-1.7247,-1.1867,
9.353169,0.1976,0.6335,-0.0305,0.8270,-0.2428,-0.3501,-2.1540,-1.7247,-1.1867,
9.356023,0.1976,0.6335,-0.0305,-0.0760,-3.2769,1.1675,-2.1540,-1.7247,-1.1867,
9.357971,0.1976,0.6335,-0.0305,-0.0760,-3.2769,1.1675,-2.6887,-2.8863,-0.9401,
9.372775,0.1976,0.6335,-0.0305,-0.0760,-3.2769,1.1675,-2.7878,-2.6701,-0.4948,
9.392620,0.1444,0.6335,0.3005,-0.0760,-3.2769,1.1675,-2.7878,-2.6701,-0.4948,
9.395736,0.1444,0.6335,0.3005,-0.2063,-3.4437,3.5635,-2.7878,-2.6701,-0.4948,
9.397525,0.1444,0.6335,0.3005,-0.2063,-3.4437,3.5635,-2.1247,-1.1159,0.0479,
9.412431,0.1444,0.6335,0.3005,-0.2063,-3.4437,3.5635,-1.2591,0.5641,0.3771,
9.432556,-0.0112,0.9010,0.0222,-0.2063,-3.4437,3.5635,-1.2591,0.5641,0.3771,
9.434885,-0.0112,0.9010,0.0222,-1.8051,-0.8292,0.2008,-1.2591,0.5641,0.3771,
9.436617,-0.0112,0.9010,0.0222,-1.8051,-0.8292,0.2008,-0.7856,0.7984,0.5183,
9.452564,-0.0112,0.9010,0.0222,-1.8051,-0.8292,0.2008,-0.9097,-0.3739,0.4932,
9.472645,0.1109,1.1800,-0.1940,-1.8051,-0.8292,0.2008,-0.9097,-0.3739,0.4932,
9.476077,0.1109,1.1800,-0.1940,-0.7790,1.9422,-2.2327,-0.9097,-0.3739,0.4932,
9.478012,0.1109,1.1800,-0.1940,-0.7790,1.9422,-2.2327,-1.0349,-1.1041,0.2898,
9.492214,0.1109,1.1800,-0.1940,-0.7790,1.9422,-2.2327,-1.4514,-0.9326,0.0144,
9.512268,0.2243,0.8944,-0.0892,-0.7790,1.9422,-2.2327,-1.4514,-0.9326,0.0144,
9.515948,0.2243,0.8944,-0.0892,0.2593,-0.8224,-1.5745,-1.4514,-0.9326,0.0144,
9.517824,0.2243,0.8944,-0.0892,0.2593,-0.8224,-1.5745,-1.7619,-0.4623,-0.0256,
9.532749,0.2243,0.8944,-0.0892,0.2593,-0.8224,-1.5745,-1.6522,-0.1470,0.0288,
9.552250,0.1923,0.8353,-0.0432,0.2593,-0.8224,-1.5745,-1.6522,-0.1470,0.0288,
9.556252,0.1923,0.8353,-0.0432,-0.0661,-1.3340,-1.7430,-1.6522,-0.1470,0.0288,
9.558577,0.1923,0.8353,-0.0432,-0.0661,-1.3340,-1.7430,-1.5100,0.1459,0.1380,
9.572539,0.1923,0.8353,-0.0432,-0.0661,-1.3340,-1.7430,-1.2112,0.3718,0.3419,
9.592255,0.1647,1.2071,0.1102,-0.0661,-1.3340,-1.7430,-1.2112,0.3718,0.3419,
9.595560,0.1647,1.2071,0.1102,-0.4010,2.4055,-0.7355,-1.2112,0.3718,0.3419,
9.597617,0.1647,1.2071,0.1102,-0.4010,2.4055,-0.7355,-0.6195,-0.3047,0.4021,
9.613818,0.1647,1.2071,0.1102,-0.4010,2.4055,-0.7355,-0.3292,-0.9918,0.2136,
9.632068,0.2402,1.3124,0.0796,-0.4010,2.4055,-0.7355,-0.3292,-0.9918,0.2136,
9.634677,0.2402,1.3124,0.0796,0.1737,3.4988,-1.1577,-0.3292,-0.9918,0.2136,
9.636586,0.2402,1.3124,0.0796,0.1737,3.4988,-1.1577,-0.3665,-1.0679,-0.2328,
9.651916,0.2402,1.3124,0.0796,0.1737,3.4988,-1.1577,-0.6093,-0.8309,-0.7526,
9.672180,0.4346,0.9325,-0.0755,0.1737,3.4988,-1.1577,-0.6093,-0.8309,-0.7526,
9.674636,0.4346,0.9325,-0.0755,2.1884,-0.2278,-2.7772,-0.6093,-0.8309,-0.7526,
9.676366,0.4346,0.9325,-0.0755,2.1884,-0.2278,-2.7772,-0.6333,-0.9619,-0.8810,
9.692375,0.4346,0.9325,-0.0755,2.1884,-0.2278,-2.7772,0.1284,-1.7204,-0.5646,
9.712502,0.4371,1.2931,0.1752,2.1884,-0.2278,-2.7772,0.1284,-1.7204,-0.5646,
9.715719,0.4371,1.2931,0.1752,2.3720,3.2699,-0.3102,0.1284,-1.7204,-0.5646,
9.717285,0.4371,1.2931,0.1752,2.3720,3.2699,-0.3102,1.2245,-2.0783,-0.2344,
9.732192,0.4371,1.2931,0.1752,2.3720,3.2699,-0.3102,1.6954,-1.5649,-0.1742,
9.752414,-0.0293,1.0361,0.4698,2.3720,3.2699,-0.3102,1.6954,-1.5649,-0.1742,
9.754003,-0.0293,1.0361,0.4698,-2.2468,0.6379,3.2702,1.6954,-1.5649,-0.1742,
9.755213,-0.0293,1.0361,0.4698,-2.2468,0.6379,3.2702,2.6126,-1.7129,0.1486,
9.772384,-0.0293,1.0361,0.4698,-2.2468,0.6379,3.2702,3.7172,-1.8653,0.5417,
9.792355,0.4605,1.2337,0.1666,-2.2468,0.6379,3.2702,3.7172,-1.8653,0.5417,
9.794594,0.4605,1.2337,0.1666,2.3718,2.5207,1.6531,3.7172,-1.8653,0.5417,
9.796431,0.4605,1.2337,0.1666,2.3718,2.5207,1.6531,3.8483,-2.1130,0.5385,
9.813316,0.4605,1.2337,0.1666,2.3718,2.5207,1.6531,2.9471,-1.7321,0.5848,
9.832202,1.0151,1.2455,-0.0572,2.3718,2.5207,1.6531,2.9471,-1.7321,0.5848,
9.834370,1.0151,1.2455,-0.0572,7.6520,2.7873,0.9208,2.9471,-1.7321,0.5848,
9.836013,1.0151,1.2455,-0.0572,7.6520,2.7873,0.9208,2.4155,0.3089,0.5092,
9.852231,1.0151,1.2455,-0.0572,7.6520,2.7873,0.9208,3.0200,0.9012,0.6860,
9.872470,0.5978,0.9311,-0.5580,7.6520,2.7873,0.9208,3.0200,0.9012,0.6860,
9.874830,0.5978,0.9311,-0.5580,3.2913,-0.0229,-3.0379,3.0200,0.9012,0.6860,
9.876796,0.5978,0.9311,-0.5580,3.2913,-0.0229,-3.0379,3.1937,-0.4005,1.2235,
9.892164,0.5978,0.9311,-0.5580,3.2913,-0.0229,-3.0379,2.3233,-1.6054,1.3603,
9.911606,0.2551,0.8421,-0.2978,3.2913,-0.0229,-3.0379,2.3233,-1.6054,1.3603,
9.915021,0.2551,0.8421,-0.2978,-0.4004,-0.4262,0.6080,2.3233,-1.6054,1.3603,
9.916940,0.2551,0.8421,-0.2978,-0.4004,-0.4262,0.6080,1.1505,-2.5055,1.1920,
9.932164,0.2551,0.8421,-0.2978,-0.4004,-0.4262,0.6080,0.7446,-2.2536,0.6562,
9.952128,-0.0098,0.5866,0.4395,-0.4004,-0.4262,0.6080,0.7446,-2.2536,0.6562,
9.955792,-0.0098,0.5866,0.4395,-2.9465,-2.6790,8.4328,0.7446,-2.2536,0.6562,
9.957808,-0.0098,0.5866,0.4395,-2.9465,-2.6790,8.4328,1.4615,-1.7891,0.4639,
9.972475,-0.0098,0.5866,0.4395,-2.9465,-2.6790,8.4328,2.2456,-0.4687,0.6163,
9.992188,0.2722,0.3753,-0.0252,-2.9465,-2.6790,8.4328,2.2456,-0.4687,0.6163,
9.994484,0.2722,0.3753,-0.0252,-0.1642,-4.3546,4.6154,2.2456,-0.4687,0.6163,
9.996196,0.2722,0.3753,-0.0252,-0.1642,-4.3546,4.6154,2.3867,1.0472,0.5736,
10.011868,0.2722,0.3753,-0.0252,-0.1642,-4.3546,4.6154,2.1279,1.7827,0.3547,
10.032548,0.3784,0.5064,-0.4999,-0.1642,-4.3546,4.6154,2.1279,1.7827,0.3547,
10.034872,0.3784,0.5064,-0.4999,0.4396,-2.5493,0.4910,2.1279,1.7827,0.3547,
10.036538,0.3784,0.5064,-0.4999,0.4396,-2.5493,0.4910,1.5862,1.4248,-0.0240,
10.051023,0.3784,0.5064,-0.4999,0.4396,-2.5493,0.4910,0.5694,1.1606,-0.3249,
10.070553,0.3266,0.2780,-0.5475,0.4396,-2.5493,0.4910,0.5694,1.1606,-0.3249,
10.072423,0.3266,0.2780,-0.5475,-0.3005,-4.5762,0.1671,0.5694,1.1606,-0.3249,
10.074106,0.3266,0.2780,-0.5475,-0.3005,-4.5762,0.1671,-0.3228,0.7196,-0.5555,
10.090393,0.3266,0.2780,-0.5475,-0.3005,-4.5762,0.1671,-1.1377,0.2455,-0.7521,
10.110614,0.1771,0.2643,-0.6332,-0.3005,-4.5762,0.1671,-1.1377,0.2455,-0.7521,
10.112674,0.1771,0.2643,-0.6332,-1.6772,-4.9578,-0.9574,-1.1377,0.2455,-0.7521,
10.113927,0.1771,0.2643,-0.6332,-1.6772,-4.9578,-0.9574,-1.8759,-0.0778,-0.8756,
10.130923,0.1771,0.2643,-0.6332,-1.6772,-4.9578,-0.9574,-2.4043,-0.1459,-0.9497,
10.150733,0.2700,0.8001,-0.9122,-1.6772,-4.9578,-0.9574,-2.4043,-0.1459,-0.9497,
10.153307,0.2700,0.8001,-0.9122,-0.4606,-0.2467,-4.3453,-2.4043,-0.1459,-0.9497,
10.155548,0.2700,0.8001,-0.9122,-0.4606,-0.2467,-4.3453,-2.4091,-0.0607,-0.9316,
10.170814,0.2700,0.8001,-0.9122,-0.4606,-0.2467,-4.3453,-1.5995,-0.7659,-0.4362,
10.190904,0.9457,1.9667,-0.4124,-0.4606,-0.2467,-4.3453,-1.5995,-0.7659,-0.4362,
10.193199,0.9457,1.9667,-0.4124,6.4561,10.7619,-0.0639,-1.5995,-0.7659,-0.4362,
10.195073,0.9457,1.9667,-0.4124,6.4561,10.7619,-0.0639,0.1332,0.5151,0.2716,
10.212021,0.9457,1.9667,-0.4124,6.4561,10.7619,-0.0639,2.9817,2.9710,0.1752,
10.231774,0.6049,0.6750,-1.0112,6.4561,10.7619,-0.0639,2.9817,2.9710,0.1752,
10.233939,0.6049,0.6750,-1.0112,2.7548,-1.6134,-5.6211,2.9817,2.9710,0.1752,
10.235753,0.6049,0.6750,-1.0112,2.7548,-1.6134,-5.6211,2.7931,2.1130,0.1092,
10.250625,0.6049,0.6750,-1.0112,2.7548,-1.6134,-5.6211,0.4123,0.7148,0.1257,
10.270549,1.1460,0.9000,-0.0884,2.7548,-1.6134,-5.6211,0.4123,0.7148,0.1257,
10.272674,1.1460,0.9000,-0.0884,7.7670,0.8932,3.7519,0.4123,0.7148,0.1257,
10.274025,1.1460,0.9000,-0.0884,7.7670,0.8932,3.7519,-1.3151,-0.9422,0.7904,
10.291330,1.1460,0.9000,-0.0884,7.7670,0.8932,3.7519,-1.4227,-3.4291,0.5444,
10.311466,0.6569,0.4722,0.3032,7.7670,0.8932,3.7519,-1.4227,-3.4291,0.5444,
10.315470,0.6569,0.4722,0.3032,3.1189,-3.4520,7.4286,-1.4227,-3.4291,0.5444,
10.317272,0.6569,0.4722,0.3032,3.1189,-3.4520,7.4286,-1.0093,-3.1665,0.2013,
10.330799,0.6569,0.4722,0.3032,3.1189,-3.4520,7.4286,-0.3910,0.1039,0.1976,
10.350977,0.0816,0.6648,-0.7427,3.1189,-3.4520,7.4286,-0.3910,0.1039,0.1976,
10.353102,0.0816,0.6648,-0.7427,-2.3332,-1.6578,-2.8550,-0.3910,0.1039,0.1976,
10.355079,0.0816,0.6648,-0.7427,-2.3332,-1.6578,-2.8550,-1.5420,-0.4831,0.0948,
10.370702,0.0816,0.6648,-0.7427,-2.3332,-1.6578,-2.8550,-3.4339,-2.8256,0.4554,
10.390362,0.4928,0.7962,0.3452,-2.3332,-1.6578,-2.8550,-3.4339,-2.8256,0.4554,
10.392441,0.4928,0.7962,0.3452,1.8713,-0.7433,7.1762,-3.4339,-2.8256,0.4554,
10.394066,0.4928,0.7962,0.3452,1.8713,-0.7433,7.1762,-4.3244,-4.3426,0.5401,
10.411737,0.4928,0.7962,0.3452,1.8713,-0.7433,7.1762,-3.8344,-3.9564,0.2471,
10.431260,0.1542,1.4478,0.3684,1.8713,-0.7433,7.1762,-3.8344,-3.9564,0.2471,
10.433205,0.1542,1.4478,0.3684,-1.0364,5.1462,6.4260,-3.8344,-3.9564,0.2471,
10.434963,0.1542,1.4478,0.3684,-1.0364,5.1462,6.4260,-2.6200,-1.5872,0.0288,
10.450170,0.1542,1.4478,0.3684,-1.0364,5.1462,6.4260,-1.6996,0.2786,-0.1193,
10.470922,0.0919,1.0395,-0.1700,-1.0364,5.1462,6.4260,-1.6996,0.2786,-0.1193,
10.473057,0.0919,1.0395,-0.1700,-1.5562,0.9209,0.4000,-1.6996,0.2786,-0.1193,
10.474392,0.0919,1.0395,-0.1700,-1.5562,0.9209,0.4000,-1.4046,0.7111,-0.5145,
10.490884,0.0919,1.0395,-0.1700,-1.5562,0.9209,0.4000,-1.6943,0.3462,-0.7739,
10.511925,0.2096,0.7571,-0.2287,-1.5562,0.9209,0.4000,-1.6943,0.3462,-0.7739,
10.514988,0.2096,0.7571,-0.2287,-0.2005,-2.0167,-0.8117,-1.6943,0.3462,-0.7739,
10.517453,0.2096,0.7571,-0.2287,-0.2005,-2.0167,-0.8117,-2.0650,-0.6003,-0.8224,
10.530471,0.2096,0.7571,-0.2287,-0.2005,-2.0167,-0.8117,-2.3436,-1.3545,-0.7904,
10.550754,0.4444,0.7170,0.0432,-0.2005,-2.0167,-0.8117,-2.3436,-1.3545,-0.7904,
10.553637,0.4444,0.7170,0.0432,2.4451,-2.5684,1.0952,-2.3436,-1.3545,-0.7904,
10.555253,0.4444,0.7170,0.0432,2.4451,-2.5684,1.0952,-2.3622,-1.3369,-0.7302,
10.571280,0.4444,0.7170,0.0432,2.4451,-2.5684,1.0952,-1.9643,-1.1867,-0.6008,
10.591108,0.1383,0.7639,0.2800,2.4451,-2.5684,1.0952,-1.9643,-1.1867,-0.6008,
10.593277,0.1383,0.7639,0.2800,-0.2838,-2.1818,2.6716,-1.9643,-1.1867,-0.6008,
10.595251,0.1383,0.7639,0.2800,-0.2838,-2.1818,2.6716,-1.6959,0.5534,-0.0602,
10.612339,0.1383,0.7639,0.2800,-0.2838,-2.1818,2.6716,-1.1201,-0.5720,0.2477,
10.629791,0.1378,0.9482,-0.1165,-0.2838,-2.1818,2.6716,-1.1201,-0.5720,0.2477,
10.632585,0.1378,0.9482,-0.1165,-0.3278,-0.3505,-1.7569,-1.1201,-0.5720,0.2477,
10.635036,0.1378,0.9482,-0.1165,-0.3278,-0.3505,-1.7569,-0.6743,-0.6013,0.4064,
10.650134,0.1378,0.9482,-0.1165,-0.3278,-0.3505,-1.7569,-0.8852,-0.2178,0.3595,
10.670401,0.1029,0.9188,-0.2084,-0.3278,-0.3505,-1.7569,-0.8852,-0.2178,0.3595,
10.672703,0.1029,0.9188,-0.2084,-0.8288,-0.5881,-2.9243,-0.8852,-0.2178,0.3595,
10.674647,0.1029,0.9188,-0.2084,-0.8288,-0.5881,-2.9243,-1.4077,-0.3329,0.3244,
10.690639,0.1029,0.9188,-0.2084,-0.8288,-0.5881,-2.9243,-1.8823,-0.5843,0.2951,
10.710165,0.2069,0.9648,-0.0147,-0.8288,-0.5881,-2.9243,-1.8823,-0.5843,0.2951,
10.712505,0.2069,0.9648,-0.0147,0.0523,-0.0420,-1.5858,-1.8823,-0.5843,0.2951,
10.714408,0.2069,0.9648,-0.0147,0.0523,-0.0420,-1.5858,-1.8988,-0.3111,0.2312,
10.730503,0.2069,0.9648,-0.0147,0.0523,-0.0420,-1.5858,-1.5191,0.0810,0.1944,
10.750125,0.0806,1.0715,0.0496,0.0523,-0.0420,-1.5858,-1.5191,0.0810,0.1944,
10.752877,0.0806,1.0715,0.0496,-1.2472,1.1181,-1.5095,-1.5191,0.0810,0.1944,
10.755040,0.0806,1.0715,0.0496,-1.2472,1.1181,-1.5095,-1.0978,0.2386,0.2866,
10.770478,0.0806,1.0715,0.0496,-1.2472,1.1181,-1.5095,-0.7446,0.1651,0.2759,
10.790910,0.2348,1.3249,-0.0437,-1.2472,1.1181,-1.5095,-0.7446,0.1651,0.2759,
10.793142,0.2348,1.3249,-0.0437,0.1763,3.7044,-2.7843,-0.7446,0.1651,0.2759,
10.795127,0.2348,1.3249,-0.0437,0.1763,3.7044,-2.7843,-0.4762,-0.1827,0.1135,
10.809818,0.2348,1.3249,-0.0437,0.1763,3.7044,-2.7843,-0.2759,-0.5678,-0.0932,
10.830377,0.2531,1.2144,-0.1644,0.1763,3.7044,-2.7843,-0.2759,-0.5678,-0.0932,
10.832346,0.2531,1.2144,-0.1644,0.3155,2.6593,-4.0738,-0.2759,-0.5678,-0.0932,
10.833940,0.2531,1.2144,-0.1644,0.3155,2.6593,-4.0738,-0.2589,-0.4437,-0.3329,
10.850139,0.2531,1.2144,-0.1644,0.3155,2.6593,-4.0738,0.1577,-0.5124,-0.2668,
10.869706,0.3166,1.2257,0.2209,0.3155,2.6593,-4.0738,0.1577,-0.5124,-0.2668,
10.871950,0.3166,1.2257,0.2209,1.0016,2.7490,-0.2763,0.1577,-0.5124,-0.2668,
10.873763,0.3166,1.2257,0.2209,1.0016,2.7490,-0.2763,1.3625,-0.9790,-0.0985,
10.890711,0.3166,1.2257,0.2209,1.0016,2.7490,-0.2763,2.1215,-0.8959,-0.1348,
10.910673,0.1363,1.0749,0.4146,1.0016,2.7490,-0.2763,2.1215,-0.8959,-0.1348,
10.912770,0.1363,1.0749,0.4146,-0.8011,1.1177,2.3519,2.1215,-0.8959,-0.1348,
10.914478,0.1363,1.0749,0.4146,-0.8011,1.1177,2.3519,2.9023,-0.8719,0.0682,
10.930291,0.1363,1.0749,0.4146,-0.8011,1.1177,2.3519,3.6592,-0.9390,0.2578,
10.949728,0.4891,1.1531,0.1610,-0.8011,1.1177,2.3519,3.6592,-0.9390,0.2578,
10.952286,0.4891,1.1531,0.1610,2.5554,1.7606,1.1893,3.6592,-0.9390,0.2578,
10.953759,0.4891,1.1531,0.1610,2.5554,1.7606,1.1893,3.9548,-1.2389,0.2418,
10.970025,0.4891,1.1531,0.1610,2.5554,1.7606,1.1893,3.1803,-1.2831,0.2402,
10.990557,1.0324,1.2894,-0.0342,2.5554,1.7606,1.1893,3.1803,-1.2831,0.2402,
10.992445,1.0324,1.2894,-0.0342,7.8081,3.1676,0.7477,3.1803,-1.2831,0.2402,
10.993937,1.0324,1.2894,-0.0342,7.8081,3.1676,0.7477,2.4799,-0.0964,0.1454,
11.010071,1.0324,1.2894,-0.0342,7.8081,3.1676,0.7477,2.7329,1.0530,0.5300,
11.030180,0.6362,0.9765,-0.3139,7.8081,3.1676,0.7477,2.7329,1.0530,0.5300,
11.032171,0.6362,0.9765,-0.3139,3.7636,0.2955,-1.0628,2.7329,1.0530,0.5300,
11.033823,0.6362,0.9765,-0.3139,3.7636,0.2955,-1.0628,3.3439,0.0527,0.9049,
11.049866,0.6362,0.9765,-0.3139,3.7636,0.2955,-1.0628,2.9130,-1.1388,0.9960,
11.069899,0.3213,0.9354,-0.3498,3.7636,0.2955,-1.0628,2.9130,-1.1388,0.9960,
11.072116,0.3213,0.9354,-0.3498,0.3972,0.3175,-0.2221,2.9130,-1.1388,0.9960,
11.073582,0.3213,0.9354,-0.3498,0.3972,0.3175,-0.2221,1.7433,-1.5729,0.9566,
11.089811,0.3213,0.9354,-0.3498,0.3972,0.3175,-0.2221,1.1819,-1.6224,0.4101,
11.109472,-0.0129,0.6753,0.3027,0.3972,0.3175,-0.2221,1.1819,-1.6224,0.4101,
11.111534,-0.0129,0.6753,0.3027,-2.8904,-1.9576,6.8393,1.1819,-1.6224,0.4101,
11.113304,-0.0129,0.6753,0.3027,-2.8904,-1.9576,6.8393,1.4823,-2.0954,0.2477,
11.130051,-0.0129,0.6753,0.3027,-2.8904,-1.9576,6.8393,2.0533,-1.3380,0.3542,
11.150130,0.2546,0.4007,0.0596,-2.8904,-1.9576,6.8393,2.0533,-1.3380,0.3542,
11.153159,0.2546,0.4007,0.0596,-0.0813,-4.3147,5.2337,2.0533,-1.3380,0.3542,
11.155303,0.2546,0.4007,0.0596,-0.0813,-4.3147,5.2337,2.2014,0.1843,0.2972,
11.170001,0.2546,0.4007,0.0596,-0.0813,-4.3147,5.2337,2.1870,2.0560,0.1310,
11.190597,0.2946,0.4371,-0.1312,-0.0813,-4.3147,5.2337,2.1870,2.0560,0.1310,
11.194425,0.2946,0.4371,-0.1312,0.0149,-3.4998,3.9434,2.1870,2.0560,0.1310,
11.196562,0.2946,0.4371,-0.1312,0.0149,-3.4998,3.9434,2.2046,2.2674,-0.1395,
11.210589,0.2946,0.4371,-0.1312,0.0149,-3.4998,3.9434,1.5952,2.0959,-0.4405,
11.229855,0.3139,0.2519,-0.5238,0.0149,-3.4998,3.9434,1.5952,2.0959,-0.4405,
11.231873,0.3139,0.2519,-0.5238,-0.1798,-4.9413,0.4042,1.5952,2.0959,-0.4405,
11.233690,0.3139,0.2519,-0.5238,-0.1798,-4.9413,0.4042,0.6567,1.7603,-0.6999,
11.250114,0.3139,0.2519,-0.5238,-0.1798,-4.9413,0.4042,-0.3190,1.3273,-0.8442,
11.270257,0.2446,0.1952,-0.8284,-0.1798,-4.9413,0.4042,-0.3190,1.3273,-0.8442,
11.273954,0.2446,0.1952,-0.8284,-0.9699,-5.5617,-2.7367,-0.3190,1.3273,-0.8442,
11.276267,0.2446,0.1952,-0.8284,-0.9699,-5.5617,-2.7367,-1.2810,0.8293,-0.9800,
11.289121,0.2446,0.1952,-0.8284,-0.9699,-5.5617,-2.7367,-2.2637,0.3334,-1.0088,
11.309410,0.3323,0.8771,-1.1241,-0.9699,-5.5617,-2.7367,-2.2637,0.3334,-1.0088,
11.311728,0.3323,0.8771,-1.1241,0.0762,0.6797,-6.1780,-2.2637,0.3334,-1.0088,
11.313297,0.3323,0.8771,-1.1241,0.0762,0.6797,-6.1780,-2.3452,0.2093,-0.8091,
11.329662,0.3323,0.8771,-1.1241,0.0762,0.6797,-6.1780,-1.1835,0.0703,-0.0799,
11.349339,1.2323,1.6950,-0.0188,0.0762,0.6797,-6.1780,-1.1835,0.0703,-0.0799,
11.351886,1.2323,1.6950,-0.0188,9.0140,8.3200,4.0644,-1.1835,0.0703,-0.0799,
11.353561,1.2323,1.6950,-0.0188,9.0140,8.3200,4.0644,0.8677,2.0544,0.2445,
11.369381,1.2323,1.6950,-0.0188,9.0140,8.3200,4.0644,2.8565,2.8688,0.0352,
11.390025,0.6750,0.5756,-1.1939,9.0140,8.3200,4.0644,2.8565,2.8688,0.0352,
11.393672,0.6750,0.5756,-1.1939,3.0805,-2.3078,-7.1731,2.8565,2.8688,0.0352,
11.396052,0.6750,0.5756,-1.1939,3.0805,-2.3078,-7.1731,1.8488,1.6336,0.0788,
11.410022,0.6750,0.5756,-1.1939,3.0805,-2.3078,-7.1731,-0.1598,-0.1646,0.3015,
11.428677,0.8585,1.2469,-0.3799,3.0805,-2.3078,-7.1731,-0.1598,-0.1646,0.3015,
11.430338,0.8585,1.2469,-0.3799,4.6844,4.4548,0.9640,-0.1598,-0.1646,0.3015,
11.431222,0.8585,1.2469,-0.3799,4.6844,4.4548,0.9640,-1.5473,-1.9020,0.6024,
11.449143,0.8585,1.2469,-0.3799,4.6844,4.4548,0.9640,-1.8743,-3.3577,0.1518,
11.469533,0.7380,0.6147,0.4163,4.6844,4.4548,0.9640,-1.8743,-3.3577,0.1518,
11.472948,0.7380,0.6147,0.4163,3.8674,-2.0002,8.6030,-1.8743,-3.3577,0.1518,
11.474865,0.7380,0.6147,0.4163,3.8674,-2.0002,8.6030,-1.4903,-3.5489,-0.5183,
11.489557,0.7380,0.6147,0.4163,3.8674,-2.0002,8.6030,-1.3310,-1.2948,-0.4687,
11.509777,0.0701,0.5617,-0.4510,3.8674,-2.0002,8.6030,-1.3310,-1.2948,-0.4687,
11.512931,0.0701,0.5617,-0.4510,-2.0851,-2.8313,-0.0604,-1.3310,-1.2948,-0.4687,
11.515147,0.0701,0.5617,-0.4510,-2.0851,-2.8313,-0.0604,-1.4583,0.1976,-0.1161,
11.529033,0.0701,0.5617,-0.4510,-2.0851,-2.8313,-0.0604,-2.8160,-0.7819,0.5305,
11.549911,0.3530,0.8328,0.1112,-2.0851,-2.8313,-0.0604,-2.8160,-0.7819,0.5305,
11.552510,0.3530,0.8328,0.1112,0.6601,-0.4922,4.7556,-2.8160,-0.7819,0.5305,
11.554280,0.3530,0.8328,0.1112,0.6601,-0.4922,4.7556,-3.8717,-2.3569,0.5459,
11.569692,0.3530,0.8328,0.1112,0.6601,-0.4922,4.7556,-3.7050,-3.4323,0.2509,
11.589933,0.1244,1.3725,0.4708,0.6601,-0.4922,4.7556,-3.7050,-3.4323,0.2509,
11.592111,0.1244,1.3725,0.4708,-1.3661,4.3591,7.2278,-3.7050,-3.4323,0.2509,
11.593782,0.1244,1.3725,0.4708,-1.3661,4.3591,7.2278,-2.4842,-2.0538,0.0218,
11.610820,0.1244,1.3725,0.4708,-1.3661,4.3591,7.2278,-1.4871,0.6658,-0.3057,
11.629128,0.1283,0.9745,-0.1974,-1.3661,4.3591,7.2278,-1.4871,0.6658,-0.3057,
11.631189,0.1283,0.9745,-0.1974,-1.1942,0.2478,-0.0310,-1.4871,0.6658,-0.3057,
11.632178,0.1283,0.9745,-0.1974,-1.1942,0.2478,-0.0310,-1.4983,1.6320,-0.6935,
11.648969,0.1283,0.9745,-0.1974,-1.1942,0.2478,-0.0310,-1.7060,0.8405,-0.8027,
11.669574,0.2856,0.6775,-0.2216,-1.1942,0.2478,-0.0310,-1.7060,0.8405,-0.8027,
11.671994,0.2856,0.6775,-0.2216,0.5483,-2.8320,-0.9868,-1.7060,0.8405,-0.8027,
11.673809,0.2856,0.6775,-0.2216,0.5483,-2.8320,-0.9868,-2.0155,-0.4911,-0.8698,
11.689120,0.2856,0.6775,-0.2216,0.5483,-2.8320,-0.9868,-2.2685,-1.0615,-0.7111,
11.709590,0.2404,0.7380,-0.0344,0.5483,-2.8320,-0.9868,-2.2685,-1.0615,-0.7111,
11.711897,0.2404,0.7380,-0.0344,0.4298,-2.3731,0.0940,-2.2685,-1.0615,-0.7111,
11.713605,0.2404,0.7380,-0.0344,0.4298,-2.3731,0.0940,-2.1673,-1.0669,-0.3132,
11.730099,0.2404,0.7380,-0.0344,0.4298,-2.3731,0.0940,-1.8679,-0.9918,-0.0724,
11.748996,0.0752,0.7908,0.1603,0.4298,-2.3731,0.0940,-1.8679,-0.9918,-0.0724,
11.752351,0.0752,0.7908,0.1603,-1.1114,-1.8771,1.3032,-1.8679,-0.9918,-0.0724,
11.754333,0.0752,0.7908,0.1603,-1.1114,-1.8771,1.3032,-1.1116,-0.6413,0.1720,
11.768694,0.0752,0.7908,0.1603,-1.1114,-1.8771,1.3032,-0.7207,-0.5252,0.3989,
11.789224,0.1290,0.9897,-0.2362,-1.1114,-1.8771,1.3032,-0.7207,-0.5252,0.3989,
11.792122,0.1290,0.9897,-0.2362,-0.7042,0.1090,-2.8900,-0.7207,-0.5252,0.3989,
11.794510,0.1290,0.9897,-0.2362,-0.7042,0.1090,-2.8900,-0.9470,-0.2471,0.4133,
11.811273,0.1290,0.9897,-0.2362,-0.7042,0.1090,-2.8900,-1.7066,0.0623,0.3659,
11.829603,0.2121,0.9748,-0.0054,-0.7042,0.1090,-2.8900,-1.7066,0.0623,0.3659,
11.833503,0.2121,0.9748,-0.0054,-0.0374,0.0346,-1.1006,-1.7066,0.0623,0.3659,
11.835119,0.2121,0.9748,-0.0054,-0.0374,0.0346,-1.1006,-2.2227,-0.3015,0.1859,
11.849201,0.2121,0.9748,-0.0054,-0.0374,0.0346,-1.1006,-2.2056,-0.4245,0.0437,
11.869269,0.1742,0.9240,-0.0628,-0.0374,0.0346,-1.1006,-2.2056,-0.4245,0.0437,
11.873092,0.1742,0.9240,-0.0628,-0.4692,-0.3334,-2.4302,-2.2056,-0.4245,0.0437,
11.875047,0.1742,0.9240,-0.0628,-0.4692,-0.3334,-2.4302,-2.0458,0.6280,0.0799,
11.889150,0.1742,0.9240,-0.0628,-0.4692,-0.3334,-2.4302,-1.3151,1.6006,0.2924,
11.908824,0.1818,1.3356,0.0198,-0.4692,-0.3334,-2.4302,-1.3151,1.6006,0.2924,
11.911270,0.1818,1.3356,0.0198,-0.3626,3.8617,-2.3417,-1.3151,1.6006,0.2924,
11.913117,0.1818,1.3356,0.0198,-0.3626,3.8617,-2.3417,-0.2237,0.7350,0.4442,
11.928911,0.1818,1.3356,0.0198,-0.3626,3.8617,-2.3417,0.0447,-1.0903,0.3276,
11.948473,0.3386,1.3559,-0.0977,-0.3626,3.8617,-2.3417,0.0447,-1.0903,0.3276,
11.952552,0.3386,1.3559,-0.0977,1.0142,4.1036,-3.5093,0.0447,-1.0903,0.3276,
11.955024,0.3386,1.3559,-0.0977,1.0142,4.1036,-3.5093,-0.2056,-1.3364,-0.1166,
11.968603,0.3386,1.3559,-0.0977,1.0142,4.1036,-3.5093,-0.1406,-0.3419,-0.4181,
11.987826,0.2350,1.2154,0.3142,1.0142,4.1036,-3.5093,-0.1406,-0.3419,-0.4181,
11.989607,0.2350,1.2154,0.3142,0.0120,2.7196,0.5418,-0.1406,-0.3419,-0.4181,
11.991019,0.2350,1.2154,0.3142,0.0120,2.7196,0.5418,0.9417,-0.1358,-0.2668,
12.010114,0.2350,1.2154,0.3142,0.0120,2.7196,0.5418,2.0464,-0.1486,-0.2045,
12.028385,0.1131,1.1866,0.3232,0.0120,2.7196,0.5418,2.0464,-0.1486,-0.2045,
12.031022,0.1131,1.1866,0.3232,-1.1086,2.2814,1.1965,2.0464,-0.1486,-0.2045,
12.033008,0.1131,1.1866,0.3232,-1.1086,2.2814,1.1965,2.6791,-0.6759,-0.0128,
12.048719,0.1131,1.1866,0.3232,-1.1086,2.2814,1.1965,3.2746,-0.8522,0.2882,
12.068574,0.4036,1.0845,0.3025,-1.1086,2.2814,1.1965,3.2746,-0.8522,0.2882,
12.070873,0.4036,1.0845,0.3025,1.6442,1.1294,2.1837,3.2746,-0.8522,0.2882,
12.072462,0.4036,1.0845,0.3025,1.6442,1.1294,2.1837,3.9138,-0.8655,0.3494,
12.088904,0.4036,1.0845,0.3025,1.6442,1.1294,2.1837,3.8120,-0.8352,0.4352,
12.108377,0.9137,1.2064,-0.0584,1.6442,1.1294,2.1837,3.8120,-0.8352,0.4352,
12.110603,0.9137,1.2064,-0.0584,6.4941,2.3605,0.1938,3.8120,-0.8352,0.4352,
12.112146,0.9137,1.2064,-0.0584,6.4941,2.3605,0.1938,2.8634,-0.6935,0.1955,
12.129509,0.9137,1.2064,-0.0584,6.4941,2.3605,0.1938,2.4064,0.1348,0.2690,
12.149040,0.6095,1.1441,-0.0493,6.4941,2.3605,0.1938,2.4064,0.1348,0.2690,
12.151267,0.6095,1.1441,-0.0493,3.4367,1.9083,1.2983,2.4064,0.1348,0.2690,
12.152859,0.6095,1.1441,-0.0493,3.4367,1.9083,1.2983,2.8917,0.6221,0.6072,
12.168556,0.6095,1.1441,-0.0493,3.4367,1.9083,1.2983,3.1750,-0.1182,0.6573,
12.189199,0.3320,0.9291,-0.3577,3.4367,1.9083,1.2983,3.1750,-0.1182,0.6573,
12.191404,0.3320,0.9291,-0.3577,0.4669,0.1494,-0.6418,3.1750,-0.1182,0.6573,
12.193139,0.3320,0.9291,-0.3577,0.4669,0.1494,-0.6418,2.5375,-0.4181,0.7233,
12.210159,0.3320,0.9291,-0.3577,0.4669,0.1494,-0.6418,1.9047,-0.1129,0.4000,
12.228908,0.0066,0.6670,0.1769,0.4669,0.1494,-0.6418,1.9047,-0.1129,0.4000,
12.231215,0.0066,0.6670,0.1769,-2.8866,-2.0768,5.3771,1.9047,-0.1129,0.4000,
12.233059,0.0066,0.6670,0.1769,-2.8866,-2.0768,5.3771,2.0671,-1.2293,0.3084,
12.248895,0.0066,0.6670,0.1769,-2.8866,-2.0768,5.3771,2.2967,-1.3566,0.4314,
12.268211,0.2125,0.4439,0.0193,-2.8866,-2.0768,5.3771,2.2967,-1.3566,0.4314,
12.270543,0.2125,0.4439,0.0193,-0.7814,-3.8635,4.7169,2.2967,-1.3566,0.4314,
12.272235,0.2125,0.4439,0.0193,-0.7814,-3.8635,4.7169,2.3436,-0.0362,0.4304,
12.288791,0.2125,0.4439,0.0193,-0.7814,-3.8635,4.7169,2.1795,1.6176,0.1800,
12.308904,0.3281,0.5108,0.0371,-0.7814,-3.8635,4.7169,2.1795,1.6176,0.1800,
12.311180,0.3281,0.5108,0.0371,0.0942,-2.7318,5.5167,2.1795,1.6176,0.1800,
12.312890,0.3281,0.5108,0.0371,0.0942,-2.7318,5.5167,2.1912,1.9622,-0.2051,
12.328211,0.3281,0.5108,0.0371,0.0942,-2.7318,5.5167,1.8903,2.1375,-0.4256,
12.348121,0.4053,0.2861,-0.4043,0.0942,-2.7318,5.5167,1.8903,2.1375,-0.4256,
12.351210,0.4053,0.2861,-0.4043,0.5074,-4.5413,1.5349,1.8903,2.1375,-0.4256,
12.352792,0.4053,0.2861,-0.4043,0.5074,-4.5413,1.5349,1.1718,2.1401,-0.6258,
12.368134,0.4053,0.2861,-0.4043,0.5074,-4.5413,1.5349,0.2003,1.7124,-0.8107,
12.388363,0.2231,0.1666,-0.7319,0.5074,-4.5413,1.5349,0.2003,1.7124,-0.8107,
12.390977,0.2231,0.1666,-0.7319,-1.4921,-5.6644,-1.7514,0.2003,1.7124,-0.8107,
12.393132,0.2231,0.1666,-0.7319,-1.4921,-5.6644,-1.7514,-0.8405,1.0434,-0.8655,
12.408872,0.2231,0.1666,-0.7319,-1.4921,-5.6644,-1.7514,-1.9015,0.2205,-0.8304,
12.428199,0.3963,0.4952,-0.8859,-1.4921,-5.6644,-1.7514,-1.9015,0.2205,-0.8304,
12.431448,0.3963,0.4952,-0.8859,0.3254,-2.8494,-3.7637,-1.9015,0.2205,-0.8304,
12.433556,0.3963,0.4952,-0.8859,0.3254,-2.8494,-3.7637,-2.5907,0.1353,-0.8336,
12.448486,0.3963,0.4952,-0.8859,0.3254,-2.8494,-3.7637,-2.2344,0.3526,-0.8682,
12.468487,0.7268,1.8565,-0.6626,0.3254,-2.8494,-3.7637,-2.2344,0.3526,-0.8682,
12.471846,0.7268,1.8565,-0.6626,3.7934,9.9382,-2.3779,-2.2344,0.3526,-0.8682,
12.473882,0.7268,1.8565,-0.6626,3.7934,9.9382,-2.3779,-1.0770,0.2903,-0.0192,
12.487639,0.7268,1.8565,-0.6626,3.7934,9.9382,-2.3779,1.2123,1.9393,0.2658,
12.508500,0.6897,1.1016,-0.6665,3.7934,9.9382,-2.3779,1.2123,1.9393,0.2658,
12.510720,0.6897,1.1016,-0.6665,3.2122,2.5665,-2.5468,1.2123,1.9393,0.2658,
12.512302,0.6897,1.1016,-0.6665,3.2122,2.5665,-2.5468,3.6922,2.9913,-0.1028,
12.528383,0.6897,1.1016,-0.6665,3.2122,2.5665,-2.5468,2.3942,1.2517,-0.1917,
12.547362,0.3965,0.4444,-1.1944,3.2122,2.5665,-2.5468,2.3942,1.2517,-0.1917,
12.549679,0.3965,0.4444,-1.1944,0.0240,-3.3731,-7.0650,2.3942,1.2517,-0.1917,
12.551266,0.3965,0.4444,-1.1944,0.0240,-3.3731,-7.0650,-0.0607,-0.2407,-0.1816,
12.567515,0.3965,0.4444,-1.1944,0.0240,-3.3731,-7.0650,-1.5766,-1.3614,0.1332,
12.588116,0.7710,1.1326,0.3894,0.0240,-3.3731,-7.0650,-1.5766,-1.3614,0.1332,
12.591113,0.7710,1.1326,0.3894,3.8483,3.2177,8.3219,-1.5766,-1.3614,0.1332,
12.592726,0.7710,1.1326,0.3894,3.8483,3.2177,8.3219,-2.4448,-2.6227,0.0911,
12.608833,0.7710,1.1326,0.3894,3.8483,3.2177,8.3219,-2.1758,-4.2424,-0.4277,
12.628060,0.6462,0.8030,0.1334,3.8483,3.2177,8.3219,-2.1758,-4.2424,-0.4277,
12.630481,0.6462,0.8030,0.1334,3.2661,-0.4346,5.5269,-2.1758,-4.2424,-0.4277,
12.631919,0.6462,0.8030,0.1334,3.2661,-0.4346,5.5269,-0.3169,-2.2786,-0.4266,
12.647264,0.6462,0.8030,0.1334,3.2661,-0.4346,5.5269,-0.6067,0.9257,0.1763,
12.667483,0.1524,0.6889,-0.6262,3.2661,-0.4346,5.5269,-0.6067,0.9257,0.1763,
12.668886,0.1524,0.6889,-0.6262,-1.4539,-1.6401,-2.0062,-0.6067,0.9257,0.1763,
12.670072,0.1524,0.6889,-0.6262,-1.4539,-1.6401,-2.0062,-2.4874,1.1910,0.5310,
12.687399,0.1524,0.6889,-0.6262,-1.4539,-1.6401,-2.0062,-3.8680,-0.9843,0.4389,
12.708051,0.1642,1.0801,0.8126,-1.4539,-1.6401,-2.0062,-3.8680,-0.9843,0.4389,
12.710597,0.1642,1.0801,0.8126,-1.5374,1.7788,10.9170,-3.8680,-0.9843,0.4389,
12.712446,0.1642,1.0801,0.8126,-1.5374,1.7788,10.9170,-3.7183,-3.1271,-0.1012,
12.727567,0.1642,1.0801,0.8126,-1.5374,1.7788,10.9170,-2.0794,-2.9614,-0.2157,
12.747594,-0.0217,1.3427,-0.4183,-1.5374,1.7788,10.9170,-2.0794,-2.9614,-0.2157,
12.750777,-0.0217,1.3427,-0.4183,-2.9918,4.0333,-1.8233,-2.0794,-2.9614,-0.2157,
12.752769,-0.0217,1.3427,-0.4183,-2.9918,4.0333,-1.8233,-1.3401,0.9545,-0.3830,
12.767957,-0.0217,1.3427,-0.4183,-2.9918,4.0333,-1.8233,-1.8078,2.8602,-0.7952,
12.788819,0.2812,0.6916,-0.1197,-2.9918,4.0333,-1.8233,-1.8078,2.8602,-0.7952,
12.791223,0.2812,0.6916,-0.1197,0.0649,-2.5356,0.3055,-1.8078,2.8602,-0.7952,
12.793125,0.2812,0.6916,-0.1197,0.0649,-2.5356,0.3055,-1.8711,1.4195,-0.9444,
12.809000,0.2812,0.6916,-0.1197,0.0649,-2.5356,0.3055,-1.8685,-0.3190,-0.9246,
12.827625,0.3100,0.6633,-0.1080,0.0649,-2.5356,0.3055,-1.8685,-0.3190,-0.9246,
12.830271,0.3100,0.6633,-0.1080,0.6683,-2.9886,-0.3408,-1.8685,-0.3190,-0.9246,
12.832341,0.3100,0.6633,-0.1080,0.6683,-2.9886,-0.3408,-2.0490,-1.0493,-0.7127,
12.848423,0.3100,0.6633,-0.1080,0.6683,-2.9886,-0.3408,-2.2205,-0.8485,-0.3505,
12.868390,0.2006,0.7073,0.1266,0.6683,-2.9886,-0.3408,-2.2205,-0.8485,-0.3505,
12.870846,0.2006,0.7073,0.1266,-0.1874,-2.6362,1.2296,-2.2205,-0.8485,-0.3505,
12.872642,0.2006,0.7073,0.1266,-0.1874,-2.6362,1.2296,-1.7092,0.0522,-0.1198,
12.887551,0.2006,0.7073,0.1266,-0.1874,-2.6362,1.2296,-1.0072,0.3265,0.2226,
12.907553,0.1542,0.9027,-0.1168,-0.1874,-2.6362,1.2296,-1.0072,0.3265,0.2226,
12.909718,0.1542,0.9027,-0.1168,-0.6588,-0.7015,-1.6901,-1.0072,0.3265,0.2226,
12.911660,0.1542,0.9027,-0.1168,-0.6588,-0.7015,-1.6901,-0.6322,0.1539,0.2988,
12.928337,0.1542,0.9027,-0.1168,-0.6588,-0.7015,-1.6901,-1.1883,0.2029,0.1619,
12.948157,0.1058,0.8895,-0.0005,-0.6588,-0.7015,-1.6901,-1.1883,0.2029,0.1619,
12.951900,0.1058,0.8895,-0.0005,-1.2155,-0.7840,-0.9126,-1.1883,0.2029,0.1619,
12.954343,0.1058,0.8895,-0.0005,-1.2155,-0.7840,-0.9126,-2.0714,-0.4879,0.1752,
12.967445,0.1058,0.8895,-0.0005,-1.2155,-0.7840,-0.9126,-2.0341,-0.8852,0.1816,
12.987069,0.3203,0.9447,0.0467,-1.2155,-0.7840,-0.9126,-2.0341,-0.8852,0.1816,
12.989557,0.3203,0.9447,0.0467,0.7822,-0.1244,-1.1488,-2.0341,-0.8852,0.1816,
12.991157,0.3203,0.9447,0.0467,0.7822,-0.1244,-1.1488,-1.6480,-0.2003,0.3127,
13.008961,0.3203,0.9447,0.0467,0.7822,-0.1244,-1.1488,-1.4621,1.1745,0.3925,
13.027291,0.2328,1.2342,-0.0200,0.7822,-0.1244,-1.1488,-1.4621,1.1745,0.3925,
13.029458,0.2328,1.2342,-0.0200,-0.1607,2.8560,-2.3957,-1.4621,1.1745,0.3925,
13.031231,0.2328,1.2342,-0.0200,-0.1607,2.8560,-2.3957,-1.0035,1.7028,0.4101,
13.047284,0.2328,1.2342,-0.0200,-0.1607,2.8560,-2.3957,-0.3318,0.7377,0.3840,
13.067257,0.1134,1.4355,-0.1954,-0.1607,2.8560,-2.3957,-0.3318,0.7377,0.3840,
13.069459,0.1134,1.4355,-0.1954,-1.3608,4.9311,-4.4789,-0.3318,0.7377,0.3840,
13.071450,0.1134,1.4355,-0.1954,-1.3608,4.9311,-4.4789,-0.1555,-0.7734,0.2557,
13.087139,0.1134,1.4355,-0.1954,-1.3608,4.9311,-4.4789,-0.2882,-1.0104,-0.0421,
13.106749,0.0579,1.3984,0.3032,-1.3608,4.9311,-4.4789,-0.2882,-1.0104,-0.0421,
13.109198,0.0579,1.3984,0.3032,-2.0342,4.6005,0.4177,-0.2882,-1.0104,-0.0421,
13.110636,0.0579,1.3984,0.3032,-2.0342,4.6005,0.4177,0.3116,-0.6040,-0.2296,
13.126632,0.0579,1.3984,0.3032,-2.0342,4.6005,0.4177,1.5164,0.0682,-0.3329,
13.146953,0.1617,1.2797,0.3147,-2.0342,4.6005,0.4177,1.5164,0.0682,-0.3329,
13.149660,0.1617,1.2797,0.3147,-0.9409,3.3218,0.8929,1.5164,0.0682,-0.3329,
13.151215,0.1617,1.2797,0.3147,-0.9409,3.3218,0.8929,2.4442,0.4123,-0.4005,
13.167332,0.1617,1.2797,0.3147,-0.9409,3.3218,0.8929,3.2267,-0.1278,-0.1321,
13.187491,0.4302,0.9926,0.3518,-0.9409,3.3218,0.8929,3.2267,-0.1278,-0.1321,
13.189699,0.4302,0.9926,0.3518,1.8018,0.2923,2.3005,3.2267,-0.1278,-0.1321,
13.191460,0.4302,0.9926,0.3518,1.8018,0.2923,2.3005,3.7258,-0.6381,0.2104,
13.208863,0.4302,0.9926,0.3518,1.8018,0.2923,2.3005,3.9633,-0.9646,0.5220,
13.226999,1.1282,0.9359,-0.0166,1.8018,0.2923,2.3005,3.9633,-0.9646,0.5220,
13.229001,1.1282,0.9359,-0.0166,8.4934,-0.2858,0.2220,3.9633,-0.9646,0.5220,
13.230824,1.1282,0.9359,-0.0166,8.4934,-0.2858,0.2220,3.6059,-0.6962,0.3462,
13.247844,1.1282,0.9359,-0.0166,8.4934,-0.2858,0.2220,2.7308,-0.3707,0.2647,
13.267027,0.7319,1.2684,0.0022,8.4934,-0.2858,0.2220,2.7308,-0.3707,0.2647,
13.269892,0.7319,1.2684,0.0022,4.5158,3.1326,1.6510,2.7308,-0.3707,0.2647,
13.271496,0.7319,1.2684,0.0022,4.5158,3.1326,1.6510,2.6466,0.3302,0.6663,
13.287299,0.7319,1.2684,0.0022,4.5158,3.1326,1.6510,3.1042,0.4820,0.7185,
13.307559,0.2658,0.9594,-0.3560,4.5158,3.1326,1.6510,3.1042,0.4820,0.7185,
13.311690,0.2658,0.9594,-0.3560,-0.3404,0.4267,-0.8541,3.1042,0.4820,0.7185,
13.313793,0.2658,0.9594,-0.3560,-0.3404,0.4267,-0.8541,3.1010,0.0543,0.6168,
13.327061,0.2658,0.9594,-0.3560,-0.3404,0.4267,-0.8541,2.3569,0.3931,0.4772,
13.347080,0.0034,0.7070,0.0208,-0.3404,0.4267,-0.8541,2.3569,0.3931,0.4772,
13.349400,0.0034,0.7070,0.0208,-3.1318,-1.6631,3.7149,2.3569,0.3931,0.4772,
13.351277,0.0034,0.7070,0.0208,-3.1318,-1.6631,3.7149,2.1774,-0.8719,0.2732,
13.366641,0.0034,0.7070,0.0208,-3.1318,-1.6631,3.7149,2.1486,-1.4733,0.2605,
13.386989,0.1556,0.5111,0.0662,-3.1318,-1.6631,3.7149,2.1486,-1.4733,0.2605,
13.389654,0.1556,0.5111,0.0662,-1.5426,-3.2094,5.0332,2.1486,-1.4733,0.2605,
13.391446,0.1556,0.5111,0.0662,-1.5426,-3.2094,5.0332,2.0405,-0.6429,0.2189,
13.406813,0.1556,0.5111,0.0662,-1.5426,-3.2094,5.0332,2.0666,1.2602,0.0474,
13.428046,0.3227,0.4847,0.1263,-1.5426,-3.2094,5.0332,2.0666,1.2602,0.0474,
13.430981,0.3227,0.4847,0.1263,-0.0122,-3.0641,6.2407,2.0666,1.2602,0.0474,
13.432908,0.3227,0.4847,0.1263,-0.0122,-3.0641,6.2407,2.1082,1.9627,-0.2360,
13.446807,0.3227,0.4847,0.1263,-0.0122,-3.0641,6.2407,2.0229,2.0895,-0.4991,
13.467174,0.4351,0.3012,-0.3257,-0.0122,-3.0641,6.2407,2.0229,2.0895,-0.4991,
13.470129,0.4351,0.3012,-0.3257,0.7801,-4.4833,2.1703,2.0229,2.0895,-0.4991,
13.471874,0.4351,0.3012,-0.3257,0.7801,-4.4833,2.1703,1.5100,2.0528,-0.6999,
13.486825,0.4351,0.3012,-0.3257,0.7801,-4.4833,2.1703,0.6290,1.5777,-0.9108,
13.506824,0.2949,0.1451,-0.6310,0.7801,-4.4833,2.1703,0.6290,1.5777,-0.9108,
13.509097,0.2949,0.1451,-0.6310,-0.7502,-5.8976,-0.7674,0.6290,1.5777,-0.9108,
13.510744,0.2949,0.1451,-0.6310,-0.7502,-5.8976,-0.7674,-0.4575,1.1361,-0.9923,
13.526756,0.2949,0.1451,-0.6310,-0.7502,-5.8976,-0.7674,-1.5169,0.5667,-1.0077,
13.546396,0.4253,0.3007,-0.9352,-0.7502,-5.8976,-0.7674,-1.5169,0.5667,-1.0077,
13.549763,0.4253,0.3007,-0.9352,0.6472,-4.7203,-4.1669,-1.5169,0.5667,-1.0077,
13.551880,0.4253,0.3007,-0.9352,0.6472,-4.7203,-4.1669,-2.4171,0.0975,-0.9747,
13.566143,0.4253,0.3007,-0.9352,0.6472,-4.7203,-4.1669,-2.6365,0.2961,-0.9305,
13.586656,0.4314,1.6767,-0.8485,0.6472,-4.7203,-4.1669,-2.6365,0.2961,-0.9305,
13.589456,0.4314,1.6767,-0.8485,0.9747,8.1719,-4.1479,-2.6365,0.2961,-0.9305,
13.591507,0.4314,1.6767,-0.8485,0.9747,8.1719,-4.1479,-1.4051,-0.0719,-0.3526,
13.610048,0.4314,1.6767,-0.8485,0.9747,8.1719,-4.1479,0.1529,0.8426,0.5172,
13.626277,0.9816,1.2689,-0.0537,0.9747,8.1719,-4.1479,0.1529,0.8426,0.5172,
13.628343,0.9816,1.2689,-0.0537,6.2786,4.0851,3.3818,0.1529,0.8426,0.5172,
13.629858,0.9816,1.2689,-0.0537,6.2786,4.0851,3.3818,2.5103,2.0229,0.0879,
13.646014,0.9816,1.2689,-0.0537,6.2786,4.0851,3.3818,3.4030,2.7484,-0.0208,
13.666182,0.5431,0.3359,-1.4358,6.2786,4.0851,3.3818,3.4030,2.7484,-0.0208,
13.668962,0.5431,0.3359,-1.4358,1.5673,-4.5550,-9.5437,3.4030,2.7484,-0.0208,
13.671053,0.5431,0.3359,-1.4358,1.5673,-4.5550,-9.5437,0.9891,1.1137,-0.0874,
13.686176,0.5431,0.3359,-1.4358,1.5673,-4.5550,-9.5437,-0.7723,-0.6200,0.2972,
13.706066,0.6560,1.2010,0.0083,1.5673,-4.5550,-9.5437,-0.7723,-0.6200,0.2972,
13.708931,0.6560,1.2010,0.0083,2.5957,3.9589,4.6056,-0.7723,-0.6200,0.2972,
13.710427,0.6560,1.2010,0.0083,2.5957,3.9589,4.6056,-1.7183,-2.1055,0.2573,
13.726027,0.6560,1.2010,0.0083,2.5957,3.9589,4.6056,-2.1513,-3.8435,-0.1609,
13.746066,0.8925,0.7092,0.3728,2.5957,3.9589,4.6056,-2.1513,-3.8435,-0.1609,
13.748774,0.8925,0.7092,0.3728,5.4222,-1.1938,7.9888,-2.1513,-3.8435,-0.1609,
13.750528,0.8925,0.7092,0.3728,5.4222,-1.1938,7.9888,-1.6576,-2.5982,-0.3095,
13.766671,0.8925,0.7092,0.3728,5.4222,-1.1938,7.9888,-0.8128,-0.1630,-0.3329,
13.786851,0.2326,0.7884,-0.4520,5.4222,-1.1938,7.9888,-0.8128,-0.1630,-0.3329,
13.789115,0.2326,0.7884,-0.4520,-0.7785,-0.6635,-0.3754,-0.8128,-0.1630,-0.3329,
13.791426,0.2326,0.7884,-0.4520,-0.7785,-0.6635,-0.3754,-1.7556,0.2450,0.3505,
13.806144,0.2326,0.7884,-0.4520,-0.7785,-0.6635,-0.3754,-3.3545,-1.3124,0.3931,
13.825848,0.2756,0.8311,0.3359,-0.7785,-0.6635,-0.3754,-3.3545,-1.3124,0.3931,
13.828616,0.2756,0.8311,0.3359,-0.4211,-0.5729,6.5204,-3.3545,-1.3124,0.3931,
13.830715,0.2756,0.8311,0.3359,-0.4211,-0.5729,6.5204,-3.6991,-2.9748,0.1747,
